"","image_2","image_1","worker_id","trial_index","time_elapsed","start_time","experiment_order","rt","experiment","response","phase","stimulus","correct","question_order","talk_out_loud","strategy_free_ans","cor_key","type","VerbalScored","VisualScored","high_low_verbal","name_agreement_img1","name_agreement_img2","trial_no_ptcp"
"1","visual/beer.png","visual/deer.png","AMNUNZ65OSTFO",19,89914,2022-05-18 15:17:28,"rhyme-task_switching-same_different-phon_sim",2007.4,"rhyme","arrowup","experiment","<div style=""border: 3px solid #000000; position: fixed;left:14%;top:30%""><img src=""visual/deer.png"" width=""300""></div><div style=""border: 3px solid #000000; position: fixed;left:64%;top:30%""><img src=""visual/beer.png"" width=""300""></div>",1,NA,"No","I said the pictures in my head before choosing.","arrowup","ortho",1.75,3.9,"low_verbal",0.65,0.75,1
"2","visual/beer.png","visual/claw.png","A26RO8GGTQAXGG",19,152751,2022-05-23 17:52:31,"rhyme-same_different-task_switching-phon_sim",2192.40000009537,"rhyme","arrowdown","experiment","<div style=""border: 3px solid #000000; position: fixed;left:14%;top:30%""><img src=""visual/claw.png"" width=""300""></div><div style=""border: 3px solid #000000; position: fixed;left:64%;top:30%""><img src=""visual/beer.png"" width=""300""></div>",1,NA,"No","some were hard to tell what they were supposed to be","arrowdown","NR",1.42,2.7,"low_verbal",0.55,0.75,1
"3","visual/bell.png","visual/well.png","A3I40B0FATY8VH",19,49754,2022-09-26 16:25:20,"rhyme-task_switching-same_different-phon_sim",2392.19999999553,"rhyme","arrowup","experiment","<div style=""border: 3px solid #000000; position: fixed;left:14%;top:30%""><img src=""visual/well.png"" width=""300""></div><div style=""border: 3px solid #000000; position: fixed;left:64%;top:30%""><img src=""visual/bell.png"" width=""300""></div>",1,NA,"No","No, I just said it in my head rather than out loud.","arrowup","ortho",4.75,4.5,"high_verbal",0.95,0.9,1
"4","visual/bread.png","visual/bed.png","A2OVWCQ4B9AHFY",19,279830,2022-05-27 01:29:15,"rhyme-phon_sim-same_different-task_switching",2482.69999999925,"rhyme","arrowup","experiment","<div style=""border: 3px solid #000000; position: fixed;left:14%;top:30%""><img src=""visual/bed.png"" width=""300""></div><div style=""border: 3px solid #000000; position: fixed;left:64%;top:30%""><img src=""visual/bread.png"" width=""300""></div>",1,NA,"No","I said it in my head ""aloud"".","arrowup","non-ortho",2.42,4.6,"low_verbal",0.95,0.9,1
"5","visual/chair.png","visual/drawer.png","79580",19,78350,2022-09-30 23:39:35,"rhyme-task_switching-phon_sim-same_different",4610.79999995232,"rhyme","arrowdown","experiment","<div style=""border: 3px solid #000000; position: fixed;left:14%;top:30%""><img src=""visual/drawer.png"" width=""300""></div><div style=""border: 3px solid #000000; position: fixed;left:64%;top:30%""><img src=""visual/chair.png"" width=""300""></div>",1,NA,"No","I always viewed the picture on the left first","arrowdown","NR",3,3.5,"low_verbal",0.8,0.95,1
"6","visual/clock.png","visual/brain.png","77763",19,86236,2022-10-01 21:54:26,"rhyme-task_switching-same_different-phon_sim",2578.89999999851,"rhyme","arrowdown","experiment","<div style=""border: 3px solid #000000; position: fixed;left:14%;top:30%""><img src=""visual/brain.png"" width=""300""></div><div style=""border: 3px solid #000000; position: fixed;left:64%;top:30%""><img src=""visual/clock.png"" width=""300""></div>",1,NA,"Yes","N/A","arrowdown","NR",3,3.8,"low_verbal",0.95,0.95,1
"7","visual/cone.png","visual/bone.png","79188",19,95732,2022-10-05 03:34:39,"rhyme-phon_sim-same_different-task_switching",1980.90000009537,"rhyme","arrowup","experiment","<div style=""border: 3px solid #000000; position: fixed;left:14%;top:30%""><img src=""visual/bone.png"" width=""300""></div><div style=""border: 3px solid #000000; position: fixed;left:64%;top:30%""><img src=""visual/cone.png"" width=""300""></div>",1,NA,"Yes","Try to connect the two picture into one and say their combination","arrowup","ortho",3.08333333333333,3.2,"low_verbal",0.95,0.7,1
"8","visual/cone.png","visual/bone.png","A1JJYY622DGE5L",19,44800,2022-05-18 16:04:26,"rhyme-same_different-phon_sim-task_switching",1231.5,"rhyme","arrowup","experiment","<div style=""border: 3px solid #000000; position: fixed;left:14%;top:30%""><img src=""visual/bone.png"" width=""300""></div><div style=""border: 3px solid #000000; position: fixed;left:64%;top:30%""><img src=""visual/cone.png"" width=""300""></div>",1,NA,"No","I said the words in my head.","arrowup","ortho",4.67,4.4,"high_verbal",0.95,0.7,1
"9","visual/crab.png","visual/spoon.png","AKR9067Q09RZS",19,201447,2022-05-19 23:47:25,"rhyme-same_different-task_switching-phon_sim",1365,"rhyme","arrowdown","experiment","<div style=""border: 3px solid #000000; position: fixed;left:14%;top:30%""><img src=""visual/spoon.png"" width=""300""></div><div style=""border: 3px solid #000000; position: fixed;left:64%;top:30%""><img src=""visual/crab.png"" width=""300""></div>",1,NA,"Yes","I tried to quickly reference in my mind if I had heard the two words referenced together in rhyme before. I also tried to think ahead about what rhymed with certain words.","arrowdown","NR",5,4.8,"high_verbal",1,0.95,1
"10","visual/door.png","visual/tree.png","AXPZAP62ZYWP8",19,59525,2022-09-26 16:41:02,"rhyme-task_switching-phon_sim-same_different",1935.20000004768,"rhyme","arrowdown","experiment","<div style=""border: 3px solid #000000; position: fixed;left:14%;top:30%""><img src=""visual/tree.png"" width=""300""></div><div style=""border: 3px solid #000000; position: fixed;left:64%;top:30%""><img src=""visual/door.png"" width=""300""></div>",1,NA,"Yes","no","arrowdown","NR",4.16666667,4.1,"high_verbal",0.85,0.95,1
"11","visual/fox.png","visual/socks.png","A2H2LO1OOF8R5N",19,76001,2022-05-19 02:21:50,"rhyme-task_switching-same_different-phon_sim",1265.70000000298,"rhyme","arrowup","experiment","<div style=""border: 3px solid #000000; position: fixed;left:14%;top:30%""><img src=""visual/socks.png"" width=""300""></div><div style=""border: 3px solid #000000; position: fixed;left:64%;top:30%""><img src=""visual/fox.png"" width=""300""></div>",1,NA,"No","I mentally ""stated"" the words as a pair.","arrowup","non-ortho",1.67,3.3,"low_verbal",0.9,0.85,1
"12","visual/jar.png","visual/star.png","79167",19,53238,2022-10-01 01:08:02,"rhyme-task_switching-same_different-phon_sim",1699.89999999106,"rhyme","arrowup","experiment","<div style=""border: 3px solid #000000; position: fixed;left:14%;top:30%""><img src=""visual/star.png"" width=""300""></div><div style=""border: 3px solid #000000; position: fixed;left:64%;top:30%""><img src=""visual/jar.png"" width=""300""></div>",1,NA,"Yes","Try to connect the two picture into one and say their combination","arrowup","ortho",2.83333333333333,3.2,"low_verbal",0.95,0.95,1
"13","visual/leg.png","visual/egg.png","A304UJAE051J89",19,2379038,2022-05-19 12:34:06,"rhyme-same_different-phon_sim-task_switching",2479.80000001192,"rhyme","arrowup","experiment","<div style=""border: 3px solid #000000; position: fixed;left:14%;top:30%""><img src=""visual/egg.png"" width=""300""></div><div style=""border: 3px solid #000000; position: fixed;left:64%;top:30%""><img src=""visual/leg.png"" width=""300""></div>",1,NA,"Yes","I just went with my gut intuition","arrowup","ortho",4.75,5,"high_verbal",0.95,0.85,1
"14","visual/plane.png","visual/fly.png","AIA7RZSAONU5M",19,85992,2022-09-26 18:48:01,"rhyme-phon_sim-task_switching-same_different",2180.89999997616,"rhyme","arrowdown","experiment","<div style=""border: 3px solid #000000; position: fixed;left:14%;top:30%""><img src=""visual/fly.png"" width=""300""></div><div style=""border: 3px solid #000000; position: fixed;left:64%;top:30%""><img src=""visual/plane.png"" width=""300""></div>",1,NA,"No","I said the words in my head and made my selection as quickly as possible.","arrowdown","NR",4.41666667,4.2,"high_verbal",0.95,0.35,1
"15","visual/ring.png","visual/king.png","A1PUSSRD8P5HHH",19,154587,2022-05-27 03:39:06,"rhyme-same_different-task_switching-phon_sim",2323.69999980927,"rhyme","arrowup","experiment","<div style=""border: 3px solid #000000; position: fixed;left:14%;top:30%""><img src=""visual/king.png"" width=""300""></div><div style=""border: 3px solid #000000; position: fixed;left:64%;top:30%""><img src=""visual/ring.png"" width=""300""></div>",1,NA,"Yes","no","arrowup","ortho",2.67,3,"low_verbal",0.8,0.9,1
"16","visual/ring.png","visual/egg.png","A3DUPRZSMU9W5R",19,74516,2022-05-27 00:13:57,"rhyme-task_switching-phon_sim-same_different",1607.5,"rhyme","arrowdown","experiment","<div style=""border: 3px solid #000000; position: fixed;left:14%;top:30%""><img src=""visual/egg.png"" width=""300""></div><div style=""border: 3px solid #000000; position: fixed;left:64%;top:30%""><img src=""visual/ring.png"" width=""300""></div>",1,NA,"No","Some of the pictures weren't clear as to what it was mainly about. I said the words in my head","arrowdown","NR",2.58,2.4,"low_verbal",0.95,0.9,1
"17","visual/ring.png","visual/king.png","A1CFMY4CEYOM8Y",19,58964,2022-05-18 16:39:34,"rhyme-task_switching-same_different-phon_sim",1303.10000000149,"rhyme","arrowup","experiment","<div style=""border: 3px solid #000000; position: fixed;left:14%;top:30%""><img src=""visual/king.png"" width=""300""></div><div style=""border: 3px solid #000000; position: fixed;left:64%;top:30%""><img src=""visual/ring.png"" width=""300""></div>",1,NA,"No","np","arrowup","ortho",2.92,4.2,"low_verbal",0.8,0.9,1
"18","visual/rope.png","visual/soap.png","80446",19,86337,2022-10-01 16:26:06,"rhyme-phon_sim-task_switching-same_different",1604.69999998808,"rhyme","arrowdown","experiment","<div style=""border: 3px solid #000000; position: fixed;left:14%;top:30%""><img src=""visual/soap.png"" width=""300""></div><div style=""border: 3px solid #000000; position: fixed;left:64%;top:30%""><img src=""visual/rope.png"" width=""300""></div>",0,NA,"Yes","Sometimes it seemed like I was trying to make words rhyme by the way I was saying them.","arrowup","non-ortho",2.91666666666667,3.3,"low_verbal",0.8,1,1
"19","visual/rope.png","visual/pear.png","A1DUPOUC9RNU4L",19,1296278,2022-05-19 10:57:08,"rhyme-phon_sim-same_different-task_switching",1574.09999996424,"rhyme","arrowdown","experiment","<div style=""border: 3px solid #000000; position: fixed;left:14%;top:30%""><img src=""visual/pear.png"" width=""300""></div><div style=""border: 3px solid #000000; position: fixed;left:64%;top:30%""><img src=""visual/rope.png"" width=""300""></div>",1,NA,"Yes","I just tried to figure out the right words and say them to myself","arrowdown","NR",2.25,3.7,"low_verbal",0.95,1,1
"20","visual/rose.png","visual/well.png","A2WJMGV0HKQG3Z",19,111594,2022-05-19 01:29:39,"rhyme-phon_sim-same_different-task_switching",2105,"rhyme","arrowdown","experiment","<div style=""border: 3px solid #000000; position: fixed;left:14%;top:30%""><img src=""visual/well.png"" width=""300""></div><div style=""border: 3px solid #000000; position: fixed;left:64%;top:30%""><img src=""visual/rose.png"" width=""300""></div>",1,NA,"Yes","nothing","arrowdown","NR",4.67,4.7,"high_verbal",0.95,0.95,1
"21","visual/tie.png","visual/dart.png","A3T01NM4993LZE",19,43014,2022-09-26 16:14:11,"rhyme-phon_sim-same_different-task_switching",1321.89999997616,"rhyme","arrowdown","experiment","<div style=""border: 3px solid #000000; position: fixed;left:14%;top:30%""><img src=""visual/dart.png"" width=""300""></div><div style=""border: 3px solid #000000; position: fixed;left:64%;top:30%""><img src=""visual/tie.png"" width=""300""></div>",1,NA,"No","said mentally","arrowdown","NR",4.16666667,3.8,"high_verbal",0.9,0.7,1
"22","visual/tree.png","visual/key.png","A2615YW1YERQBO",19,790471,2022-05-26 23:13:28,"rhyme-same_different-task_switching-phon_sim",1347.30000007153,"rhyme","arrowup","experiment","<div style=""border: 3px solid #000000; position: fixed;left:14%;top:30%""><img src=""visual/key.png"" width=""300""></div><div style=""border: 3px solid #000000; position: fixed;left:64%;top:30%""><img src=""visual/tree.png"" width=""300""></div>",1,NA,"No","I had to guess at first for some of these.","arrowup","non-ortho",2.58,3.7,"low_verbal",0.95,0.85,1
"23","visual/whale.png","visual/nail.png","A26UIS59SY4NM6",19,108448,2022-05-19 01:48:22,"rhyme-task_switching-phon_sim-same_different",1738.19999999925,"rhyme","arrowup","experiment","<div style=""border: 3px solid #000000; position: fixed;left:14%;top:30%""><img src=""visual/nail.png"" width=""300""></div><div style=""border: 3px solid #000000; position: fixed;left:64%;top:30%""><img src=""visual/whale.png"" width=""300""></div>",1,NA,"Yes","It got easier as I knew each picture better.","arrowup","non-ortho",4.75,4.5,"high_verbal",0.95,0.95,1
"24","visual/whale.png","visual/jar.png","AJF954955YWZG",19,52467,2022-05-18 15:15:10,"rhyme-same_different-task_switching-phon_sim",2428.10000002384,"rhyme","arrowdown","experiment","<div style=""border: 3px solid #000000; position: fixed;left:14%;top:30%""><img src=""visual/jar.png"" width=""300""></div><div style=""border: 3px solid #000000; position: fixed;left:64%;top:30%""><img src=""visual/whale.png"" width=""300""></div>",1,NA,"No","I tried to quickly reference in my mind if I had heard the two words referenced together in rhyme before. I also tried to think ahead about what rhymed with certain words.","arrowdown","NR",2.17,3.9,"low_verbal",0.95,0.95,1
"25","visual/bread.png","visual/bed.png","A289D98Z4GAZ28",22,82845,2022-05-26 23:45:34,"rhyme-same_different-task_switching-phon_sim",1666.09999999404,"rhyme","arrowup","experiment","<div style=""border: 3px solid #000000; position: fixed;left:14%;top:30%""><img src=""visual/bed.png"" width=""300""></div><div style=""border: 3px solid #000000; position: fixed;left:64%;top:30%""><img src=""visual/bread.png"" width=""300""></div>",1,NA,"Yes","no","arrowup","non-ortho",2.5,3,"low_verbal",0.95,0.9,1
"26","visual/chain.png","visual/plane.png","AMELYCC59JKB0",22,261373,2022-09-27 20:52:23,"rhyme-same_different-phon_sim-task_switching",1748.59999999404,"rhyme","arrowup","experiment","<div style=""border: 3px solid #000000; position: fixed;left:14%;top:30%""><img src=""visual/plane.png"" width=""300""></div><div style=""border: 3px solid #000000; position: fixed;left:64%;top:30%""><img src=""visual/chain.png"" width=""300""></div>",1,NA,"Yes","think of the most simple word for the image","arrowup","non-ortho",4.25,4.1,"high_verbal",0.35,0.95,1
"27","visual/chain.png","visual/plane.png","78391",22,73326,2022-10-01 21:04:28,"rhyme-same_different-phon_sim-task_switching",1417.90000009537,"rhyme","arrowup","experiment","<div style=""border: 3px solid #000000; position: fixed;left:14%;top:30%""><img src=""visual/plane.png"" width=""300""></div><div style=""border: 3px solid #000000; position: fixed;left:64%;top:30%""><img src=""visual/chain.png"" width=""300""></div>",1,NA,"No","Said in my mind, not vocally","arrowup","non-ortho",3.08333333333333,3.9,"low_verbal",0.35,0.95,1
"28","visual/clock.png","visual/sock.png","AIA7RZSAONU5M",22,89020,2022-09-26 18:48:01,"rhyme-phon_sim-task_switching-same_different",1518.79999998212,"rhyme","arrowup","experiment","<div style=""border: 3px solid #000000; position: fixed;left:14%;top:30%""><img src=""visual/sock.png"" width=""300""></div><div style=""border: 3px solid #000000; position: fixed;left:64%;top:30%""><img src=""visual/clock.png"" width=""300""></div>",1,NA,"No","I said the words in my head and made my selection as quickly as possible.","arrowup","ortho",4.41666667,4.2,"high_verbal",0.9,0.95,2
"29","visual/clock.png","visual/sock.png","A15T9HDPHV3X7Q",22,42512,2022-05-19 02:18:12,"rhyme-phon_sim-task_switching-same_different",1538.59999990463,"rhyme","arrowup","experiment","<div style=""border: 3px solid #000000; position: fixed;left:14%;top:30%""><img src=""visual/sock.png"" width=""300""></div><div style=""border: 3px solid #000000; position: fixed;left:64%;top:30%""><img src=""visual/clock.png"" width=""300""></div>",1,NA,"Yes","no","arrowup","ortho",1.33,1.9,"low_verbal",0.9,0.95,1
"30","visual/clock.png","visual/brain.png","A2OVWCQ4B9AHFY",22,283108,2022-05-27 01:29:15,"rhyme-phon_sim-same_different-task_switching",1742.30000000075,"rhyme","arrowdown","experiment","<div style=""border: 3px solid #000000; position: fixed;left:14%;top:30%""><img src=""visual/brain.png"" width=""300""></div><div style=""border: 3px solid #000000; position: fixed;left:64%;top:30%""><img src=""visual/clock.png"" width=""300""></div>",1,NA,"No","I said it in my head ""aloud"".","arrowdown","NR",2.42,4.6,"low_verbal",0.95,0.95,2
"31","visual/crane.png","visual/train.png","A2615YW1YERQBO",22,794038,2022-05-26 23:13:28,"rhyme-same_different-task_switching-phon_sim",2789.30000007153,"rhyme","arrowup","experiment","<div style=""border: 3px solid #000000; position: fixed;left:14%;top:30%""><img src=""visual/train.png"" width=""300""></div><div style=""border: 3px solid #000000; position: fixed;left:64%;top:30%""><img src=""visual/crane.png"" width=""300""></div>",1,NA,"No","I had to guess at first for some of these.","arrowup","non-ortho",2.58,3.7,"low_verbal",0.95,0.7,2
"32","visual/fly.png","visual/tie.png","79580",22,80987,2022-09-30 23:39:35,"rhyme-task_switching-phon_sim-same_different",1359.89999985695,"rhyme","arrowup","experiment","<div style=""border: 3px solid #000000; position: fixed;left:14%;top:30%""><img src=""visual/tie.png"" width=""300""></div><div style=""border: 3px solid #000000; position: fixed;left:64%;top:30%""><img src=""visual/fly.png"" width=""300""></div>",1,NA,"No","I always viewed the picture on the left first","arrowup","non-ortho",3,3.5,"low_verbal",0.7,0.95,2
"33","visual/fly.png","visual/tie.png","A1DUPOUC9RNU4L",22,1299474,2022-05-19 10:57:08,"rhyme-phon_sim-same_different-task_switching",1947.10000002384,"rhyme","arrowup","experiment","<div style=""border: 3px solid #000000; position: fixed;left:14%;top:30%""><img src=""visual/tie.png"" width=""300""></div><div style=""border: 3px solid #000000; position: fixed;left:64%;top:30%""><img src=""visual/fly.png"" width=""300""></div>",1,NA,"Yes","I just tried to figure out the right words and say them to myself","arrowup","non-ortho",2.25,3.7,"low_verbal",0.7,0.95,2
"34","visual/fox.png","visual/socks.png","AXPZAP62ZYWP8",22,62200,2022-09-26 16:41:02,"rhyme-task_switching-phon_sim-same_different",1649.39999997616,"rhyme","arrowup","experiment","<div style=""border: 3px solid #000000; position: fixed;left:14%;top:30%""><img src=""visual/socks.png"" width=""300""></div><div style=""border: 3px solid #000000; position: fixed;left:64%;top:30%""><img src=""visual/fox.png"" width=""300""></div>",1,NA,"Yes","no","arrowup","non-ortho",4.16666667,4.1,"high_verbal",0.9,0.85,2
"35","visual/fox.png","visual/box.png","A1PUSSRD8P5HHH",22,156887,2022-05-27 03:39:06,"rhyme-same_different-task_switching-phon_sim",1025.2999997139,"rhyme","arrowup","experiment","<div style=""border: 3px solid #000000; position: fixed;left:14%;top:30%""><img src=""visual/box.png"" width=""300""></div><div style=""border: 3px solid #000000; position: fixed;left:64%;top:30%""><img src=""visual/fox.png"" width=""300""></div>",1,NA,"Yes","no","arrowup","ortho",2.67,3,"low_verbal",0.95,0.85,2
"36","visual/hat.png","visual/cat.png","AMNUNZ65OSTFO",22,92905,2022-05-18 15:17:28,"rhyme-task_switching-same_different-phon_sim",1483.6,"rhyme","arrowup","experiment","<div style=""border: 3px solid #000000; position: fixed;left:14%;top:30%""><img src=""visual/cat.png"" width=""300""></div><div style=""border: 3px solid #000000; position: fixed;left:64%;top:30%""><img src=""visual/hat.png"" width=""300""></div>",1,NA,"No","I said the pictures in my head before choosing.","arrowup","ortho",1.75,3.9,"low_verbal",0.9,1,2
"37","visual/heart.png","visual/dart.png","79167",22,56989,2022-10-01 01:08:02,"rhyme-task_switching-same_different-phon_sim",2236.40000000596,"rhyme","arrowdown","experiment","<div style=""border: 3px solid #000000; position: fixed;left:14%;top:30%""><img src=""visual/dart.png"" width=""300""></div><div style=""border: 3px solid #000000; position: fixed;left:64%;top:30%""><img src=""visual/heart.png"" width=""300""></div>",0,NA,"Yes","Try to connect the two picture into one and say their combination","arrowup","non-ortho",2.83333333333333,3.2,"low_verbal",0.9,0.9,2
"38","visual/leg.png","visual/egg.png","A3T01NM4993LZE",22,46526,2022-09-26 16:14:11,"rhyme-phon_sim-same_different-task_switching",1979.80000001192,"rhyme","arrowup","experiment","<div style=""border: 3px solid #000000; position: fixed;left:14%;top:30%""><img src=""visual/egg.png"" width=""300""></div><div style=""border: 3px solid #000000; position: fixed;left:64%;top:30%""><img src=""visual/leg.png"" width=""300""></div>",1,NA,"No","said mentally","arrowup","ortho",4.16666667,3.8,"high_verbal",0.95,0.85,2
"39","visual/moon.png","visual/spoon.png","A3DUPRZSMU9W5R",22,76964,2022-05-27 00:13:57,"rhyme-task_switching-phon_sim-same_different",1172.69999999925,"rhyme","arrowup","experiment","<div style=""border: 3px solid #000000; position: fixed;left:14%;top:30%""><img src=""visual/spoon.png"" width=""300""></div><div style=""border: 3px solid #000000; position: fixed;left:64%;top:30%""><img src=""visual/moon.png"" width=""300""></div>",1,NA,"No","Some of the pictures weren't clear as to what it was mainly about. I said the words in my head","arrowup","ortho",2.58,2.4,"low_verbal",1,0.95,2
"40","visual/ring.png","visual/egg.png","A304UJAE051J89",22,2381537,2022-05-19 12:34:06,"rhyme-same_different-phon_sim-task_switching",1713,"rhyme","arrowdown","experiment","<div style=""border: 3px solid #000000; position: fixed;left:14%;top:30%""><img src=""visual/egg.png"" width=""300""></div><div style=""border: 3px solid #000000; position: fixed;left:64%;top:30%""><img src=""visual/ring.png"" width=""300""></div>",1,NA,"Yes","I just went with my gut intuition","arrowdown","NR",4.75,5,"high_verbal",0.95,0.9,2
"41","visual/rope.png","visual/soap.png","A1CFMY4CEYOM8Y",22,61540,2022-05-18 16:39:34,"rhyme-task_switching-same_different-phon_sim",1302.5,"rhyme","arrowup","experiment","<div style=""border: 3px solid #000000; position: fixed;left:14%;top:30%""><img src=""visual/soap.png"" width=""300""></div><div style=""border: 3px solid #000000; position: fixed;left:64%;top:30%""><img src=""visual/rope.png"" width=""300""></div>",1,NA,"No","np","arrowup","non-ortho",2.92,4.2,"low_verbal",0.8,1,2
"42","visual/rope.png","visual/soap.png","A2M183CETUMR96",22,126011,2022-05-26 23:55:49,"rhyme-phon_sim-task_switching-same_different",1253.60000000149,"rhyme","arrowup","experiment","<div style=""border: 3px solid #000000; position: fixed;left:14%;top:30%""><img src=""visual/soap.png"" width=""300""></div><div style=""border: 3px solid #000000; position: fixed;left:64%;top:30%""><img src=""visual/rope.png"" width=""300""></div>",1,NA,"Yes","No","arrowup","non-ortho",2.25,1.8,"low_verbal",0.8,1,1
"43","visual/rose.png","visual/well.png","A26UIS59SY4NM6",22,111425,2022-05-19 01:48:22,"rhyme-task_switching-phon_sim-same_different",2216.20000000298,"rhyme","arrowdown","experiment","<div style=""border: 3px solid #000000; position: fixed;left:14%;top:30%""><img src=""visual/well.png"" width=""300""></div><div style=""border: 3px solid #000000; position: fixed;left:64%;top:30%""><img src=""visual/rose.png"" width=""300""></div>",1,NA,"Yes","It got easier as I knew each picture better.","arrowdown","NR",4.75,4.5,"high_verbal",0.95,0.95,2
"44","visual/screw.png","visual/train.png","A2WJMGV0HKQG3Z",22,114839,2022-05-19 01:29:39,"rhyme-phon_sim-same_different-task_switching",2229.29999999702,"rhyme","arrowdown","experiment","<div style=""border: 3px solid #000000; position: fixed;left:14%;top:30%""><img src=""visual/train.png"" width=""300""></div><div style=""border: 3px solid #000000; position: fixed;left:64%;top:30%""><img src=""visual/screw.png"" width=""300""></div>",1,NA,"Yes","nothing","arrowdown","NR",4.67,4.7,"high_verbal",0.95,1,2
"45","visual/seal.png","visual/wheel.png","A26BQ33MHKVYFB",22,110384,2022-05-27 01:09:36,"rhyme-task_switching-same_different-phon_sim",NA,"rhyme","null","experiment","<div style=""border: 3px solid #000000; position: fixed;left:14%;top:30%""><img src=""visual/wheel.png"" width=""300""></div><div style=""border: 3px solid #000000; position: fixed;left:64%;top:30%""><img src=""visual/seal.png"" width=""300""></div>",0,NA,"No","no","arrowup","non-ortho",2.33,2.5,"low_verbal",0.75,0.75,1
"46","visual/shoe.png","visual/screw.png","A1JJYY622DGE5L",22,46963,2022-05-18 16:04:26,"rhyme-same_different-phon_sim-task_switching",1378.10000000894,"rhyme","arrowup","experiment","<div style=""border: 3px solid #000000; position: fixed;left:14%;top:30%""><img src=""visual/screw.png"" width=""300""></div><div style=""border: 3px solid #000000; position: fixed;left:64%;top:30%""><img src=""visual/shoe.png"" width=""300""></div>",1,NA,"No","I said the words in my head.","arrowup","non-ortho",4.67,4.4,"high_verbal",1,0.85,2
"47","visual/soap.png","visual/pope.png","80446",22,88888,2022-10-01 16:26:06,"rhyme-phon_sim-task_switching-same_different",1543.59999999404,"rhyme","arrowup","experiment","<div style=""border: 3px solid #000000; position: fixed;left:14%;top:30%""><img src=""visual/pope.png"" width=""300""></div><div style=""border: 3px solid #000000; position: fixed;left:64%;top:30%""><img src=""visual/soap.png"" width=""300""></div>",1,NA,"Yes","Sometimes it seemed like I was trying to make words rhyme by the way I was saying them.","arrowup","non-ortho",2.91666666666667,3.3,"low_verbal",0.45,0.8,2
"48","visual/square_rhyme.png","visual/bear.png","A2H2LO1OOF8R5N",22,79976,2022-05-19 02:21:50,"rhyme-task_switching-same_different-phon_sim",2465,"rhyme","arrowup","experiment","<div style=""border: 3px solid #000000; position: fixed;left:14%;top:30%""><img src=""visual/bear.png"" width=""300""></div><div style=""border: 3px solid #000000; position: fixed;left:64%;top:30%""><img src=""visual/square_rhyme.png"" width=""300""></div>",1,NA,"No","I mentally ""stated"" the words as a pair.","arrowup","non-ortho",1.67,3.3,"low_verbal",0.95,0.85,2
"49","visual/tie.png","visual/dart.png","77763",22,90048,2022-10-01 21:54:26,"rhyme-task_switching-same_different-phon_sim",2305.09999999404,"rhyme","arrowdown","experiment","<div style=""border: 3px solid #000000; position: fixed;left:14%;top:30%""><img src=""visual/dart.png"" width=""300""></div><div style=""border: 3px solid #000000; position: fixed;left:64%;top:30%""><img src=""visual/tie.png"" width=""300""></div>",1,NA,"Yes","N/A","arrowdown","NR",3,3.8,"low_verbal",0.9,0.7,2
"50","visual/train.png","visual/plane.png","A26RO8GGTQAXGG",22,155318,2022-05-23 17:52:31,"rhyme-same_different-task_switching-phon_sim",1283.60000002384,"rhyme","arrowup","experiment","<div style=""border: 3px solid #000000; position: fixed;left:14%;top:30%""><img src=""visual/plane.png"" width=""300""></div><div style=""border: 3px solid #000000; position: fixed;left:64%;top:30%""><img src=""visual/train.png"" width=""300""></div>",1,NA,"No","some were hard to tell what they were supposed to be","arrowup","non-ortho",1.42,2.7,"low_verbal",0.35,0.95,2
"51","visual/tree.png","visual/key.png","78304",22,80846,2022-10-04 17:25:00,"rhyme-phon_sim-same_different-task_switching",1821,"rhyme","arrowdown","experiment","<div style=""border: 3px solid #000000; position: fixed;left:14%;top:30%""><img src=""visual/key.png"" width=""300""></div><div style=""border: 3px solid #000000; position: fixed;left:64%;top:30%""><img src=""visual/tree.png"" width=""300""></div>",0,NA,"Yes","used the pictures after I had seen them a few times","arrowup","non-ortho",4.83333333333333,4,"high_verbal",0.95,0.85,1
"52","visual/whale.png","visual/jar.png","A3I40B0FATY8VH",22,55658,2022-09-26 16:25:20,"rhyme-task_switching-same_different-phon_sim",4899.19999999553,"rhyme","arrowdown","experiment","<div style=""border: 3px solid #000000; position: fixed;left:14%;top:30%""><img src=""visual/jar.png"" width=""300""></div><div style=""border: 3px solid #000000; position: fixed;left:64%;top:30%""><img src=""visual/whale.png"" width=""300""></div>",1,NA,"No","No, I just said it in my head rather than out loud.","arrowdown","NR",4.75,4.5,"high_verbal",0.95,0.95,2
"53","visual/whale.png","visual/nail.png","AKR9067Q09RZS",22,205117,2022-05-19 23:47:25,"rhyme-same_different-task_switching-phon_sim",2661,"rhyme","arrowup","experiment","<div style=""border: 3px solid #000000; position: fixed;left:14%;top:30%""><img src=""visual/nail.png"" width=""300""></div><div style=""border: 3px solid #000000; position: fixed;left:64%;top:30%""><img src=""visual/whale.png"" width=""300""></div>",1,NA,"Yes","I tried to quickly reference in my mind if I had heard the two words referenced together in rhyme before. I also tried to think ahead about what rhymed with certain words.","arrowup","non-ortho",5,4.8,"high_verbal",0.95,0.95,2
"54","visual/whale.png","visual/nail.png","AB09F0Q4T10TE",22,64666,2022-09-26 17:15:36,"rhyme-task_switching-phon_sim-same_different",2787.09999990463,"rhyme","arrowup","experiment","<div style=""border: 3px solid #000000; position: fixed;left:14%;top:30%""><img src=""visual/nail.png"" width=""300""></div><div style=""border: 3px solid #000000; position: fixed;left:64%;top:30%""><img src=""visual/whale.png"" width=""300""></div>",1,NA,"No","I said the words in my head and made my selection as quickly as possible.","arrowup","non-ortho",4.25,3.7,"high_verbal",0.95,0.95,1
"55","visual/bag.png","visual/flag.png","A2M183CETUMR96",25,128338,2022-05-26 23:55:49,"rhyme-phon_sim-task_switching-same_different",1075.60000000149,"rhyme","arrowup","experiment","<div style=""border: 3px solid #000000; position: fixed;left:14%;top:30%""><img src=""visual/flag.png"" width=""300""></div><div style=""border: 3px solid #000000; position: fixed;left:64%;top:30%""><img src=""visual/bag.png"" width=""300""></div>",1,NA,"Yes","No","arrowup","ortho",2.25,1.8,"low_verbal",0.9,0.95,2
"56","visual/bag.png","visual/flag.png","AMELYCC59JKB0",25,264538,2022-09-27 20:52:23,"rhyme-same_different-phon_sim-task_switching",1654,"rhyme","arrowup","experiment","<div style=""border: 3px solid #000000; position: fixed;left:14%;top:30%""><img src=""visual/flag.png"" width=""300""></div><div style=""border: 3px solid #000000; position: fixed;left:64%;top:30%""><img src=""visual/bag.png"" width=""300""></div>",1,NA,"Yes","think of the most simple word for the image","arrowup","ortho",4.25,4.1,"high_verbal",0.9,0.95,2
"57","visual/beer.png","visual/claw.png","A2WJMGV0HKQG3Z",25,117914,2022-05-19 01:29:39,"rhyme-phon_sim-same_different-task_switching",2298.89999999851,"rhyme","arrowdown","experiment","<div style=""border: 3px solid #000000; position: fixed;left:14%;top:30%""><img src=""visual/claw.png"" width=""300""></div><div style=""border: 3px solid #000000; position: fixed;left:64%;top:30%""><img src=""visual/beer.png"" width=""300""></div>",1,NA,"Yes","nothing","arrowdown","NR",4.67,4.7,"high_verbal",0.55,0.75,3
"58","visual/bell.png","visual/well.png","78391",25,75967,2022-10-01 21:04:28,"rhyme-same_different-phon_sim-task_switching",1872.90000009537,"rhyme","arrowup","experiment","<div style=""border: 3px solid #000000; position: fixed;left:14%;top:30%""><img src=""visual/well.png"" width=""300""></div><div style=""border: 3px solid #000000; position: fixed;left:64%;top:30%""><img src=""visual/bell.png"" width=""300""></div>",1,NA,"No","Said in my mind, not vocally","arrowup","ortho",3.08333333333333,3.9,"low_verbal",0.95,0.9,2
"59","visual/bell.png","visual/nose.png","A26RO8GGTQAXGG",25,157829,2022-05-23 17:52:31,"rhyme-same_different-task_switching-phon_sim",1497,"rhyme","arrowdown","experiment","<div style=""border: 3px solid #000000; position: fixed;left:14%;top:30%""><img src=""visual/nose.png"" width=""300""></div><div style=""border: 3px solid #000000; position: fixed;left:64%;top:30%""><img src=""visual/bell.png"" width=""300""></div>",1,NA,"No","some were hard to tell what they were supposed to be","arrowdown","NR",1.42,2.7,"low_verbal",1,0.9,3
"60","visual/bread.png","visual/bed.png","78304",25,83994,2022-10-04 17:25:00,"rhyme-phon_sim-same_different-task_switching",2392,"rhyme","arrowup","experiment","<div style=""border: 3px solid #000000; position: fixed;left:14%;top:30%""><img src=""visual/bed.png"" width=""300""></div><div style=""border: 3px solid #000000; position: fixed;left:64%;top:30%""><img src=""visual/bread.png"" width=""300""></div>",1,NA,"Yes","used the pictures after I had seen them a few times","arrowup","non-ortho",4.83333333333333,4,"high_verbal",0.95,0.9,2
"61","visual/claw.png","visual/saw.png","79167",25,59890,2022-10-01 01:08:02,"rhyme-task_switching-same_different-phon_sim",1635.59999999404,"rhyme","arrowup","experiment","<div style=""border: 3px solid #000000; position: fixed;left:14%;top:30%""><img src=""visual/saw.png"" width=""300""></div><div style=""border: 3px solid #000000; position: fixed;left:64%;top:30%""><img src=""visual/claw.png"" width=""300""></div>",1,NA,"Yes","Try to connect the two picture into one and say their combination","arrowup","ortho",2.83333333333333,3.2,"low_verbal",1,0.55,3
"62","visual/cone.png","visual/bone.png","A1DUPOUC9RNU4L",25,1302313,2022-05-19 10:57:08,"rhyme-phon_sim-same_different-task_switching",1315.30000001192,"rhyme","arrowup","experiment","<div style=""border: 3px solid #000000; position: fixed;left:14%;top:30%""><img src=""visual/bone.png"" width=""300""></div><div style=""border: 3px solid #000000; position: fixed;left:64%;top:30%""><img src=""visual/cone.png"" width=""300""></div>",1,NA,"Yes","I just tried to figure out the right words and say them to myself","arrowup","ortho",2.25,3.7,"low_verbal",0.95,0.7,3
"63","visual/crane.png","visual/bear.png","A1JJYY622DGE5L",25,50748,2022-05-18 16:04:26,"rhyme-same_different-phon_sim-task_switching",2997.40000000596,"rhyme","arrowdown","experiment","<div style=""border: 3px solid #000000; position: fixed;left:14%;top:30%""><img src=""visual/bear.png"" width=""300""></div><div style=""border: 3px solid #000000; position: fixed;left:64%;top:30%""><img src=""visual/crane.png"" width=""300""></div>",1,NA,"No","I said the words in my head.","arrowdown","NR",4.67,4.4,"high_verbal",0.95,0.7,3
"64","visual/fly.png","visual/tie.png","A26UIS59SY4NM6",25,114280,2022-05-19 01:48:22,"rhyme-task_switching-phon_sim-same_different",1324.19999999925,"rhyme","arrowup","experiment","<div style=""border: 3px solid #000000; position: fixed;left:14%;top:30%""><img src=""visual/tie.png"" width=""300""></div><div style=""border: 3px solid #000000; position: fixed;left:64%;top:30%""><img src=""visual/fly.png"" width=""300""></div>",1,NA,"Yes","It got easier as I knew each picture better.","arrowup","non-ortho",4.75,4.5,"high_verbal",0.7,0.95,3
"65","visual/fox.png","visual/socks.png","A2OVWCQ4B9AHFY",25,286334,2022-05-27 01:29:15,"rhyme-phon_sim-same_different-task_switching",1939.09999999776,"rhyme","arrowdown","experiment","<div style=""border: 3px solid #000000; position: fixed;left:14%;top:30%""><img src=""visual/socks.png"" width=""300""></div><div style=""border: 3px solid #000000; position: fixed;left:64%;top:30%""><img src=""visual/fox.png"" width=""300""></div>",0,NA,"No","I said it in my head ""aloud"".","arrowup","non-ortho",2.42,4.6,"low_verbal",0.9,0.85,3
"66","visual/fox.png","visual/socks.png","A3T01NM4993LZE",25,49415,2022-09-26 16:14:11,"rhyme-phon_sim-same_different-task_switching",1381.10000002384,"rhyme","arrowup","experiment","<div style=""border: 3px solid #000000; position: fixed;left:14%;top:30%""><img src=""visual/socks.png"" width=""300""></div><div style=""border: 3px solid #000000; position: fixed;left:64%;top:30%""><img src=""visual/fox.png"" width=""300""></div>",1,NA,"No","said mentally","arrowup","non-ortho",4.16666667,3.8,"high_verbal",0.9,0.85,3
"67","visual/heart.png","visual/dart.png","A2615YW1YERQBO",25,797093,2022-05-26 23:13:28,"rhyme-same_different-task_switching-phon_sim",1782.79999995232,"rhyme","arrowup","experiment","<div style=""border: 3px solid #000000; position: fixed;left:14%;top:30%""><img src=""visual/dart.png"" width=""300""></div><div style=""border: 3px solid #000000; position: fixed;left:64%;top:30%""><img src=""visual/heart.png"" width=""300""></div>",1,NA,"No","I had to guess at first for some of these.","arrowup","non-ortho",2.58,3.7,"low_verbal",0.9,0.9,3
"68","visual/jar.png","visual/star.png","80446",25,91491,2022-10-01 16:26:06,"rhyme-phon_sim-task_switching-same_different",1095.5,"rhyme","arrowup","experiment","<div style=""border: 3px solid #000000; position: fixed;left:14%;top:30%""><img src=""visual/star.png"" width=""300""></div><div style=""border: 3px solid #000000; position: fixed;left:64%;top:30%""><img src=""visual/jar.png"" width=""300""></div>",1,NA,"Yes","Sometimes it seemed like I was trying to make words rhyme by the way I was saying them.","arrowup","ortho",2.91666666666667,3.3,"low_verbal",0.95,0.95,3
"69","visual/moon.png","visual/spoon.png","AXPZAP62ZYWP8",25,64621,2022-09-26 16:41:02,"rhyme-task_switching-phon_sim-same_different",1645.79999995232,"rhyme","arrowup","experiment","<div style=""border: 3px solid #000000; position: fixed;left:14%;top:30%""><img src=""visual/spoon.png"" width=""300""></div><div style=""border: 3px solid #000000; position: fixed;left:64%;top:30%""><img src=""visual/moon.png"" width=""300""></div>",1,NA,"Yes","no","arrowup","ortho",4.16666667,4.1,"high_verbal",1,0.95,3
"70","visual/moon.png","visual/spoon.png","AIA7RZSAONU5M",25,91637,2022-09-26 18:48:01,"rhyme-phon_sim-task_switching-same_different",1356.79999998212,"rhyme","arrowup","experiment","<div style=""border: 3px solid #000000; position: fixed;left:14%;top:30%""><img src=""visual/spoon.png"" width=""300""></div><div style=""border: 3px solid #000000; position: fixed;left:64%;top:30%""><img src=""visual/moon.png"" width=""300""></div>",1,NA,"No","I said the words in my head and made my selection as quickly as possible.","arrowup","ortho",4.41666667,4.2,"high_verbal",1,0.95,3
"71","visual/rope.png","visual/soap.png","79580",25,83191,2022-09-30 23:39:35,"rhyme-task_switching-phon_sim-same_different",1441.80000019073,"rhyme","arrowup","experiment","<div style=""border: 3px solid #000000; position: fixed;left:14%;top:30%""><img src=""visual/soap.png"" width=""300""></div><div style=""border: 3px solid #000000; position: fixed;left:64%;top:30%""><img src=""visual/rope.png"" width=""300""></div>",1,NA,"No","I always viewed the picture on the left first","arrowup","non-ortho",3,3.5,"low_verbal",0.8,1,3
"72","visual/rose.png","visual/well.png","77763",25,95478,2022-10-01 21:54:26,"rhyme-task_switching-same_different-phon_sim",4172.59999999404,"rhyme","arrowdown","experiment","<div style=""border: 3px solid #000000; position: fixed;left:14%;top:30%""><img src=""visual/well.png"" width=""300""></div><div style=""border: 3px solid #000000; position: fixed;left:64%;top:30%""><img src=""visual/rose.png"" width=""300""></div>",1,NA,"Yes","N/A","arrowdown","NR",3,3.8,"low_verbal",0.95,0.95,3
"73","visual/seal.png","visual/wheel.png","A1CFMY4CEYOM8Y",25,64300,2022-05-18 16:39:34,"rhyme-task_switching-same_different-phon_sim",1743.60000000149,"rhyme","arrowdown","experiment","<div style=""border: 3px solid #000000; position: fixed;left:14%;top:30%""><img src=""visual/wheel.png"" width=""300""></div><div style=""border: 3px solid #000000; position: fixed;left:64%;top:30%""><img src=""visual/seal.png"" width=""300""></div>",0,NA,"No","np","arrowup","non-ortho",2.92,4.2,"low_verbal",0.75,0.75,3
"74","visual/snail.png","visual/key.png","A3I40B0FATY8VH",25,59388,2022-09-26 16:25:20,"rhyme-task_switching-same_different-phon_sim",2224.79999999702,"rhyme","arrowdown","experiment","<div style=""border: 3px solid #000000; position: fixed;left:14%;top:30%""><img src=""visual/key.png"" width=""300""></div><div style=""border: 3px solid #000000; position: fixed;left:64%;top:30%""><img src=""visual/snail.png"" width=""300""></div>",1,NA,"No","No, I just said it in my head rather than out loud.","arrowdown","NR",4.75,4.5,"high_verbal",0.95,0.95,3
"75","visual/sock.png","visual/cat.png","A15T9HDPHV3X7Q",25,46158,2022-05-19 02:18:12,"rhyme-phon_sim-task_switching-same_different",2374.90000009537,"rhyme","arrowdown","experiment","<div style=""border: 3px solid #000000; position: fixed;left:14%;top:30%""><img src=""visual/cat.png"" width=""300""></div><div style=""border: 3px solid #000000; position: fixed;left:64%;top:30%""><img src=""visual/sock.png"" width=""300""></div>",1,NA,"Yes","no","arrowdown","NR",1.33,1.9,"low_verbal",0.9,0.9,2
"76","visual/square_rhyme.png","visual/bear.png","AKR9067Q09RZS",25,208326,2022-05-19 23:47:25,"rhyme-same_different-task_switching-phon_sim",2202,"rhyme","arrowup","experiment","<div style=""border: 3px solid #000000; position: fixed;left:14%;top:30%""><img src=""visual/bear.png"" width=""300""></div><div style=""border: 3px solid #000000; position: fixed;left:64%;top:30%""><img src=""visual/square_rhyme.png"" width=""300""></div>",1,NA,"Yes","I tried to quickly reference in my mind if I had heard the two words referenced together in rhyme before. I also tried to think ahead about what rhymed with certain words.","arrowup","non-ortho",5,4.8,"high_verbal",0.95,0.85,3
"77","visual/square_rhyme.png","visual/bear.png","79188",25,102572,2022-10-05 03:34:39,"rhyme-phon_sim-same_different-task_switching",1665.29999995232,"rhyme","arrowup","experiment","<div style=""border: 3px solid #000000; position: fixed;left:14%;top:30%""><img src=""visual/bear.png"" width=""300""></div><div style=""border: 3px solid #000000; position: fixed;left:64%;top:30%""><img src=""visual/square_rhyme.png"" width=""300""></div>",1,NA,"Yes","Try to connect the two picture into one and say their combination","arrowup","non-ortho",3.08333333333333,3.2,"low_verbal",0.95,0.85,2
"78","visual/thumb.png","visual/drum.png","AJF954955YWZG",25,58698,2022-05-18 15:15:10,"rhyme-same_different-task_switching-phon_sim",1109.79999995232,"rhyme","arrowup","experiment","<div style=""border: 3px solid #000000; position: fixed;left:14%;top:30%""><img src=""visual/drum.png"" width=""300""></div><div style=""border: 3px solid #000000; position: fixed;left:64%;top:30%""><img src=""visual/thumb.png"" width=""300""></div>",1,NA,"No","I tried to quickly reference in my mind if I had heard the two words referenced together in rhyme before. I also tried to think ahead about what rhymed with certain words.","arrowup","non-ortho",2.17,3.9,"low_verbal",1,0.9,2
"79","visual/tie.png","visual/eye.png","A304UJAE051J89",25,2385508,2022-05-19 12:34:06,"rhyme-same_different-phon_sim-task_switching",2429.10000002384,"rhyme","arrowup","experiment","<div style=""border: 3px solid #000000; position: fixed;left:14%;top:30%""><img src=""visual/eye.png"" width=""300""></div><div style=""border: 3px solid #000000; position: fixed;left:64%;top:30%""><img src=""visual/tie.png"" width=""300""></div>",1,NA,"Yes","I just went with my gut intuition","arrowup","non-ortho",4.75,5,"high_verbal",0.95,0.7,3
"80","visual/train.png","visual/plane.png","A289D98Z4GAZ28",25,85037,2022-05-26 23:45:34,"rhyme-same_different-task_switching-phon_sim",1423.19999999553,"rhyme","arrowdown","experiment","<div style=""border: 3px solid #000000; position: fixed;left:14%;top:30%""><img src=""visual/plane.png"" width=""300""></div><div style=""border: 3px solid #000000; position: fixed;left:64%;top:30%""><img src=""visual/train.png"" width=""300""></div>",0,NA,"Yes","no","arrowup","non-ortho",2.5,3,"low_verbal",0.35,0.95,2
"81","visual/whale.png","visual/jar.png","A26BQ33MHKVYFB",25,116928,2022-05-27 01:09:36,"rhyme-task_switching-same_different-phon_sim",NA,"rhyme","null","experiment","<div style=""border: 3px solid #000000; position: fixed;left:14%;top:30%""><img src=""visual/jar.png"" width=""300""></div><div style=""border: 3px solid #000000; position: fixed;left:64%;top:30%""><img src=""visual/whale.png"" width=""300""></div>",0,NA,"No","no","arrowdown","NR",2.33,2.5,"low_verbal",0.95,0.95,2
"82","visual/whale.png","visual/nail.png","A3DUPRZSMU9W5R",25,79147,2022-05-27 00:13:57,"rhyme-task_switching-phon_sim-same_different",1153.90000000224,"rhyme","arrowup","experiment","<div style=""border: 3px solid #000000; position: fixed;left:14%;top:30%""><img src=""visual/nail.png"" width=""300""></div><div style=""border: 3px solid #000000; position: fixed;left:64%;top:30%""><img src=""visual/whale.png"" width=""300""></div>",1,NA,"No","Some of the pictures weren't clear as to what it was mainly about. I said the words in my head","arrowup","non-ortho",2.58,2.4,"low_verbal",0.95,0.95,3
"83","visual/bell.png","visual/well.png","A3T01NM4993LZE",28,51622,2022-09-26 16:14:11,"rhyme-phon_sim-same_different-task_switching",1182.59999996424,"rhyme","arrowup","experiment","<div style=""border: 3px solid #000000; position: fixed;left:14%;top:30%""><img src=""visual/well.png"" width=""300""></div><div style=""border: 3px solid #000000; position: fixed;left:64%;top:30%""><img src=""visual/bell.png"" width=""300""></div>",1,NA,"No","said mentally","arrowup","ortho",4.16666667,3.8,"high_verbal",0.95,0.9,4
"84","visual/bell.png","visual/nose.png","A3DUPRZSMU9W5R",28,81499,2022-05-27 00:13:57,"rhyme-task_switching-phon_sim-same_different",1069.60000000149,"rhyme","arrowdown","experiment","<div style=""border: 3px solid #000000; position: fixed;left:14%;top:30%""><img src=""visual/nose.png"" width=""300""></div><div style=""border: 3px solid #000000; position: fixed;left:64%;top:30%""><img src=""visual/bell.png"" width=""300""></div>",1,NA,"No","Some of the pictures weren't clear as to what it was mainly about. I said the words in my head","arrowdown","NR",2.58,2.4,"low_verbal",1,0.9,4
"85","visual/bell.png","visual/nose.png","A3I40B0FATY8VH",28,62626,2022-09-26 16:25:20,"rhyme-task_switching-same_different-phon_sim",1981.19999999553,"rhyme","arrowdown","experiment","<div style=""border: 3px solid #000000; position: fixed;left:14%;top:30%""><img src=""visual/nose.png"" width=""300""></div><div style=""border: 3px solid #000000; position: fixed;left:64%;top:30%""><img src=""visual/bell.png"" width=""300""></div>",1,NA,"No","No, I just said it in my head rather than out loud.","arrowdown","NR",4.75,4.5,"high_verbal",1,0.9,4
"86","visual/bell.png","visual/well.png","A1PUSSRD8P5HHH",28,160572,2022-05-27 03:39:06,"rhyme-same_different-task_switching-phon_sim",1019.40000009537,"rhyme","arrowup","experiment","<div style=""border: 3px solid #000000; position: fixed;left:14%;top:30%""><img src=""visual/well.png"" width=""300""></div><div style=""border: 3px solid #000000; position: fixed;left:64%;top:30%""><img src=""visual/bell.png"" width=""300""></div>",1,NA,"Yes","no","arrowup","ortho",2.67,3,"low_verbal",0.95,0.9,3
"87","visual/cab.png","visual/king.png","A2WJMGV0HKQG3Z",28,121609,2022-05-19 01:29:39,"rhyme-phon_sim-same_different-task_switching",2924.80000000447,"rhyme","arrowdown","experiment","<div style=""border: 3px solid #000000; position: fixed;left:14%;top:30%""><img src=""visual/king.png"" width=""300""></div><div style=""border: 3px solid #000000; position: fixed;left:64%;top:30%""><img src=""visual/cab.png"" width=""300""></div>",1,NA,"Yes","nothing","arrowdown","NR",4.67,4.7,"high_verbal",0.8,0.05,4
"88","visual/chair.png","visual/drawer.png","A26UIS59SY4NM6",28,117624,2022-05-19 01:48:22,"rhyme-task_switching-phon_sim-same_different",2313.10000000149,"rhyme","arrowdown","experiment","<div style=""border: 3px solid #000000; position: fixed;left:14%;top:30%""><img src=""visual/drawer.png"" width=""300""></div><div style=""border: 3px solid #000000; position: fixed;left:64%;top:30%""><img src=""visual/chair.png"" width=""300""></div>",1,NA,"Yes","It got easier as I knew each picture better.","arrowdown","NR",4.75,4.5,"high_verbal",0.8,0.95,4
"89","visual/claw.png","visual/saw.png","80446",28,93728,2022-10-01 16:26:06,"rhyme-phon_sim-task_switching-same_different",1231.5,"rhyme","arrowup","experiment","<div style=""border: 3px solid #000000; position: fixed;left:14%;top:30%""><img src=""visual/saw.png"" width=""300""></div><div style=""border: 3px solid #000000; position: fixed;left:64%;top:30%""><img src=""visual/claw.png"" width=""300""></div>",1,NA,"Yes","Sometimes it seemed like I was trying to make words rhyme by the way I was saying them.","arrowup","ortho",2.91666666666667,3.3,"low_verbal",1,0.55,4
"90","visual/clock.png","visual/brain.png","AKR9067Q09RZS",28,212165,2022-05-19 23:47:25,"rhyme-same_different-task_switching-phon_sim",3082,"rhyme","arrowdown","experiment","<div style=""border: 3px solid #000000; position: fixed;left:14%;top:30%""><img src=""visual/brain.png"" width=""300""></div><div style=""border: 3px solid #000000; position: fixed;left:64%;top:30%""><img src=""visual/clock.png"" width=""300""></div>",1,NA,"Yes","I tried to quickly reference in my mind if I had heard the two words referenced together in rhyme before. I also tried to think ahead about what rhymed with certain words.","arrowdown","NR",5,4.8,"high_verbal",0.95,0.95,4
"91","visual/crab.png","visual/spoon.png","78391",28,79735,2022-10-01 21:04:28,"rhyme-same_different-phon_sim-task_switching",2502.79999995232,"rhyme","arrowdown","experiment","<div style=""border: 3px solid #000000; position: fixed;left:14%;top:30%""><img src=""visual/spoon.png"" width=""300""></div><div style=""border: 3px solid #000000; position: fixed;left:64%;top:30%""><img src=""visual/crab.png"" width=""300""></div>",1,NA,"No","Said in my mind, not vocally","arrowdown","NR",3.08333333333333,3.9,"low_verbal",1,0.95,3
"92","visual/door.png","visual/tree.png","A304UJAE051J89",28,2388538,2022-05-19 12:34:06,"rhyme-same_different-phon_sim-task_switching",2248.5,"rhyme","arrowdown","experiment","<div style=""border: 3px solid #000000; position: fixed;left:14%;top:30%""><img src=""visual/tree.png"" width=""300""></div><div style=""border: 3px solid #000000; position: fixed;left:64%;top:30%""><img src=""visual/door.png"" width=""300""></div>",1,NA,"Yes","I just went with my gut intuition","arrowdown","NR",4.75,5,"high_verbal",0.85,0.95,4
"93","visual/door.png","visual/drawer.png","A2615YW1YERQBO",28,800727,2022-05-26 23:13:28,"rhyme-same_different-task_switching-phon_sim",2602.39999997616,"rhyme","arrowup","experiment","<div style=""border: 3px solid #000000; position: fixed;left:14%;top:30%""><img src=""visual/drawer.png"" width=""300""></div><div style=""border: 3px solid #000000; position: fixed;left:64%;top:30%""><img src=""visual/door.png"" width=""300""></div>",1,NA,"No","I had to guess at first for some of these.","arrowup","non-ortho",2.58,3.7,"low_verbal",0.8,0.95,4
"94","visual/door.png","visual/drawer.png","AJF954955YWZG",28,61066,2022-05-18 15:15:10,"rhyme-same_different-task_switching-phon_sim",1345,"rhyme","arrowup","experiment","<div style=""border: 3px solid #000000; position: fixed;left:14%;top:30%""><img src=""visual/drawer.png"" width=""300""></div><div style=""border: 3px solid #000000; position: fixed;left:64%;top:30%""><img src=""visual/door.png"" width=""300""></div>",1,NA,"No","I tried to quickly reference in my mind if I had heard the two words referenced together in rhyme before. I also tried to think ahead about what rhymed with certain words.","arrowup","non-ortho",2.17,3.9,"low_verbal",0.8,0.95,3
"95","visual/fly.png","visual/tie.png","A289D98Z4GAZ28",28,88141,2022-05-26 23:45:34,"rhyme-same_different-task_switching-phon_sim",1579.70000000298,"rhyme","arrowup","experiment","<div style=""border: 3px solid #000000; position: fixed;left:14%;top:30%""><img src=""visual/tie.png"" width=""300""></div><div style=""border: 3px solid #000000; position: fixed;left:64%;top:30%""><img src=""visual/fly.png"" width=""300""></div>",1,NA,"Yes","no","arrowup","non-ortho",2.5,3,"low_verbal",0.7,0.95,3
"96","visual/hat.png","visual/cat.png","A1DUPOUC9RNU4L",28,1304675,2022-05-19 10:57:08,"rhyme-phon_sim-same_different-task_switching",1095.80000001192,"rhyme","arrowup","experiment","<div style=""border: 3px solid #000000; position: fixed;left:14%;top:30%""><img src=""visual/cat.png"" width=""300""></div><div style=""border: 3px solid #000000; position: fixed;left:64%;top:30%""><img src=""visual/hat.png"" width=""300""></div>",1,NA,"Yes","I just tried to figure out the right words and say them to myself","arrowup","ortho",2.25,3.7,"low_verbal",0.9,1,4
"97","visual/leg.png","visual/egg.png","79580",28,86147,2022-09-30 23:39:35,"rhyme-task_switching-phon_sim-same_different",1685.39999985695,"rhyme","arrowup","experiment","<div style=""border: 3px solid #000000; position: fixed;left:14%;top:30%""><img src=""visual/egg.png"" width=""300""></div><div style=""border: 3px solid #000000; position: fixed;left:64%;top:30%""><img src=""visual/leg.png"" width=""300""></div>",1,NA,"No","I always viewed the picture on the left first","arrowup","ortho",3,3.5,"low_verbal",0.95,0.85,4
"98","visual/ring.png","visual/egg.png","A1CFMY4CEYOM8Y",28,67012,2022-05-18 16:39:34,"rhyme-task_switching-same_different-phon_sim",1690.60000000149,"rhyme","arrowdown","experiment","<div style=""border: 3px solid #000000; position: fixed;left:14%;top:30%""><img src=""visual/egg.png"" width=""300""></div><div style=""border: 3px solid #000000; position: fixed;left:64%;top:30%""><img src=""visual/ring.png"" width=""300""></div>",1,NA,"No","np","arrowdown","NR",2.92,4.2,"low_verbal",0.95,0.9,4
"99","visual/ring.png","visual/king.png","78304",28,86161,2022-10-04 17:25:00,"rhyme-phon_sim-same_different-task_switching",1160,"rhyme","arrowup","experiment","<div style=""border: 3px solid #000000; position: fixed;left:14%;top:30%""><img src=""visual/king.png"" width=""300""></div><div style=""border: 3px solid #000000; position: fixed;left:64%;top:30%""><img src=""visual/ring.png"" width=""300""></div>",1,NA,"Yes","used the pictures after I had seen them a few times","arrowup","ortho",4.83333333333333,4,"high_verbal",0.8,0.9,3
"100","visual/rope.png","visual/pear.png","A26RO8GGTQAXGG",28,161391,2022-05-23 17:52:31,"rhyme-same_different-task_switching-phon_sim",2289.5,"rhyme","arrowdown","experiment","<div style=""border: 3px solid #000000; position: fixed;left:14%;top:30%""><img src=""visual/pear.png"" width=""300""></div><div style=""border: 3px solid #000000; position: fixed;left:64%;top:30%""><img src=""visual/rope.png"" width=""300""></div>",1,NA,"No","some were hard to tell what they were supposed to be","arrowdown","NR",1.42,2.7,"low_verbal",0.95,1,4
"101","visual/rope.png","visual/pear.png","A1JJYY622DGE5L",28,53183,2022-05-18 16:04:26,"rhyme-same_different-phon_sim-task_switching",1648.29999999702,"rhyme","arrowdown","experiment","<div style=""border: 3px solid #000000; position: fixed;left:14%;top:30%""><img src=""visual/pear.png"" width=""300""></div><div style=""border: 3px solid #000000; position: fixed;left:64%;top:30%""><img src=""visual/rope.png"" width=""300""></div>",1,NA,"No","I said the words in my head.","arrowdown","NR",4.67,4.4,"high_verbal",0.95,1,4
"102","visual/seal.png","visual/wheel.png","AIA7RZSAONU5M",28,96161,2022-09-26 18:48:01,"rhyme-phon_sim-task_switching-same_different",3016.5,"rhyme","arrowdown","experiment","<div style=""border: 3px solid #000000; position: fixed;left:14%;top:30%""><img src=""visual/wheel.png"" width=""300""></div><div style=""border: 3px solid #000000; position: fixed;left:64%;top:30%""><img src=""visual/seal.png"" width=""300""></div>",0,NA,"No","I said the words in my head and made my selection as quickly as possible.","arrowup","non-ortho",4.41666667,4.2,"high_verbal",0.75,0.75,4
"103","visual/sock.png","visual/cat.png","AB09F0Q4T10TE",28,74669,2022-09-26 17:15:36,"rhyme-task_switching-phon_sim-same_different",NA,"rhyme","null","experiment","<div style=""border: 3px solid #000000; position: fixed;left:14%;top:30%""><img src=""visual/cat.png"" width=""300""></div><div style=""border: 3px solid #000000; position: fixed;left:64%;top:30%""><img src=""visual/sock.png"" width=""300""></div>",0,NA,"No","I said the words in my head and made my selection as quickly as possible.","arrowdown","NR",4.25,3.7,"high_verbal",0.9,0.9,2
"104","visual/thumb.png","visual/drum.png","A26BQ33MHKVYFB",28,122978,2022-05-27 01:09:36,"rhyme-task_switching-same_different-phon_sim",NA,"rhyme","null","experiment","<div style=""border: 3px solid #000000; position: fixed;left:14%;top:30%""><img src=""visual/drum.png"" width=""300""></div><div style=""border: 3px solid #000000; position: fixed;left:64%;top:30%""><img src=""visual/thumb.png"" width=""300""></div>",0,NA,"No","no","arrowup","non-ortho",2.33,2.5,"low_verbal",1,0.9,3
"105","visual/tie.png","visual/dart.png","A2M183CETUMR96",28,130408,2022-05-26 23:55:49,"rhyme-phon_sim-task_switching-same_different",1318.60000000149,"rhyme","arrowdown","experiment","<div style=""border: 3px solid #000000; position: fixed;left:14%;top:30%""><img src=""visual/dart.png"" width=""300""></div><div style=""border: 3px solid #000000; position: fixed;left:64%;top:30%""><img src=""visual/tie.png"" width=""300""></div>",1,NA,"Yes","No","arrowdown","NR",2.25,1.8,"low_verbal",0.9,0.7,3
"106","visual/tree.png","visual/key.png","79188",28,104892,2022-10-05 03:34:39,"rhyme-phon_sim-same_different-task_switching",1558.5,"rhyme","arrowup","experiment","<div style=""border: 3px solid #000000; position: fixed;left:14%;top:30%""><img src=""visual/key.png"" width=""300""></div><div style=""border: 3px solid #000000; position: fixed;left:64%;top:30%""><img src=""visual/tree.png"" width=""300""></div>",1,NA,"Yes","Try to connect the two picture into one and say their combination","arrowup","non-ortho",3.08333333333333,3.2,"low_verbal",0.95,0.85,3
"107","visual/tree.png","visual/key.png","AMNUNZ65OSTFO",28,98068,2022-05-18 15:17:28,"rhyme-task_switching-same_different-phon_sim",1463.8,"rhyme","arrowup","experiment","<div style=""border: 3px solid #000000; position: fixed;left:14%;top:30%""><img src=""visual/key.png"" width=""300""></div><div style=""border: 3px solid #000000; position: fixed;left:64%;top:30%""><img src=""visual/tree.png"" width=""300""></div>",1,NA,"No","I said the pictures in my head before choosing.","arrowup","non-ortho",1.75,3.9,"low_verbal",0.95,0.85,3
"108","visual/whale.png","visual/snail.png","AXPZAP62ZYWP8",28,67994,2022-09-26 16:41:02,"rhyme-task_switching-phon_sim-same_different",2343.89999997616,"rhyme","arrowup","experiment","<div style=""border: 3px solid #000000; position: fixed;left:14%;top:30%""><img src=""visual/snail.png"" width=""300""></div><div style=""border: 3px solid #000000; position: fixed;left:64%;top:30%""><img src=""visual/whale.png"" width=""300""></div>",1,NA,"Yes","no","arrowup","non-ortho",4.16666667,4.1,"high_verbal",0.95,0.95,4
"109","visual/whale.png","visual/nail.png","A2OVWCQ4B9AHFY",28,290750,2022-05-27 01:29:15,"rhyme-phon_sim-same_different-task_switching",3136.30000000075,"rhyme","arrowup","experiment","<div style=""border: 3px solid #000000; position: fixed;left:14%;top:30%""><img src=""visual/nail.png"" width=""300""></div><div style=""border: 3px solid #000000; position: fixed;left:64%;top:30%""><img src=""visual/whale.png"" width=""300""></div>",1,NA,"No","I said it in my head ""aloud"".","arrowup","non-ortho",2.42,4.6,"low_verbal",0.95,0.95,4
"110","visual/beer.png","visual/deer.png","78391",31,85392,2022-10-01 21:04:28,"rhyme-same_different-phon_sim-task_switching",4139.79999995232,"rhyme","arrowdown","experiment","<div style=""border: 3px solid #000000; position: fixed;left:14%;top:30%""><img src=""visual/deer.png"" width=""300""></div><div style=""border: 3px solid #000000; position: fixed;left:64%;top:30%""><img src=""visual/beer.png"" width=""300""></div>",0,NA,"No","Said in my mind, not vocally","arrowup","ortho",3.08333333333333,3.9,"low_verbal",0.65,0.75,4
"111","visual/beer.png","visual/claw.png","79580",31,89223,2022-09-30 23:39:35,"rhyme-task_switching-phon_sim-same_different",2306.39999985695,"rhyme","arrowdown","experiment","<div style=""border: 3px solid #000000; position: fixed;left:14%;top:30%""><img src=""visual/claw.png"" width=""300""></div><div style=""border: 3px solid #000000; position: fixed;left:64%;top:30%""><img src=""visual/beer.png"" width=""300""></div>",1,NA,"No","I always viewed the picture on the left first","arrowdown","NR",3,3.5,"low_verbal",0.55,0.75,5
"112","visual/bread.png","visual/bed.png","80446",31,96582,2022-10-01 16:26:06,"rhyme-phon_sim-task_switching-same_different",1341.79999998212,"rhyme","arrowup","experiment","<div style=""border: 3px solid #000000; position: fixed;left:14%;top:30%""><img src=""visual/bed.png"" width=""300""></div><div style=""border: 3px solid #000000; position: fixed;left:64%;top:30%""><img src=""visual/bread.png"" width=""300""></div>",1,NA,"Yes","Sometimes it seemed like I was trying to make words rhyme by the way I was saying them.","arrowup","non-ortho",2.91666666666667,3.3,"low_verbal",0.95,0.9,5
"113","visual/cab.png","visual/king.png","A1PUSSRD8P5HHH",31,162065,2022-05-27 03:39:06,"rhyme-same_different-task_switching-phon_sim",713.799999713898,"rhyme","arrowup","experiment","<div style=""border: 3px solid #000000; position: fixed;left:14%;top:30%""><img src=""visual/king.png"" width=""300""></div><div style=""border: 3px solid #000000; position: fixed;left:64%;top:30%""><img src=""visual/cab.png"" width=""300""></div>",0,NA,"Yes","no","arrowdown","NR",2.67,3,"low_verbal",0.8,0.05,4
"114","visual/chain.png","visual/plane.png","79188",31,107115,2022-10-05 03:34:39,"rhyme-phon_sim-same_different-task_switching",1214.5,"rhyme","arrowup","experiment","<div style=""border: 3px solid #000000; position: fixed;left:14%;top:30%""><img src=""visual/plane.png"" width=""300""></div><div style=""border: 3px solid #000000; position: fixed;left:64%;top:30%""><img src=""visual/chain.png"" width=""300""></div>",1,NA,"Yes","Try to connect the two picture into one and say their combination","arrowup","non-ortho",3.08333333333333,3.2,"low_verbal",0.35,0.95,4
"115","visual/chair.png","visual/drawer.png","AXPZAP62ZYWP8",31,71235,2022-09-26 16:41:02,"rhyme-task_switching-phon_sim-same_different",2211.5,"rhyme","arrowdown","experiment","<div style=""border: 3px solid #000000; position: fixed;left:14%;top:30%""><img src=""visual/drawer.png"" width=""300""></div><div style=""border: 3px solid #000000; position: fixed;left:64%;top:30%""><img src=""visual/chair.png"" width=""300""></div>",1,NA,"Yes","no","arrowdown","NR",4.16666667,4.1,"high_verbal",0.8,0.95,5
"116","visual/clock.png","visual/brain.png","A289D98Z4GAZ28",31,90533,2022-05-26 23:45:34,"rhyme-same_different-task_switching-phon_sim",1621.5,"rhyme","arrowdown","experiment","<div style=""border: 3px solid #000000; position: fixed;left:14%;top:30%""><img src=""visual/brain.png"" width=""300""></div><div style=""border: 3px solid #000000; position: fixed;left:64%;top:30%""><img src=""visual/clock.png"" width=""300""></div>",1,NA,"Yes","no","arrowdown","NR",2.5,3,"low_verbal",0.95,0.95,4
"117","visual/clock.png","visual/brain.png","A2615YW1YERQBO",31,803253,2022-05-26 23:13:28,"rhyme-same_different-task_switching-phon_sim",1508.19999992847,"rhyme","arrowdown","experiment","<div style=""border: 3px solid #000000; position: fixed;left:14%;top:30%""><img src=""visual/brain.png"" width=""300""></div><div style=""border: 3px solid #000000; position: fixed;left:64%;top:30%""><img src=""visual/clock.png"" width=""300""></div>",1,NA,"No","I had to guess at first for some of these.","arrowdown","NR",2.58,3.7,"low_verbal",0.95,0.95,5
"118","visual/cone.png","visual/bone.png","AJF954955YWZG",31,63706,2022-05-18 15:15:10,"rhyme-same_different-task_switching-phon_sim",1118.60000002384,"rhyme","arrowup","experiment","<div style=""border: 3px solid #000000; position: fixed;left:14%;top:30%""><img src=""visual/bone.png"" width=""300""></div><div style=""border: 3px solid #000000; position: fixed;left:64%;top:30%""><img src=""visual/cone.png"" width=""300""></div>",1,NA,"No","I tried to quickly reference in my mind if I had heard the two words referenced together in rhyme before. I also tried to think ahead about what rhymed with certain words.","arrowup","ortho",2.17,3.9,"low_verbal",0.95,0.7,4
"119","visual/crab.png","visual/spoon.png","A3I40B0FATY8VH",31,65492,2022-09-26 16:25:20,"rhyme-task_switching-same_different-phon_sim",1612,"rhyme","arrowdown","experiment","<div style=""border: 3px solid #000000; position: fixed;left:14%;top:30%""><img src=""visual/spoon.png"" width=""300""></div><div style=""border: 3px solid #000000; position: fixed;left:64%;top:30%""><img src=""visual/crab.png"" width=""300""></div>",1,NA,"No","No, I just said it in my head rather than out loud.","arrowdown","NR",4.75,4.5,"high_verbal",1,0.95,5
"120","visual/crane.png","visual/bear.png","A304UJAE051J89",31,2392682,2022-05-19 12:34:06,"rhyme-same_different-phon_sim-task_switching",3375,"rhyme","arrowdown","experiment","<div style=""border: 3px solid #000000; position: fixed;left:14%;top:30%""><img src=""visual/bear.png"" width=""300""></div><div style=""border: 3px solid #000000; position: fixed;left:64%;top:30%""><img src=""visual/crane.png"" width=""300""></div>",1,NA,"Yes","I just went with my gut intuition","arrowdown","NR",4.75,5,"high_verbal",0.95,0.7,5
"121","visual/crane.png","visual/bear.png","A26RO8GGTQAXGG",31,165487,2022-05-23 17:52:31,"rhyme-same_different-task_switching-phon_sim",2571.5,"rhyme","arrowdown","experiment","<div style=""border: 3px solid #000000; position: fixed;left:14%;top:30%""><img src=""visual/bear.png"" width=""300""></div><div style=""border: 3px solid #000000; position: fixed;left:64%;top:30%""><img src=""visual/crane.png"" width=""300""></div>",1,NA,"No","some were hard to tell what they were supposed to be","arrowdown","NR",1.42,2.7,"low_verbal",0.95,0.7,5
"122","visual/door.png","visual/drawer.png","AIA7RZSAONU5M",31,99600,2022-09-26 18:48:01,"rhyme-phon_sim-task_switching-same_different",1928.09999999404,"rhyme","arrowup","experiment","<div style=""border: 3px solid #000000; position: fixed;left:14%;top:30%""><img src=""visual/drawer.png"" width=""300""></div><div style=""border: 3px solid #000000; position: fixed;left:64%;top:30%""><img src=""visual/door.png"" width=""300""></div>",1,NA,"No","I said the words in my head and made my selection as quickly as possible.","arrowup","non-ortho",4.41666667,4.2,"high_verbal",0.8,0.95,5
"123","visual/fox.png","visual/socks.png","A26BQ33MHKVYFB",31,128761,2022-05-27 01:09:36,"rhyme-task_switching-same_different-phon_sim",NA,"rhyme","null","experiment","<div style=""border: 3px solid #000000; position: fixed;left:14%;top:30%""><img src=""visual/socks.png"" width=""300""></div><div style=""border: 3px solid #000000; position: fixed;left:64%;top:30%""><img src=""visual/fox.png"" width=""300""></div>",0,NA,"No","no","arrowup","non-ortho",2.33,2.5,"low_verbal",0.9,0.85,4
"124","visual/jar.png","visual/star.png","A1CFMY4CEYOM8Y",31,70308,2022-05-18 16:39:34,"rhyme-task_switching-same_different-phon_sim",1783.30000000075,"rhyme","arrowup","experiment","<div style=""border: 3px solid #000000; position: fixed;left:14%;top:30%""><img src=""visual/star.png"" width=""300""></div><div style=""border: 3px solid #000000; position: fixed;left:64%;top:30%""><img src=""visual/jar.png"" width=""300""></div>",1,NA,"No","np","arrowup","ortho",2.92,4.2,"low_verbal",0.95,0.95,5
"125","visual/jar.png","visual/star.png","A26UIS59SY4NM6",31,119950,2022-05-19 01:48:22,"rhyme-task_switching-phon_sim-same_different",1542.39999999851,"rhyme","arrowup","experiment","<div style=""border: 3px solid #000000; position: fixed;left:14%;top:30%""><img src=""visual/star.png"" width=""300""></div><div style=""border: 3px solid #000000; position: fixed;left:64%;top:30%""><img src=""visual/jar.png"" width=""300""></div>",1,NA,"Yes","It got easier as I knew each picture better.","arrowup","ortho",4.75,4.5,"high_verbal",0.95,0.95,5
"126","visual/man.png","visual/fan.png","A1DUPOUC9RNU4L",31,1307305,2022-05-19 10:57:08,"rhyme-phon_sim-same_different-task_switching",1874.80000001192,"rhyme","arrowup","experiment","<div style=""border: 3px solid #000000; position: fixed;left:14%;top:30%""><img src=""visual/fan.png"" width=""300""></div><div style=""border: 3px solid #000000; position: fixed;left:64%;top:30%""><img src=""visual/man.png"" width=""300""></div>",1,NA,"Yes","I just tried to figure out the right words and say them to myself","arrowup","ortho",2.25,3.7,"low_verbal",0.75,0.8,5
"127","visual/nose.png","visual/rose.png","78304",31,89036,2022-10-04 17:25:00,"rhyme-phon_sim-same_different-task_switching",1619,"rhyme","arrowup","experiment","<div style=""border: 3px solid #000000; position: fixed;left:14%;top:30%""><img src=""visual/rose.png"" width=""300""></div><div style=""border: 3px solid #000000; position: fixed;left:64%;top:30%""><img src=""visual/nose.png"" width=""300""></div>",1,NA,"Yes","used the pictures after I had seen them a few times","arrowup","ortho",4.83333333333333,4,"high_verbal",0.95,1,4
"128","visual/rope.png","visual/soap.png","A2H2LO1OOF8R5N",31,91460,2022-05-19 02:21:50,"rhyme-task_switching-same_different-phon_sim",2022.59999999404,"rhyme","arrowup","experiment","<div style=""border: 3px solid #000000; position: fixed;left:14%;top:30%""><img src=""visual/soap.png"" width=""300""></div><div style=""border: 3px solid #000000; position: fixed;left:64%;top:30%""><img src=""visual/rope.png"" width=""300""></div>",1,NA,"No","I mentally ""stated"" the words as a pair.","arrowup","non-ortho",1.67,3.3,"low_verbal",0.8,1,3
"129","visual/rope.png","visual/pear.png","A2OVWCQ4B9AHFY",31,293368,2022-05-27 01:29:15,"rhyme-phon_sim-same_different-task_switching",1844.19999999925,"rhyme","arrowdown","experiment","<div style=""border: 3px solid #000000; position: fixed;left:14%;top:30%""><img src=""visual/pear.png"" width=""300""></div><div style=""border: 3px solid #000000; position: fixed;left:64%;top:30%""><img src=""visual/rope.png"" width=""300""></div>",1,NA,"No","I said it in my head ""aloud"".","arrowdown","NR",2.42,4.6,"low_verbal",0.95,1,5
"130","visual/shoe.png","visual/soap.png","AKR9067Q09RZS",31,215581,2022-05-19 23:47:25,"rhyme-same_different-task_switching-phon_sim",2662,"rhyme","arrowdown","experiment","<div style=""border: 3px solid #000000; position: fixed;left:14%;top:30%""><img src=""visual/soap.png"" width=""300""></div><div style=""border: 3px solid #000000; position: fixed;left:64%;top:30%""><img src=""visual/shoe.png"" width=""300""></div>",1,NA,"Yes","I tried to quickly reference in my mind if I had heard the two words referenced together in rhyme before. I also tried to think ahead about what rhymed with certain words.","arrowdown","NR",5,4.8,"high_verbal",0.8,0.85,5
"131","visual/shoe.png","visual/screw.png","AMNUNZ65OSTFO",31,101302,2022-05-18 15:17:28,"rhyme-task_switching-same_different-phon_sim",1724.5,"rhyme","arrowup","experiment","<div style=""border: 3px solid #000000; position: fixed;left:14%;top:30%""><img src=""visual/screw.png"" width=""300""></div><div style=""border: 3px solid #000000; position: fixed;left:64%;top:30%""><img src=""visual/shoe.png"" width=""300""></div>",1,NA,"No","I said the pictures in my head before choosing.","arrowup","non-ortho",1.75,3.9,"low_verbal",1,0.85,4
"132","visual/soap.png","visual/pope.png","AB09F0Q4T10TE",31,78028,2022-09-26 17:15:36,"rhyme-task_switching-phon_sim-same_different",1828,"rhyme","arrowup","experiment","<div style=""border: 3px solid #000000; position: fixed;left:14%;top:30%""><img src=""visual/pope.png"" width=""300""></div><div style=""border: 3px solid #000000; position: fixed;left:64%;top:30%""><img src=""visual/soap.png"" width=""300""></div>",1,NA,"No","I said the words in my head and made my selection as quickly as possible.","arrowup","non-ortho",4.25,3.7,"high_verbal",0.45,0.8,3
"133","visual/sock.png","visual/cat.png","A3T01NM4993LZE",31,54068,2022-09-26 16:14:11,"rhyme-phon_sim-same_different-task_switching",1171.89999997616,"rhyme","arrowdown","experiment","<div style=""border: 3px solid #000000; position: fixed;left:14%;top:30%""><img src=""visual/cat.png"" width=""300""></div><div style=""border: 3px solid #000000; position: fixed;left:64%;top:30%""><img src=""visual/sock.png"" width=""300""></div>",1,NA,"No","said mentally","arrowdown","NR",4.16666667,3.8,"high_verbal",0.9,0.9,5
"134","visual/sock.png","visual/cat.png","77763",31,102963,2022-10-01 21:54:26,"rhyme-task_switching-same_different-phon_sim",1498.5,"rhyme","arrowdown","experiment","<div style=""border: 3px solid #000000; position: fixed;left:14%;top:30%""><img src=""visual/cat.png"" width=""300""></div><div style=""border: 3px solid #000000; position: fixed;left:64%;top:30%""><img src=""visual/sock.png"" width=""300""></div>",1,NA,"Yes","N/A","arrowdown","NR",3,3.8,"low_verbal",0.9,0.9,4
"135","visual/tie.png","visual/dart.png","79167",31,67052,2022-10-01 01:08:02,"rhyme-task_switching-same_different-phon_sim",2520.20000000298,"rhyme","arrowdown","experiment","<div style=""border: 3px solid #000000; position: fixed;left:14%;top:30%""><img src=""visual/dart.png"" width=""300""></div><div style=""border: 3px solid #000000; position: fixed;left:64%;top:30%""><img src=""visual/tie.png"" width=""300""></div>",1,NA,"Yes","Try to connect the two picture into one and say their combination","arrowdown","NR",2.83333333333333,3.2,"low_verbal",0.9,0.7,4
"136","visual/whale.png","visual/nail.png","AMELYCC59JKB0",31,270203,2022-09-27 20:52:23,"rhyme-same_different-phon_sim-task_switching",1287.39999999106,"rhyme","arrowup","experiment","<div style=""border: 3px solid #000000; position: fixed;left:14%;top:30%""><img src=""visual/nail.png"" width=""300""></div><div style=""border: 3px solid #000000; position: fixed;left:64%;top:30%""><img src=""visual/whale.png"" width=""300""></div>",1,NA,"Yes","think of the most simple word for the image","arrowup","non-ortho",4.25,4.1,"high_verbal",0.95,0.95,3
"137","visual/whale.png","visual/snail.png","A2WJMGV0HKQG3Z",31,125042,2022-05-19 01:29:39,"rhyme-phon_sim-same_different-task_switching",2659.5,"rhyme","arrowup","experiment","<div style=""border: 3px solid #000000; position: fixed;left:14%;top:30%""><img src=""visual/snail.png"" width=""300""></div><div style=""border: 3px solid #000000; position: fixed;left:64%;top:30%""><img src=""visual/whale.png"" width=""300""></div>",1,NA,"Yes","nothing","arrowup","non-ortho",4.67,4.7,"high_verbal",0.95,0.95,5
"138","visual/whale.png","visual/nail.png","A15T9HDPHV3X7Q",31,52144,2022-05-19 02:18:12,"rhyme-phon_sim-task_switching-same_different",2361.09999990463,"rhyme","arrowup","experiment","<div style=""border: 3px solid #000000; position: fixed;left:14%;top:30%""><img src=""visual/nail.png"" width=""300""></div><div style=""border: 3px solid #000000; position: fixed;left:64%;top:30%""><img src=""visual/whale.png"" width=""300""></div>",1,NA,"Yes","no","arrowup","non-ortho",1.33,1.9,"low_verbal",0.95,0.95,3
"139","visual/bag.png","visual/flag.png","A15T9HDPHV3X7Q",34,55214,2022-05-19 02:18:12,"rhyme-phon_sim-task_switching-same_different",1805.09999990463,"rhyme","arrowup","experiment","<div style=""border: 3px solid #000000; position: fixed;left:14%;top:30%""><img src=""visual/flag.png"" width=""300""></div><div style=""border: 3px solid #000000; position: fixed;left:64%;top:30%""><img src=""visual/bag.png"" width=""300""></div>",1,NA,"Yes","no","arrowup","ortho",1.33,1.9,"low_verbal",0.9,0.95,4
"140","visual/beer.png","visual/deer.png","A2H2LO1OOF8R5N",34,94778,2022-05-19 02:21:50,"rhyme-task_switching-same_different-phon_sim",2058.5,"rhyme","arrowup","experiment","<div style=""border: 3px solid #000000; position: fixed;left:14%;top:30%""><img src=""visual/deer.png"" width=""300""></div><div style=""border: 3px solid #000000; position: fixed;left:64%;top:30%""><img src=""visual/beer.png"" width=""300""></div>",1,NA,"No","I mentally ""stated"" the words as a pair.","arrowup","ortho",1.67,3.3,"low_verbal",0.65,0.75,4
"141","visual/beer.png","visual/claw.png","77763",34,106164,2022-10-01 21:54:26,"rhyme-task_switching-same_different-phon_sim",2443.70000000298,"rhyme","arrowdown","experiment","<div style=""border: 3px solid #000000; position: fixed;left:14%;top:30%""><img src=""visual/claw.png"" width=""300""></div><div style=""border: 3px solid #000000; position: fixed;left:64%;top:30%""><img src=""visual/beer.png"" width=""300""></div>",1,NA,"Yes","N/A","arrowdown","NR",3,3.8,"low_verbal",0.55,0.75,5
"142","visual/cab.png","visual/king.png","A2615YW1YERQBO",34,807221,2022-05-26 23:13:28,"rhyme-same_different-task_switching-phon_sim",2956.59999990463,"rhyme","arrowdown","experiment","<div style=""border: 3px solid #000000; position: fixed;left:14%;top:30%""><img src=""visual/king.png"" width=""300""></div><div style=""border: 3px solid #000000; position: fixed;left:64%;top:30%""><img src=""visual/cab.png"" width=""300""></div>",1,NA,"No","I had to guess at first for some of these.","arrowdown","NR",2.58,3.7,"low_verbal",0.8,0.05,6
"143","visual/cab.png","visual/king.png","A1JJYY622DGE5L",34,59097,2022-05-18 16:04:26,"rhyme-same_different-phon_sim-task_switching",1461.70000000298,"rhyme","arrowdown","experiment","<div style=""border: 3px solid #000000; position: fixed;left:14%;top:30%""><img src=""visual/king.png"" width=""300""></div><div style=""border: 3px solid #000000; position: fixed;left:64%;top:30%""><img src=""visual/cab.png"" width=""300""></div>",1,NA,"No","I said the words in my head.","arrowdown","NR",4.67,4.4,"high_verbal",0.8,0.05,5
"144","visual/chain.png","visual/plane.png","A3I40B0FATY8VH",34,67701,2022-09-26 16:25:20,"rhyme-task_switching-same_different-phon_sim",1204.19999999553,"rhyme","arrowup","experiment","<div style=""border: 3px solid #000000; position: fixed;left:14%;top:30%""><img src=""visual/plane.png"" width=""300""></div><div style=""border: 3px solid #000000; position: fixed;left:64%;top:30%""><img src=""visual/chain.png"" width=""300""></div>",1,NA,"No","No, I just said it in my head rather than out loud.","arrowup","non-ortho",4.75,4.5,"high_verbal",0.35,0.95,6
"145","visual/cone.png","visual/bone.png","AMNUNZ65OSTFO",34,104182,2022-05-18 15:17:28,"rhyme-task_switching-same_different-phon_sim",1367,"rhyme","arrowdown","experiment","<div style=""border: 3px solid #000000; position: fixed;left:14%;top:30%""><img src=""visual/bone.png"" width=""300""></div><div style=""border: 3px solid #000000; position: fixed;left:64%;top:30%""><img src=""visual/cone.png"" width=""300""></div>",0,NA,"No","I said the pictures in my head before choosing.","arrowup","ortho",1.75,3.9,"low_verbal",0.95,0.7,5
"146","visual/crab.png","visual/spoon.png","A26BQ33MHKVYFB",34,134801,2022-05-27 01:09:36,"rhyme-task_switching-same_different-phon_sim",NA,"rhyme","null","experiment","<div style=""border: 3px solid #000000; position: fixed;left:14%;top:30%""><img src=""visual/spoon.png"" width=""300""></div><div style=""border: 3px solid #000000; position: fixed;left:64%;top:30%""><img src=""visual/crab.png"" width=""300""></div>",0,NA,"No","no","arrowdown","NR",2.33,2.5,"low_verbal",1,0.95,5
"147","visual/fox.png","visual/socks.png","AMELYCC59JKB0",34,272232,2022-09-27 20:52:23,"rhyme-same_different-phon_sim-task_switching",1250.79999999702,"rhyme","arrowup","experiment","<div style=""border: 3px solid #000000; position: fixed;left:14%;top:30%""><img src=""visual/socks.png"" width=""300""></div><div style=""border: 3px solid #000000; position: fixed;left:64%;top:30%""><img src=""visual/fox.png"" width=""300""></div>",1,NA,"Yes","think of the most simple word for the image","arrowup","non-ortho",4.25,4.1,"high_verbal",0.9,0.85,4
"148","visual/heart.png","visual/dart.png","AXPZAP62ZYWP8",34,75860,2022-09-26 16:41:02,"rhyme-task_switching-phon_sim-same_different",3339.39999997616,"rhyme","arrowdown","experiment","<div style=""border: 3px solid #000000; position: fixed;left:14%;top:30%""><img src=""visual/dart.png"" width=""300""></div><div style=""border: 3px solid #000000; position: fixed;left:64%;top:30%""><img src=""visual/heart.png"" width=""300""></div>",0,NA,"Yes","no","arrowup","non-ortho",4.16666667,4.1,"high_verbal",0.9,0.9,6
"149","visual/leg.png","visual/egg.png","A2M183CETUMR96",34,137411,2022-05-26 23:55:49,"rhyme-phon_sim-task_switching-same_different",2453.70000000298,"rhyme","arrowup","experiment","<div style=""border: 3px solid #000000; position: fixed;left:14%;top:30%""><img src=""visual/egg.png"" width=""300""></div><div style=""border: 3px solid #000000; position: fixed;left:64%;top:30%""><img src=""visual/leg.png"" width=""300""></div>",1,NA,"Yes","No","arrowup","ortho",2.25,1.8,"low_verbal",0.95,0.85,4
"150","visual/leg.png","visual/egg.png","78391",34,89133,2022-10-01 21:04:28,"rhyme-same_different-phon_sim-task_switching",2223.20000004768,"rhyme","arrowup","experiment","<div style=""border: 3px solid #000000; position: fixed;left:14%;top:30%""><img src=""visual/egg.png"" width=""300""></div><div style=""border: 3px solid #000000; position: fixed;left:64%;top:30%""><img src=""visual/leg.png"" width=""300""></div>",1,NA,"No","Said in my mind, not vocally","arrowup","ortho",3.08333333333333,3.9,"low_verbal",0.95,0.85,5
"151","visual/moon.png","visual/spoon.png","AKR9067Q09RZS",34,217980,2022-05-19 23:47:25,"rhyme-same_different-task_switching-phon_sim",1395,"rhyme","arrowup","experiment","<div style=""border: 3px solid #000000; position: fixed;left:14%;top:30%""><img src=""visual/spoon.png"" width=""300""></div><div style=""border: 3px solid #000000; position: fixed;left:64%;top:30%""><img src=""visual/moon.png"" width=""300""></div>",1,NA,"Yes","I tried to quickly reference in my mind if I had heard the two words referenced together in rhyme before. I also tried to think ahead about what rhymed with certain words.","arrowup","ortho",5,4.8,"high_verbal",1,0.95,6
"152","visual/moon.png","visual/spoon.png","A304UJAE051J89",34,2395715,2022-05-19 12:34:06,"rhyme-same_different-phon_sim-task_switching",2235.5,"rhyme","arrowup","experiment","<div style=""border: 3px solid #000000; position: fixed;left:14%;top:30%""><img src=""visual/spoon.png"" width=""300""></div><div style=""border: 3px solid #000000; position: fixed;left:64%;top:30%""><img src=""visual/moon.png"" width=""300""></div>",1,NA,"Yes","I just went with my gut intuition","arrowup","ortho",4.75,5,"high_verbal",1,0.95,6
"153","visual/pear.png","visual/chair.png","AB09F0Q4T10TE",34,81092,2022-09-26 17:15:36,"rhyme-task_switching-phon_sim-same_different",1534.69999992847,"rhyme","arrowup","experiment","<div style=""border: 3px solid #000000; position: fixed;left:14%;top:30%""><img src=""visual/chair.png"" width=""300""></div><div style=""border: 3px solid #000000; position: fixed;left:64%;top:30%""><img src=""visual/pear.png"" width=""300""></div>",1,NA,"No","I said the words in my head and made my selection as quickly as possible.","arrowup","non-ortho",4.25,3.7,"high_verbal",0.95,0.95,4
"154","visual/ring.png","visual/king.png","79580",34,92121,2022-09-30 23:39:35,"rhyme-task_switching-phon_sim-same_different",2125.10000014305,"rhyme","arrowup","experiment","<div style=""border: 3px solid #000000; position: fixed;left:14%;top:30%""><img src=""visual/king.png"" width=""300""></div><div style=""border: 3px solid #000000; position: fixed;left:64%;top:30%""><img src=""visual/ring.png"" width=""300""></div>",1,NA,"No","I always viewed the picture on the left first","arrowup","ortho",3,3.5,"low_verbal",0.8,0.9,6
"155","visual/screw.png","visual/train.png","A1DUPOUC9RNU4L",34,1310513,2022-05-19 10:57:08,"rhyme-phon_sim-same_different-task_switching",1945.80000001192,"rhyme","arrowdown","experiment","<div style=""border: 3px solid #000000; position: fixed;left:14%;top:30%""><img src=""visual/train.png"" width=""300""></div><div style=""border: 3px solid #000000; position: fixed;left:64%;top:30%""><img src=""visual/screw.png"" width=""300""></div>",1,NA,"Yes","I just tried to figure out the right words and say them to myself","arrowdown","NR",2.25,3.7,"low_verbal",0.95,1,6
"156","visual/seal.png","visual/wheel.png","80446",34,99949,2022-10-01 16:26:06,"rhyme-phon_sim-task_switching-same_different",2107.89999997616,"rhyme","arrowup","experiment","<div style=""border: 3px solid #000000; position: fixed;left:14%;top:30%""><img src=""visual/wheel.png"" width=""300""></div><div style=""border: 3px solid #000000; position: fixed;left:64%;top:30%""><img src=""visual/seal.png"" width=""300""></div>",1,NA,"Yes","Sometimes it seemed like I was trying to make words rhyme by the way I was saying them.","arrowup","non-ortho",2.91666666666667,3.3,"low_verbal",0.75,0.75,6
"157","visual/shoe.png","visual/screw.png","AIA7RZSAONU5M",34,102582,2022-09-26 18:48:01,"rhyme-phon_sim-task_switching-same_different",1971.40000000596,"rhyme","arrowup","experiment","<div style=""border: 3px solid #000000; position: fixed;left:14%;top:30%""><img src=""visual/screw.png"" width=""300""></div><div style=""border: 3px solid #000000; position: fixed;left:64%;top:30%""><img src=""visual/shoe.png"" width=""300""></div>",1,NA,"No","I said the words in my head and made my selection as quickly as possible.","arrowup","non-ortho",4.41666667,4.2,"high_verbal",1,0.85,6
"158","visual/shoe.png","visual/screw.png","79188",34,110549,2022-10-05 03:34:39,"rhyme-phon_sim-same_different-task_switching",1917.5,"rhyme","arrowup","experiment","<div style=""border: 3px solid #000000; position: fixed;left:14%;top:30%""><img src=""visual/screw.png"" width=""300""></div><div style=""border: 3px solid #000000; position: fixed;left:64%;top:30%""><img src=""visual/shoe.png"" width=""300""></div>",1,NA,"Yes","Try to connect the two picture into one and say their combination","arrowup","non-ortho",3.08333333333333,3.2,"low_verbal",1,0.85,5
"159","visual/sock.png","visual/cat.png","A26UIS59SY4NM6",34,122727,2022-05-19 01:48:22,"rhyme-task_switching-phon_sim-same_different",1495.5,"rhyme","arrowdown","experiment","<div style=""border: 3px solid #000000; position: fixed;left:14%;top:30%""><img src=""visual/cat.png"" width=""300""></div><div style=""border: 3px solid #000000; position: fixed;left:64%;top:30%""><img src=""visual/sock.png"" width=""300""></div>",1,NA,"Yes","It got easier as I knew each picture better.","arrowdown","NR",4.75,4.5,"high_verbal",0.9,0.9,6
"160","visual/square_rhyme.png","visual/bear.png","A2OVWCQ4B9AHFY",34,297286,2022-05-27 01:29:15,"rhyme-phon_sim-same_different-task_switching",2399.5,"rhyme","arrowup","experiment","<div style=""border: 3px solid #000000; position: fixed;left:14%;top:30%""><img src=""visual/bear.png"" width=""300""></div><div style=""border: 3px solid #000000; position: fixed;left:64%;top:30%""><img src=""visual/square_rhyme.png"" width=""300""></div>",1,NA,"No","I said it in my head ""aloud"".","arrowup","non-ortho",2.42,4.6,"low_verbal",0.95,0.85,6
"161","visual/square_rhyme.png","visual/bear.png","A2WJMGV0HKQG3Z",34,129307,2022-05-19 01:29:39,"rhyme-phon_sim-same_different-task_switching",3497.29999999702,"rhyme","arrowup","experiment","<div style=""border: 3px solid #000000; position: fixed;left:14%;top:30%""><img src=""visual/bear.png"" width=""300""></div><div style=""border: 3px solid #000000; position: fixed;left:64%;top:30%""><img src=""visual/square_rhyme.png"" width=""300""></div>",1,NA,"Yes","nothing","arrowup","non-ortho",4.67,4.7,"high_verbal",0.95,0.85,6
"162","visual/tie.png","visual/eye.png","78304",34,91621,2022-10-04 17:25:00,"rhyme-phon_sim-same_different-task_switching",1329,"rhyme","arrowup","experiment","<div style=""border: 3px solid #000000; position: fixed;left:14%;top:30%""><img src=""visual/eye.png"" width=""300""></div><div style=""border: 3px solid #000000; position: fixed;left:64%;top:30%""><img src=""visual/tie.png"" width=""300""></div>",1,NA,"Yes","used the pictures after I had seen them a few times","arrowup","non-ortho",4.83333333333333,4,"high_verbal",0.95,0.7,5
"163","visual/whale.png","visual/jar.png","A1PUSSRD8P5HHH",34,163725,2022-05-27 03:39:06,"rhyme-same_different-task_switching-phon_sim",894.300000190735,"rhyme","arrowup","experiment","<div style=""border: 3px solid #000000; position: fixed;left:14%;top:30%""><img src=""visual/jar.png"" width=""300""></div><div style=""border: 3px solid #000000; position: fixed;left:64%;top:30%""><img src=""visual/whale.png"" width=""300""></div>",0,NA,"Yes","no","arrowdown","NR",2.67,3,"low_verbal",0.95,0.95,5
"164","visual/whale.png","visual/nail.png","79167",34,72142,2022-10-01 01:08:02,"rhyme-task_switching-same_different-phon_sim",4325.60000000894,"rhyme","arrowdown","experiment","<div style=""border: 3px solid #000000; position: fixed;left:14%;top:30%""><img src=""visual/nail.png"" width=""300""></div><div style=""border: 3px solid #000000; position: fixed;left:64%;top:30%""><img src=""visual/whale.png"" width=""300""></div>",0,NA,"Yes","Try to connect the two picture into one and say their combination","arrowup","non-ortho",2.83333333333333,3.2,"low_verbal",0.95,0.95,5
"165","visual/bag.png","visual/flag.png","AXPZAP62ZYWP8",37,79241,2022-09-26 16:41:02,"rhyme-task_switching-phon_sim-same_different",1855.30000001192,"rhyme","arrowup","experiment","<div style=""border: 3px solid #000000; position: fixed;left:14%;top:30%""><img src=""visual/flag.png"" width=""300""></div><div style=""border: 3px solid #000000; position: fixed;left:64%;top:30%""><img src=""visual/bag.png"" width=""300""></div>",1,NA,"Yes","no","arrowup","ortho",4.16666667,4.1,"high_verbal",0.9,0.95,7
"166","visual/beer.png","visual/claw.png","A2H2LO1OOF8R5N",37,97622,2022-05-19 02:21:50,"rhyme-task_switching-same_different-phon_sim",1834,"rhyme","arrowdown","experiment","<div style=""border: 3px solid #000000; position: fixed;left:14%;top:30%""><img src=""visual/claw.png"" width=""300""></div><div style=""border: 3px solid #000000; position: fixed;left:64%;top:30%""><img src=""visual/beer.png"" width=""300""></div>",1,NA,"No","I mentally ""stated"" the words as a pair.","arrowdown","NR",1.67,3.3,"low_verbal",0.55,0.75,5
"167","visual/bell.png","visual/nose.png","78391",37,91746,2022-10-01 21:04:28,"rhyme-same_different-phon_sim-task_switching",1602.29999995232,"rhyme","arrowdown","experiment","<div style=""border: 3px solid #000000; position: fixed;left:14%;top:30%""><img src=""visual/nose.png"" width=""300""></div><div style=""border: 3px solid #000000; position: fixed;left:64%;top:30%""><img src=""visual/bell.png"" width=""300""></div>",1,NA,"No","Said in my mind, not vocally","arrowdown","NR",3.08333333333333,3.9,"low_verbal",1,0.9,6
"168","visual/bell.png","visual/nose.png","A2615YW1YERQBO",37,809766,2022-05-26 23:13:28,"rhyme-same_different-task_switching-phon_sim",1768.10000002384,"rhyme","arrowdown","experiment","<div style=""border: 3px solid #000000; position: fixed;left:14%;top:30%""><img src=""visual/nose.png"" width=""300""></div><div style=""border: 3px solid #000000; position: fixed;left:64%;top:30%""><img src=""visual/bell.png"" width=""300""></div>",1,NA,"No","I had to guess at first for some of these.","arrowdown","NR",2.58,3.7,"low_verbal",1,0.9,7
"169","visual/chair.png","visual/drawer.png","A1CFMY4CEYOM8Y",37,77292,2022-05-18 16:39:34,"rhyme-task_switching-same_different-phon_sim",2687.39999999851,"rhyme","arrowdown","experiment","<div style=""border: 3px solid #000000; position: fixed;left:14%;top:30%""><img src=""visual/drawer.png"" width=""300""></div><div style=""border: 3px solid #000000; position: fixed;left:64%;top:30%""><img src=""visual/chair.png"" width=""300""></div>",1,NA,"No","np","arrowdown","NR",2.92,4.2,"low_verbal",0.8,0.95,6
"170","visual/chair.png","visual/drawer.png","A26BQ33MHKVYFB",37,140583,2022-05-27 01:09:36,"rhyme-task_switching-same_different-phon_sim",NA,"rhyme","null","experiment","<div style=""border: 3px solid #000000; position: fixed;left:14%;top:30%""><img src=""visual/drawer.png"" width=""300""></div><div style=""border: 3px solid #000000; position: fixed;left:64%;top:30%""><img src=""visual/chair.png"" width=""300""></div>",0,NA,"No","no","arrowdown","NR",2.33,2.5,"low_verbal",0.8,0.95,6
"171","visual/clock.png","visual/sock.png","A1PUSSRD8P5HHH",37,165799,2022-05-27 03:39:06,"rhyme-same_different-task_switching-phon_sim",796,"rhyme","arrowup","experiment","<div style=""border: 3px solid #000000; position: fixed;left:14%;top:30%""><img src=""visual/sock.png"" width=""300""></div><div style=""border: 3px solid #000000; position: fixed;left:64%;top:30%""><img src=""visual/clock.png"" width=""300""></div>",1,NA,"Yes","no","arrowup","ortho",2.67,3,"low_verbal",0.9,0.95,6
"172","visual/crab.png","visual/spoon.png","A15T9HDPHV3X7Q",37,57735,2022-05-19 02:18:12,"rhyme-phon_sim-task_switching-same_different",1496.90000009537,"rhyme","arrowdown","experiment","<div style=""border: 3px solid #000000; position: fixed;left:14%;top:30%""><img src=""visual/spoon.png"" width=""300""></div><div style=""border: 3px solid #000000; position: fixed;left:64%;top:30%""><img src=""visual/crab.png"" width=""300""></div>",1,NA,"Yes","no","arrowdown","NR",1.33,1.9,"low_verbal",1,0.95,5
"173","visual/crane.png","visual/train.png","A26RO8GGTQAXGG",37,171791,2022-05-23 17:52:31,"rhyme-same_different-task_switching-phon_sim",1733.90000009537,"rhyme","arrowdown","experiment","<div style=""border: 3px solid #000000; position: fixed;left:14%;top:30%""><img src=""visual/train.png"" width=""300""></div><div style=""border: 3px solid #000000; position: fixed;left:64%;top:30%""><img src=""visual/crane.png"" width=""300""></div>",0,NA,"No","some were hard to tell what they were supposed to be","arrowup","non-ortho",1.42,2.7,"low_verbal",0.95,0.7,6
"174","visual/crane.png","visual/train.png","A3DUPRZSMU9W5R",37,96677,2022-05-27 00:13:57,"rhyme-task_switching-phon_sim-same_different",NA,"rhyme","null","experiment","<div style=""border: 3px solid #000000; position: fixed;left:14%;top:30%""><img src=""visual/train.png"" width=""300""></div><div style=""border: 3px solid #000000; position: fixed;left:64%;top:30%""><img src=""visual/crane.png"" width=""300""></div>",0,NA,"No","Some of the pictures weren't clear as to what it was mainly about. I said the words in my head","arrowup","non-ortho",2.58,2.4,"low_verbal",0.95,0.7,5
"175","visual/heart.png","visual/dart.png","A2WJMGV0HKQG3Z",37,133136,2022-05-19 01:29:39,"rhyme-phon_sim-same_different-task_switching",2309,"rhyme","arrowup","experiment","<div style=""border: 3px solid #000000; position: fixed;left:14%;top:30%""><img src=""visual/dart.png"" width=""300""></div><div style=""border: 3px solid #000000; position: fixed;left:64%;top:30%""><img src=""visual/heart.png"" width=""300""></div>",1,NA,"Yes","nothing","arrowup","non-ortho",4.67,4.7,"high_verbal",0.9,0.9,7
"176","visual/jar.png","visual/star.png","AMELYCC59JKB0",37,274499,2022-09-27 20:52:23,"rhyme-same_different-phon_sim-task_switching",1182.90000000596,"rhyme","arrowup","experiment","<div style=""border: 3px solid #000000; position: fixed;left:14%;top:30%""><img src=""visual/star.png"" width=""300""></div><div style=""border: 3px solid #000000; position: fixed;left:64%;top:30%""><img src=""visual/jar.png"" width=""300""></div>",1,NA,"Yes","think of the most simple word for the image","arrowup","ortho",4.25,4.1,"high_verbal",0.95,0.95,5
"177","visual/leg.png","visual/egg.png","A2OVWCQ4B9AHFY",37,301552,2022-05-27 01:29:15,"rhyme-phon_sim-same_different-task_switching",3493.80000000075,"rhyme","arrowup","experiment","<div style=""border: 3px solid #000000; position: fixed;left:14%;top:30%""><img src=""visual/egg.png"" width=""300""></div><div style=""border: 3px solid #000000; position: fixed;left:64%;top:30%""><img src=""visual/leg.png"" width=""300""></div>",1,NA,"No","I said it in my head ""aloud"".","arrowup","ortho",2.42,4.6,"low_verbal",0.95,0.85,7
"178","visual/moon.png","visual/spoon.png","78304",37,93937,2022-10-04 17:25:00,"rhyme-phon_sim-same_different-task_switching",1309,"rhyme","arrowup","experiment","<div style=""border: 3px solid #000000; position: fixed;left:14%;top:30%""><img src=""visual/spoon.png"" width=""300""></div><div style=""border: 3px solid #000000; position: fixed;left:64%;top:30%""><img src=""visual/moon.png"" width=""300""></div>",1,NA,"Yes","used the pictures after I had seen them a few times","arrowup","ortho",4.83333333333333,4,"high_verbal",1,0.95,6
"179","visual/nose.png","visual/rose.png","AIA7RZSAONU5M",37,105551,2022-09-26 18:48:01,"rhyme-phon_sim-task_switching-same_different",1451.89999997616,"rhyme","arrowup","experiment","<div style=""border: 3px solid #000000; position: fixed;left:14%;top:30%""><img src=""visual/rose.png"" width=""300""></div><div style=""border: 3px solid #000000; position: fixed;left:64%;top:30%""><img src=""visual/nose.png"" width=""300""></div>",1,NA,"No","I said the words in my head and made my selection as quickly as possible.","arrowup","ortho",4.41666667,4.2,"high_verbal",0.95,1,7
"180","visual/plane.png","visual/fly.png","AB09F0Q4T10TE",37,83913,2022-09-26 17:15:36,"rhyme-task_switching-phon_sim-same_different",1556.39999997616,"rhyme","arrowdown","experiment","<div style=""border: 3px solid #000000; position: fixed;left:14%;top:30%""><img src=""visual/fly.png"" width=""300""></div><div style=""border: 3px solid #000000; position: fixed;left:64%;top:30%""><img src=""visual/plane.png"" width=""300""></div>",1,NA,"No","I said the words in my head and made my selection as quickly as possible.","arrowdown","NR",4.25,3.7,"high_verbal",0.95,0.35,5
"181","visual/ring.png","visual/king.png","A1DUPOUC9RNU4L",37,1312697,2022-05-19 10:57:08,"rhyme-phon_sim-same_different-task_switching",1176.80000001192,"rhyme","arrowup","experiment","<div style=""border: 3px solid #000000; position: fixed;left:14%;top:30%""><img src=""visual/king.png"" width=""300""></div><div style=""border: 3px solid #000000; position: fixed;left:64%;top:30%""><img src=""visual/ring.png"" width=""300""></div>",1,NA,"Yes","I just tried to figure out the right words and say them to myself","arrowup","ortho",2.25,3.7,"low_verbal",0.8,0.9,7
"182","visual/rose.png","visual/well.png","A3T01NM4993LZE",37,58740,2022-09-26 16:14:11,"rhyme-phon_sim-same_different-task_switching",1251.69999998808,"rhyme","arrowdown","experiment","<div style=""border: 3px solid #000000; position: fixed;left:14%;top:30%""><img src=""visual/well.png"" width=""300""></div><div style=""border: 3px solid #000000; position: fixed;left:64%;top:30%""><img src=""visual/rose.png"" width=""300""></div>",1,NA,"No","said mentally","arrowdown","NR",4.16666667,3.8,"high_verbal",0.95,0.95,6
"183","visual/rose.png","visual/well.png","80446",37,102935,2022-10-01 16:26:06,"rhyme-phon_sim-task_switching-same_different",1477.59999999404,"rhyme","arrowdown","experiment","<div style=""border: 3px solid #000000; position: fixed;left:14%;top:30%""><img src=""visual/well.png"" width=""300""></div><div style=""border: 3px solid #000000; position: fixed;left:64%;top:30%""><img src=""visual/rose.png"" width=""300""></div>",1,NA,"Yes","Sometimes it seemed like I was trying to make words rhyme by the way I was saying them.","arrowdown","NR",2.91666666666667,3.3,"low_verbal",0.95,0.95,7
