"","trial_index","time_elapsed","worker_id","start_time","experiment_order","rt","experiment","response","phase","stimulus","correct","talk_out_loud","strategy_free_ans","image_1","image_2","cor_key","type","VerbalScored","VisualScored","high_low_verbal"
"1",283,730370,"A10JXOU89D5RXR",2022-05-18 15:11:54,"task_switching-rhyme-same_different-phon_sim",2000.70000001788,"rhyme","arrowdown","experiment","<div style=""border: 3px solid #000000; position: fixed;left:14%;top:30%""><img src=""visual/cat.png"" width=""300""></div><div style=""border: 3px solid #000000; position: fixed;left:64%;top:30%""><img src=""visual/sock.png"" width=""300""></div>",1,"Yes","no","visual/cat.png","visual/sock.png","arrowdown","NR",3.25,4.4,"low_verbal"
"2",286,733858,"A10JXOU89D5RXR",2022-05-18 15:11:54,"task_switching-rhyme-same_different-phon_sim",2220.90000000596,"rhyme","arrowup","experiment","<div style=""border: 3px solid #000000; position: fixed;left:14%;top:30%""><img src=""visual/flag.png"" width=""300""></div><div style=""border: 3px solid #000000; position: fixed;left:64%;top:30%""><img src=""visual/bag.png"" width=""300""></div>",1,"Yes","no","visual/flag.png","visual/bag.png","arrowup","ortho",3.25,4.4,"low_verbal"
"3",289,736201,"A10JXOU89D5RXR",2022-05-18 15:11:54,"task_switching-rhyme-same_different-phon_sim",1579.40000000596,"rhyme","arrowup","experiment","<div style=""border: 3px solid #000000; position: fixed;left:14%;top:30%""><img src=""visual/chair.png"" width=""300""></div><div style=""border: 3px solid #000000; position: fixed;left:64%;top:30%""><img src=""visual/pear.png"" width=""300""></div>",1,"Yes","no","visual/chair.png","visual/pear.png","arrowup","non-ortho",3.25,4.4,"low_verbal"
"4",292,740177,"A10JXOU89D5RXR",2022-05-18 15:11:54,"task_switching-rhyme-same_different-phon_sim",2702,"rhyme","arrowup","experiment","<div style=""border: 3px solid #000000; position: fixed;left:14%;top:30%""><img src=""visual/bear.png"" width=""300""></div><div style=""border: 3px solid #000000; position: fixed;left:64%;top:30%""><img src=""visual/square_rhyme.png"" width=""300""></div>",1,"Yes","no","visual/bear.png","visual/square_rhyme.png","arrowup","non-ortho",3.25,4.4,"low_verbal"
"5",295,742434,"A10JXOU89D5RXR",2022-05-18 15:11:54,"task_switching-rhyme-same_different-phon_sim",1484.59999999404,"rhyme","arrowup","experiment","<div style=""border: 3px solid #000000; position: fixed;left:14%;top:30%""><img src=""visual/box.png"" width=""300""></div><div style=""border: 3px solid #000000; position: fixed;left:64%;top:30%""><img src=""visual/fox.png"" width=""300""></div>",1,"Yes","no","visual/box.png","visual/fox.png","arrowup","ortho",3.25,4.4,"low_verbal"
"6",298,745073,"A10JXOU89D5RXR",2022-05-18 15:11:54,"task_switching-rhyme-same_different-phon_sim",1367.29999998212,"rhyme","arrowup","experiment","<div style=""border: 3px solid #000000; position: fixed;left:14%;top:30%""><img src=""visual/nail.png"" width=""300""></div><div style=""border: 3px solid #000000; position: fixed;left:64%;top:30%""><img src=""visual/whale.png"" width=""300""></div>",1,"Yes","no","visual/nail.png","visual/whale.png","arrowup","non-ortho",3.25,4.4,"low_verbal"
"7",301,748321,"A10JXOU89D5RXR",2022-05-18 15:11:54,"task_switching-rhyme-same_different-phon_sim",1715.30000001192,"rhyme","arrowdown","experiment","<div style=""border: 3px solid #000000; position: fixed;left:14%;top:30%""><img src=""visual/spoon.png"" width=""300""></div><div style=""border: 3px solid #000000; position: fixed;left:64%;top:30%""><img src=""visual/crab.png"" width=""300""></div>",1,"Yes","no","visual/spoon.png","visual/crab.png","arrowdown","NR",3.25,4.4,"low_verbal"
"8",304,750433,"A10JXOU89D5RXR",2022-05-18 15:11:54,"task_switching-rhyme-same_different-phon_sim",1328.69999998808,"rhyme","arrowup","experiment","<div style=""border: 3px solid #000000; position: fixed;left:14%;top:30%""><img src=""visual/dart.png"" width=""300""></div><div style=""border: 3px solid #000000; position: fixed;left:64%;top:30%""><img src=""visual/heart.png"" width=""300""></div>",1,"Yes","no","visual/dart.png","visual/heart.png","arrowup","non-ortho",3.25,4.4,"low_verbal"
"9",307,753018,"A10JXOU89D5RXR",2022-05-18 15:11:54,"task_switching-rhyme-same_different-phon_sim",1066.80000001192,"rhyme","arrowup","experiment","<div style=""border: 3px solid #000000; position: fixed;left:14%;top:30%""><img src=""visual/key.png"" width=""300""></div><div style=""border: 3px solid #000000; position: fixed;left:64%;top:30%""><img src=""visual/tree.png"" width=""300""></div>",1,"Yes","no","visual/key.png","visual/tree.png","arrowup","non-ortho",3.25,4.4,"low_verbal"
"10",310,755633,"A10JXOU89D5RXR",2022-05-18 15:11:54,"task_switching-rhyme-same_different-phon_sim",1846.30000001192,"rhyme","arrowup","experiment","<div style=""border: 3px solid #000000; position: fixed;left:14%;top:30%""><img src=""visual/train.png"" width=""300""></div><div style=""border: 3px solid #000000; position: fixed;left:64%;top:30%""><img src=""visual/crane.png"" width=""300""></div>",1,"Yes","no","visual/train.png","visual/crane.png","arrowup","non-ortho",3.25,4.4,"low_verbal"
"11",316,763138,"A10JXOU89D5RXR",2022-05-18 15:11:54,"task_switching-rhyme-same_different-phon_sim",1678.60000002384,"rhyme","arrowdown","experiment","<div style=""border: 3px solid #000000; position: fixed;left:14%;top:30%""><img src=""visual/fan.png"" width=""300""></div><div style=""border: 3px solid #000000; position: fixed;left:64%;top:30%""><img src=""visual/man.png"" width=""300""></div>",0,"Yes","no","visual/fan.png","visual/man.png","arrowup","ortho",3.25,4.4,"low_verbal"
"12",319,765433,"A10JXOU89D5RXR",2022-05-18 15:11:54,"task_switching-rhyme-same_different-phon_sim",1512.90000000596,"rhyme","arrowup","experiment","<div style=""border: 3px solid #000000; position: fixed;left:14%;top:30%""><img src=""visual/plane.png"" width=""300""></div><div style=""border: 3px solid #000000; position: fixed;left:64%;top:30%""><img src=""visual/chain.png"" width=""300""></div>",1,"Yes","no","visual/plane.png","visual/chain.png","arrowup","non-ortho",3.25,4.4,"low_verbal"
"13",325,773491,"A10JXOU89D5RXR",2022-05-18 15:11:54,"task_switching-rhyme-same_different-phon_sim",2034.40000000596,"rhyme","arrowdown","experiment","<div style=""border: 3px solid #000000; position: fixed;left:14%;top:30%""><img src=""visual/egg.png"" width=""300""></div><div style=""border: 3px solid #000000; position: fixed;left:64%;top:30%""><img src=""visual/ring.png"" width=""300""></div>",1,"Yes","no","visual/egg.png","visual/ring.png","arrowdown","NR",3.25,4.4,"low_verbal"
"14",328,776370,"A10JXOU89D5RXR",2022-05-18 15:11:54,"task_switching-rhyme-same_different-phon_sim",1344,"rhyme","arrowdown","experiment","<div style=""border: 3px solid #000000; position: fixed;left:14%;top:30%""><img src=""visual/tree.png"" width=""300""></div><div style=""border: 3px solid #000000; position: fixed;left:64%;top:30%""><img src=""visual/door.png"" width=""300""></div>",1,"Yes","no","visual/tree.png","visual/door.png","arrowdown","NR",3.25,4.4,"low_verbal"
"15",331,779635,"A10JXOU89D5RXR",2022-05-18 15:11:54,"task_switching-rhyme-same_different-phon_sim",1978.90000000596,"rhyme","arrowdown","experiment","<div style=""border: 3px solid #000000; position: fixed;left:14%;top:30%""><img src=""visual/drawer.png"" width=""300""></div><div style=""border: 3px solid #000000; position: fixed;left:64%;top:30%""><img src=""visual/chair.png"" width=""300""></div>",1,"Yes","no","visual/drawer.png","visual/chair.png","arrowdown","NR",3.25,4.4,"low_verbal"
"16",334,782842,"A10JXOU89D5RXR",2022-05-18 15:11:54,"task_switching-rhyme-same_different-phon_sim",2181.79999998212,"rhyme","arrowup","experiment","<div style=""border: 3px solid #000000; position: fixed;left:14%;top:30%""><img src=""visual/egg.png"" width=""300""></div><div style=""border: 3px solid #000000; position: fixed;left:64%;top:30%""><img src=""visual/leg.png"" width=""300""></div>",1,"Yes","no","visual/egg.png","visual/leg.png","arrowup","ortho",3.25,4.4,"low_verbal"
"17",337,786354,"A10JXOU89D5RXR",2022-05-18 15:11:54,"task_switching-rhyme-same_different-phon_sim",1984.80000001192,"rhyme","arrowdown","experiment","<div style=""border: 3px solid #000000; position: fixed;left:14%;top:30%""><img src=""visual/king.png"" width=""300""></div><div style=""border: 3px solid #000000; position: fixed;left:64%;top:30%""><img src=""visual/cab.png"" width=""300""></div>",1,"Yes","no","visual/king.png","visual/cab.png","arrowdown","NR",3.25,4.4,"low_verbal"
"18",340,788786,"A10JXOU89D5RXR",2022-05-18 15:11:54,"task_switching-rhyme-same_different-phon_sim",1663,"rhyme","arrowdown","experiment","<div style=""border: 3px solid #000000; position: fixed;left:14%;top:30%""><img src=""visual/well.png"" width=""300""></div><div style=""border: 3px solid #000000; position: fixed;left:64%;top:30%""><img src=""visual/rose.png"" width=""300""></div>",1,"Yes","no","visual/well.png","visual/rose.png","arrowdown","NR",3.25,4.4,"low_verbal"
"19",343,792306,"A10JXOU89D5RXR",2022-05-18 15:11:54,"task_switching-rhyme-same_different-phon_sim",1998.19999998808,"rhyme","arrowup","experiment","<div style=""border: 3px solid #000000; position: fixed;left:14%;top:30%""><img src=""visual/deer.png"" width=""300""></div><div style=""border: 3px solid #000000; position: fixed;left:64%;top:30%""><img src=""visual/beer.png"" width=""300""></div>",1,"Yes","no","visual/deer.png","visual/beer.png","arrowup","ortho",3.25,4.4,"low_verbal"
"20",346,796603,"A10JXOU89D5RXR",2022-05-18 15:11:54,"task_switching-rhyme-same_different-phon_sim",3014.10000002384,"rhyme","arrowdown","experiment","<div style=""border: 3px solid #000000; position: fixed;left:14%;top:30%""><img src=""visual/soap.png"" width=""300""></div><div style=""border: 3px solid #000000; position: fixed;left:64%;top:30%""><img src=""visual/shoe.png"" width=""300""></div>",1,"Yes","no","visual/soap.png","visual/shoe.png","arrowdown","NR",3.25,4.4,"low_verbal"
"21",349,799707,"A10JXOU89D5RXR",2022-05-18 15:11:54,"task_switching-rhyme-same_different-phon_sim",1580.90000000596,"rhyme","arrowup","experiment","<div style=""border: 3px solid #000000; position: fixed;left:14%;top:30%""><img src=""visual/rose.png"" width=""300""></div><div style=""border: 3px solid #000000; position: fixed;left:64%;top:30%""><img src=""visual/nose.png"" width=""300""></div>",1,"Yes","no","visual/rose.png","visual/nose.png","arrowup","ortho",3.25,4.4,"low_verbal"
"22",352,803354,"A10JXOU89D5RXR",2022-05-18 15:11:54,"task_switching-rhyme-same_different-phon_sim",2616.19999998808,"rhyme","arrowup","experiment","<div style=""border: 3px solid #000000; position: fixed;left:14%;top:30%""><img src=""visual/socks.png"" width=""300""></div><div style=""border: 3px solid #000000; position: fixed;left:64%;top:30%""><img src=""visual/fox.png"" width=""300""></div>",1,"Yes","no","visual/socks.png","visual/fox.png","arrowup","non-ortho",3.25,4.4,"low_verbal"
"23",355,807331,"A10JXOU89D5RXR",2022-05-18 15:11:54,"task_switching-rhyme-same_different-phon_sim",2705.80000001192,"rhyme","arrowdown","experiment","<div style=""border: 3px solid #000000; position: fixed;left:14%;top:30%""><img src=""visual/fly.png"" width=""300""></div><div style=""border: 3px solid #000000; position: fixed;left:64%;top:30%""><img src=""visual/plane.png"" width=""300""></div>",1,"Yes","no","visual/fly.png","visual/plane.png","arrowdown","NR",3.25,4.4,"low_verbal"
"24",358,811410,"A10JXOU89D5RXR",2022-05-18 15:11:54,"task_switching-rhyme-same_different-phon_sim",2548.90000000596,"rhyme","arrowup","experiment","<div style=""border: 3px solid #000000; position: fixed;left:14%;top:30%""><img src=""visual/sock.png"" width=""300""></div><div style=""border: 3px solid #000000; position: fixed;left:64%;top:30%""><img src=""visual/clock.png"" width=""300""></div>",1,"Yes","no","visual/sock.png","visual/clock.png","arrowup","ortho",3.25,4.4,"low_verbal"
"25",361,813378,"A10JXOU89D5RXR",2022-05-18 15:11:54,"task_switching-rhyme-same_different-phon_sim",1198.20000001788,"rhyme","arrowup","experiment","<div style=""border: 3px solid #000000; position: fixed;left:14%;top:30%""><img src=""visual/bone.png"" width=""300""></div><div style=""border: 3px solid #000000; position: fixed;left:64%;top:30%""><img src=""visual/cone.png"" width=""300""></div>",1,"Yes","no","visual/bone.png","visual/cone.png","arrowup","ortho",3.25,4.4,"low_verbal"
"26",364,815834,"A10JXOU89D5RXR",2022-05-18 15:11:54,"task_switching-rhyme-same_different-phon_sim",1175.09999999404,"rhyme","arrowup","experiment","<div style=""border: 3px solid #000000; position: fixed;left:14%;top:30%""><img src=""visual/snail.png"" width=""300""></div><div style=""border: 3px solid #000000; position: fixed;left:64%;top:30%""><img src=""visual/whale.png"" width=""300""></div>",1,"Yes","no","visual/snail.png","visual/whale.png","arrowup","non-ortho",3.25,4.4,"low_verbal"
"27",367,818002,"A10JXOU89D5RXR",2022-05-18 15:11:54,"task_switching-rhyme-same_different-phon_sim",1150.29999998212,"rhyme","arrowup","experiment","<div style=""border: 3px solid #000000; position: fixed;left:14%;top:30%""><img src=""visual/star.png"" width=""300""></div><div style=""border: 3px solid #000000; position: fixed;left:64%;top:30%""><img src=""visual/jar.png"" width=""300""></div>",1,"Yes","no","visual/star.png","visual/jar.png","arrowup","ortho",3.25,4.4,"low_verbal"
"28",373,824138,"A10JXOU89D5RXR",2022-05-18 15:11:54,"task_switching-rhyme-same_different-phon_sim",2097.09999999404,"rhyme","arrowdown","experiment","<div style=""border: 3px solid #000000; position: fixed;left:14%;top:30%""><img src=""visual/pear.png"" width=""300""></div><div style=""border: 3px solid #000000; position: fixed;left:64%;top:30%""><img src=""visual/rope.png"" width=""300""></div>",1,"Yes","no","visual/pear.png","visual/rope.png","arrowdown","NR",3.25,4.4,"low_verbal"
"29",376,826570,"A10JXOU89D5RXR",2022-05-18 15:11:54,"task_switching-rhyme-same_different-phon_sim",1650.90000000596,"rhyme","arrowdown","experiment","<div style=""border: 3px solid #000000; position: fixed;left:14%;top:30%""><img src=""visual/nose.png"" width=""300""></div><div style=""border: 3px solid #000000; position: fixed;left:64%;top:30%""><img src=""visual/bell.png"" width=""300""></div>",1,"Yes","no","visual/nose.png","visual/bell.png","arrowdown","NR",3.25,4.4,"low_verbal"
"30",379,829410,"A10JXOU89D5RXR",2022-05-18 15:11:54,"task_switching-rhyme-same_different-phon_sim",1567.09999999404,"rhyme","arrowdown","experiment","<div style=""border: 3px solid #000000; position: fixed;left:14%;top:30%""><img src=""visual/jar.png"" width=""300""></div><div style=""border: 3px solid #000000; position: fixed;left:64%;top:30%""><img src=""visual/whale.png"" width=""300""></div>",1,"Yes","no","visual/jar.png","visual/whale.png","arrowdown","NR",3.25,4.4,"low_verbal"
"31",382,833162,"A10JXOU89D5RXR",2022-05-18 15:11:54,"task_switching-rhyme-same_different-phon_sim",2225,"rhyme","arrowdown","experiment","<div style=""border: 3px solid #000000; position: fixed;left:14%;top:30%""><img src=""visual/claw.png"" width=""300""></div><div style=""border: 3px solid #000000; position: fixed;left:64%;top:30%""><img src=""visual/beer.png"" width=""300""></div>",1,"Yes","no","visual/claw.png","visual/beer.png","arrowdown","NR",3.25,4.4,"low_verbal"
"32",385,837578,"A10JXOU89D5RXR",2022-05-18 15:11:54,"task_switching-rhyme-same_different-phon_sim",3635.5,"rhyme","arrowup","experiment","<div style=""border: 3px solid #000000; position: fixed;left:14%;top:30%""><img src=""visual/soap.png"" width=""300""></div><div style=""border: 3px solid #000000; position: fixed;left:64%;top:30%""><img src=""visual/rope.png"" width=""300""></div>",1,"Yes","no","visual/soap.png","visual/rope.png","arrowup","non-ortho",3.25,4.4,"low_verbal"
"33",391,843979,"A10JXOU89D5RXR",2022-05-18 15:11:54,"task_switching-rhyme-same_different-phon_sim",1191.40000000596,"rhyme","arrowup","experiment","<div style=""border: 3px solid #000000; position: fixed;left:14%;top:30%""><img src=""visual/spoon.png"" width=""300""></div><div style=""border: 3px solid #000000; position: fixed;left:64%;top:30%""><img src=""visual/moon.png"" width=""300""></div>",1,"Yes","no","visual/spoon.png","visual/moon.png","arrowup","ortho",3.25,4.4,"low_verbal"
"34",394,846186,"A10JXOU89D5RXR",2022-05-18 15:11:54,"task_switching-rhyme-same_different-phon_sim",1186.40000000596,"rhyme","arrowup","experiment","<div style=""border: 3px solid #000000; position: fixed;left:14%;top:30%""><img src=""visual/well.png"" width=""300""></div><div style=""border: 3px solid #000000; position: fixed;left:64%;top:30%""><img src=""visual/bell.png"" width=""300""></div>",1,"Yes","no","visual/well.png","visual/bell.png","arrowup","ortho",3.25,4.4,"low_verbal"
"35",397,849499,"A10JXOU89D5RXR",2022-05-18 15:11:54,"task_switching-rhyme-same_different-phon_sim",2035.09999999404,"rhyme","arrowdown","experiment","<div style=""border: 3px solid #000000; position: fixed;left:14%;top:30%""><img src=""visual/train.png"" width=""300""></div><div style=""border: 3px solid #000000; position: fixed;left:64%;top:30%""><img src=""visual/screw.png"" width=""300""></div>",1,"Yes","no","visual/train.png","visual/screw.png","arrowdown","NR",3.25,4.4,"low_verbal"
"36",400,852828,"A10JXOU89D5RXR",2022-05-18 15:11:54,"task_switching-rhyme-same_different-phon_sim",1804.20000001788,"rhyme","arrowup","experiment","<div style=""border: 3px solid #000000; position: fixed;left:14%;top:30%""><img src=""visual/bed.png"" width=""300""></div><div style=""border: 3px solid #000000; position: fixed;left:64%;top:30%""><img src=""visual/bread.png"" width=""300""></div>",1,"Yes","no","visual/bed.png","visual/bread.png","arrowup","non-ortho",3.25,4.4,"low_verbal"
"37",403,855843,"A10JXOU89D5RXR",2022-05-18 15:11:54,"task_switching-rhyme-same_different-phon_sim",1748.29999998212,"rhyme","arrowup","experiment","<div style=""border: 3px solid #000000; position: fixed;left:14%;top:30%""><img src=""visual/drum.png"" width=""300""></div><div style=""border: 3px solid #000000; position: fixed;left:64%;top:30%""><img src=""visual/thumb.png"" width=""300""></div>",1,"Yes","no","visual/drum.png","visual/thumb.png","arrowup","non-ortho",3.25,4.4,"low_verbal"
"38",406,859083,"A10JXOU89D5RXR",2022-05-18 15:11:54,"task_switching-rhyme-same_different-phon_sim",2214.19999998808,"rhyme","arrowdown","experiment","<div style=""border: 3px solid #000000; position: fixed;left:14%;top:30%""><img src=""visual/pope.png"" width=""300""></div><div style=""border: 3px solid #000000; position: fixed;left:64%;top:30%""><img src=""visual/soap.png"" width=""300""></div>",0,"Yes","no","visual/pope.png","visual/soap.png","arrowup","non-ortho",3.25,4.4,"low_verbal"
"39",409,863051,"A10JXOU89D5RXR",2022-05-18 15:11:54,"task_switching-rhyme-same_different-phon_sim",2697,"rhyme","arrowdown","experiment","<div style=""border: 3px solid #000000; position: fixed;left:14%;top:30%""><img src=""visual/drawer.png"" width=""300""></div><div style=""border: 3px solid #000000; position: fixed;left:64%;top:30%""><img src=""visual/door.png"" width=""300""></div>",0,"Yes","no","visual/drawer.png","visual/door.png","arrowup","non-ortho",3.25,4.4,"low_verbal"
"40",412,866731,"A10JXOU89D5RXR",2022-05-18 15:11:54,"task_switching-rhyme-same_different-phon_sim",2152.90000000596,"rhyme","arrowdown","experiment","<div style=""border: 3px solid #000000; position: fixed;left:14%;top:30%""><img src=""visual/screw.png"" width=""300""></div><div style=""border: 3px solid #000000; position: fixed;left:64%;top:30%""><img src=""visual/shoe.png"" width=""300""></div>",0,"Yes","no","visual/screw.png","visual/shoe.png","arrowup","non-ortho",3.25,4.4,"low_verbal"
"41",415,869538,"A10JXOU89D5RXR",2022-05-18 15:11:54,"task_switching-rhyme-same_different-phon_sim",1535.19999998808,"rhyme","arrowdown","experiment","<div style=""border: 3px solid #000000; position: fixed;left:14%;top:30%""><img src=""visual/brain.png"" width=""300""></div><div style=""border: 3px solid #000000; position: fixed;left:64%;top:30%""><img src=""visual/clock.png"" width=""300""></div>",1,"Yes","no","visual/brain.png","visual/clock.png","arrowdown","NR",3.25,4.4,"low_verbal"
"42",418,872234,"A10JXOU89D5RXR",2022-05-18 15:11:54,"task_switching-rhyme-same_different-phon_sim",1678.29999998212,"rhyme","arrowdown","experiment","<div style=""border: 3px solid #000000; position: fixed;left:14%;top:30%""><img src=""visual/dart.png"" width=""300""></div><div style=""border: 3px solid #000000; position: fixed;left:64%;top:30%""><img src=""visual/tie.png"" width=""300""></div>",1,"Yes","no","visual/dart.png","visual/tie.png","arrowdown","NR",3.25,4.4,"low_verbal"
"43",421,874611,"A10JXOU89D5RXR",2022-05-18 15:11:54,"task_switching-rhyme-same_different-phon_sim",1606.20000001788,"rhyme","arrowdown","experiment","<div style=""border: 3px solid #000000; position: fixed;left:14%;top:30%""><img src=""visual/chain.png"" width=""300""></div><div style=""border: 3px solid #000000; position: fixed;left:64%;top:30%""><img src=""visual/brain.png"" width=""300""></div>",0,"Yes","no","visual/chain.png","visual/brain.png","arrowup","ortho",3.25,4.4,"low_verbal"
"44",424,877770,"A10JXOU89D5RXR",2022-05-18 15:11:54,"task_switching-rhyme-same_different-phon_sim",1635.90000000596,"rhyme","arrowup","experiment","<div style=""border: 3px solid #000000; position: fixed;left:14%;top:30%""><img src=""visual/king.png"" width=""300""></div><div style=""border: 3px solid #000000; position: fixed;left:64%;top:30%""><img src=""visual/ring.png"" width=""300""></div>",1,"Yes","no","visual/king.png","visual/ring.png","arrowup","ortho",3.25,4.4,"low_verbal"
"45",436,890827,"A10JXOU89D5RXR",2022-05-18 15:11:54,"task_switching-rhyme-same_different-phon_sim",1198.5,"rhyme","arrowup","experiment","<div style=""border: 3px solid #000000; position: fixed;left:14%;top:30%""><img src=""visual/cat.png"" width=""300""></div><div style=""border: 3px solid #000000; position: fixed;left:64%;top:30%""><img src=""visual/hat.png"" width=""300""></div>",1,"Yes","no","visual/cat.png","visual/hat.png","arrowup","ortho",3.25,4.4,"low_verbal"
"46",439,894139,"A10JXOU89D5RXR",2022-05-18 15:11:54,"task_switching-rhyme-same_different-phon_sim",1795.69999998808,"rhyme","arrowdown","experiment","<div style=""border: 3px solid #000000; position: fixed;left:14%;top:30%""><img src=""visual/bear.png"" width=""300""></div><div style=""border: 3px solid #000000; position: fixed;left:64%;top:30%""><img src=""visual/crane.png"" width=""300""></div>",1,"Yes","no","visual/bear.png","visual/crane.png","arrowdown","NR",3.25,4.4,"low_verbal"
"47",442,896811,"A10JXOU89D5RXR",2022-05-18 15:11:54,"task_switching-rhyme-same_different-phon_sim",1150.60000002384,"rhyme","arrowup","experiment","<div style=""border: 3px solid #000000; position: fixed;left:14%;top:30%""><img src=""visual/eye.png"" width=""300""></div><div style=""border: 3px solid #000000; position: fixed;left:64%;top:30%""><img src=""visual/tie.png"" width=""300""></div>",1,"Yes","no","visual/eye.png","visual/tie.png","arrowup","non-ortho",3.25,4.4,"low_verbal"
"48",445,899187,"A10JXOU89D5RXR",2022-05-18 15:11:54,"task_switching-rhyme-same_different-phon_sim",1357.90000000596,"rhyme","arrowup","experiment","<div style=""border: 3px solid #000000; position: fixed;left:14%;top:30%""><img src=""visual/saw.png"" width=""300""></div><div style=""border: 3px solid #000000; position: fixed;left:64%;top:30%""><img src=""visual/claw.png"" width=""300""></div>",1,"Yes","no","visual/saw.png","visual/claw.png","arrowup","ortho",3.25,4.4,"low_verbal"
"49",448,902115,"A10JXOU89D5RXR",2022-05-18 15:11:54,"task_switching-rhyme-same_different-phon_sim",1652.19999998808,"rhyme","arrowup","experiment","<div style=""border: 3px solid #000000; position: fixed;left:14%;top:30%""><img src=""visual/wheel.png"" width=""300""></div><div style=""border: 3px solid #000000; position: fixed;left:64%;top:30%""><img src=""visual/seal.png"" width=""300""></div>",1,"Yes","no","visual/wheel.png","visual/seal.png","arrowup","non-ortho",3.25,4.4,"low_verbal"
"50",451,904810,"A10JXOU89D5RXR",2022-05-18 15:11:54,"task_switching-rhyme-same_different-phon_sim",1166.80000001192,"rhyme","arrowup","experiment","<div style=""border: 3px solid #000000; position: fixed;left:14%;top:30%""><img src=""visual/plane.png"" width=""300""></div><div style=""border: 3px solid #000000; position: fixed;left:64%;top:30%""><img src=""visual/train.png"" width=""300""></div>",1,"Yes","no","visual/plane.png","visual/train.png","arrowup","non-ortho",3.25,4.4,"low_verbal"
"51",454,907210,"A10JXOU89D5RXR",2022-05-18 15:11:54,"task_switching-rhyme-same_different-phon_sim",1630.69999998808,"rhyme","arrowup","experiment","<div style=""border: 3px solid #000000; position: fixed;left:14%;top:30%""><img src=""visual/bear.png"" width=""300""></div><div style=""border: 3px solid #000000; position: fixed;left:64%;top:30%""><img src=""visual/hair.png"" width=""300""></div>",1,"Yes","no","visual/bear.png","visual/hair.png","arrowup","non-ortho",3.25,4.4,"low_verbal"
"52",457,910075,"A10JXOU89D5RXR",2022-05-18 15:11:54,"task_switching-rhyme-same_different-phon_sim",1338.29999998212,"rhyme","arrowup","experiment","<div style=""border: 3px solid #000000; position: fixed;left:14%;top:30%""><img src=""visual/tie.png"" width=""300""></div><div style=""border: 3px solid #000000; position: fixed;left:64%;top:30%""><img src=""visual/fly.png"" width=""300""></div>",1,"Yes","no","visual/tie.png","visual/fly.png","arrowup","non-ortho",3.25,4.4,"low_verbal"
"53",460,913259,"A10JXOU89D5RXR",2022-05-18 15:11:54,"task_switching-rhyme-same_different-phon_sim",1663.69999998808,"rhyme","arrowdown","experiment","<div style=""border: 3px solid #000000; position: fixed;left:14%;top:30%""><img src=""visual/key.png"" width=""300""></div><div style=""border: 3px solid #000000; position: fixed;left:64%;top:30%""><img src=""visual/snail.png"" width=""300""></div>",1,"Yes","no","visual/key.png","visual/snail.png","arrowdown","NR",3.25,4.4,"low_verbal"
"54",1152,2240261,"A12HZGOZQD5YK7",2022-05-31 13:49:12,"task_switching-phon_sim-same_different-rhyme",1273.79999995232,"rhyme","arrowdown","experiment","<div style=""border: 3px solid #000000; position: fixed;left:14%;top:30%""><img src=""visual/egg.png"" width=""300""></div><div style=""border: 3px solid #000000; position: fixed;left:64%;top:30%""><img src=""visual/ring.png"" width=""300""></div>",1,"No","I thought of the words and tried to rhyme them not out loud.","visual/egg.png","visual/ring.png","arrowdown","NR",2.58,3.8,"low_verbal"
"55",1155,2242529,"A12HZGOZQD5YK7",2022-05-31 13:49:12,"task_switching-phon_sim-same_different-rhyme",1489.29999995232,"rhyme","arrowdown","experiment","<div style=""border: 3px solid #000000; position: fixed;left:14%;top:30%""><img src=""visual/well.png"" width=""300""></div><div style=""border: 3px solid #000000; position: fixed;left:64%;top:30%""><img src=""visual/rose.png"" width=""300""></div>",1,"No","I thought of the words and tried to rhyme them not out loud.","visual/well.png","visual/rose.png","arrowdown","NR",2.58,3.8,"low_verbal"
"56",1158,2245144,"A12HZGOZQD5YK7",2022-05-31 13:49:12,"task_switching-phon_sim-same_different-rhyme",1603.60000002384,"rhyme","arrowup","experiment","<div style=""border: 3px solid #000000; position: fixed;left:14%;top:30%""><img src=""visual/well.png"" width=""300""></div><div style=""border: 3px solid #000000; position: fixed;left:64%;top:30%""><img src=""visual/bell.png"" width=""300""></div>",1,"No","I thought of the words and tried to rhyme them not out loud.","visual/well.png","visual/bell.png","arrowup","ortho",2.58,3.8,"low_verbal"
"57",1161,2247166,"A12HZGOZQD5YK7",2022-05-31 13:49:12,"task_switching-phon_sim-same_different-rhyme",1247.60000002384,"rhyme","arrowup","experiment","<div style=""border: 3px solid #000000; position: fixed;left:14%;top:30%""><img src=""visual/plane.png"" width=""300""></div><div style=""border: 3px solid #000000; position: fixed;left:64%;top:30%""><img src=""visual/train.png"" width=""300""></div>",1,"No","I thought of the words and tried to rhyme them not out loud.","visual/plane.png","visual/train.png","arrowup","non-ortho",2.58,3.8,"low_verbal"
"58",1164,2250264,"A12HZGOZQD5YK7",2022-05-31 13:49:12,"task_switching-phon_sim-same_different-rhyme",1577.40000009537,"rhyme","arrowdown","experiment","<div style=""border: 3px solid #000000; position: fixed;left:14%;top:30%""><img src=""visual/king.png"" width=""300""></div><div style=""border: 3px solid #000000; position: fixed;left:64%;top:30%""><img src=""visual/cab.png"" width=""300""></div>",1,"No","I thought of the words and tried to rhyme them not out loud.","visual/king.png","visual/cab.png","arrowdown","NR",2.58,3.8,"low_verbal"
"59",1167,2253166,"A12HZGOZQD5YK7",2022-05-31 13:49:12,"task_switching-phon_sim-same_different-rhyme",1890.60000002384,"rhyme","arrowdown","experiment","<div style=""border: 3px solid #000000; position: fixed;left:14%;top:30%""><img src=""visual/train.png"" width=""300""></div><div style=""border: 3px solid #000000; position: fixed;left:64%;top:30%""><img src=""visual/screw.png"" width=""300""></div>",1,"No","I thought of the words and tried to rhyme them not out loud.","visual/train.png","visual/screw.png","arrowdown","NR",2.58,3.8,"low_verbal"
"60",1170,2256434,"A12HZGOZQD5YK7",2022-05-31 13:49:12,"task_switching-phon_sim-same_different-rhyme",2492.29999995232,"rhyme","arrowdown","experiment","<div style=""border: 3px solid #000000; position: fixed;left:14%;top:30%""><img src=""visual/bear.png"" width=""300""></div><div style=""border: 3px solid #000000; position: fixed;left:64%;top:30%""><img src=""visual/crane.png"" width=""300""></div>",1,"No","I thought of the words and tried to rhyme them not out loud.","visual/bear.png","visual/crane.png","arrowdown","NR",2.58,3.8,"low_verbal"
"61",1173,2259751,"A12HZGOZQD5YK7",2022-05-31 13:49:12,"task_switching-phon_sim-same_different-rhyme",2058.10000002384,"rhyme","arrowdown","experiment","<div style=""border: 3px solid #000000; position: fixed;left:14%;top:30%""><img src=""visual/fan.png"" width=""300""></div><div style=""border: 3px solid #000000; position: fixed;left:64%;top:30%""><img src=""visual/man.png"" width=""300""></div>",0,"No","I thought of the words and tried to rhyme them not out loud.","visual/fan.png","visual/man.png","arrowup","ortho",2.58,3.8,"low_verbal"
"62",1176,2262160,"A12HZGOZQD5YK7",2022-05-31 13:49:12,"task_switching-phon_sim-same_different-rhyme",1639.89999997616,"rhyme","arrowup","experiment","<div style=""border: 3px solid #000000; position: fixed;left:14%;top:30%""><img src=""visual/rose.png"" width=""300""></div><div style=""border: 3px solid #000000; position: fixed;left:64%;top:30%""><img src=""visual/nose.png"" width=""300""></div>",1,"No","I thought of the words and tried to rhyme them not out loud.","visual/rose.png","visual/nose.png","arrowup","ortho",2.58,3.8,"low_verbal"
"63",1179,2265419,"A12HZGOZQD5YK7",2022-05-31 13:49:12,"task_switching-phon_sim-same_different-rhyme",1734.80000007153,"rhyme","arrowdown","experiment","<div style=""border: 3px solid #000000; position: fixed;left:14%;top:30%""><img src=""visual/key.png"" width=""300""></div><div style=""border: 3px solid #000000; position: fixed;left:64%;top:30%""><img src=""visual/snail.png"" width=""300""></div>",1,"No","I thought of the words and tried to rhyme them not out loud.","visual/key.png","visual/snail.png","arrowdown","NR",2.58,3.8,"low_verbal"
"64",1182,2267764,"A12HZGOZQD5YK7",2022-05-31 13:49:12,"task_switching-phon_sim-same_different-rhyme",1328.29999995232,"rhyme","arrowup","experiment","<div style=""border: 3px solid #000000; position: fixed;left:14%;top:30%""><img src=""visual/bone.png"" width=""300""></div><div style=""border: 3px solid #000000; position: fixed;left:64%;top:30%""><img src=""visual/cone.png"" width=""300""></div>",1,"No","I thought of the words and tried to rhyme them not out loud.","visual/bone.png","visual/cone.png","arrowup","ortho",2.58,3.8,"low_verbal"
"65",1185,2270805,"A12HZGOZQD5YK7",2022-05-31 13:49:12,"task_switching-phon_sim-same_different-rhyme",1523.79999995232,"rhyme","arrowup","experiment","<div style=""border: 3px solid #000000; position: fixed;left:14%;top:30%""><img src=""visual/bear.png"" width=""300""></div><div style=""border: 3px solid #000000; position: fixed;left:64%;top:30%""><img src=""visual/hair.png"" width=""300""></div>",1,"No","I thought of the words and tried to rhyme them not out loud.","visual/bear.png","visual/hair.png","arrowup","non-ortho",2.58,3.8,"low_verbal"
"66",1188,2273734,"A12HZGOZQD5YK7",2022-05-31 13:49:12,"task_switching-phon_sim-same_different-rhyme",1655.10000002384,"rhyme","arrowup","experiment","<div style=""border: 3px solid #000000; position: fixed;left:14%;top:30%""><img src=""visual/wheel.png"" width=""300""></div><div style=""border: 3px solid #000000; position: fixed;left:64%;top:30%""><img src=""visual/seal.png"" width=""300""></div>",1,"No","I thought of the words and tried to rhyme them not out loud.","visual/wheel.png","visual/seal.png","arrowup","non-ortho",2.58,3.8,"low_verbal"
"67",1191,2277447,"A12HZGOZQD5YK7",2022-05-31 13:49:12,"task_switching-phon_sim-same_different-rhyme",2194.69999992847,"rhyme","arrowdown","experiment","<div style=""border: 3px solid #000000; position: fixed;left:14%;top:30%""><img src=""visual/dart.png"" width=""300""></div><div style=""border: 3px solid #000000; position: fixed;left:64%;top:30%""><img src=""visual/tie.png"" width=""300""></div>",1,"No","I thought of the words and tried to rhyme them not out loud.","visual/dart.png","visual/tie.png","arrowdown","NR",2.58,3.8,"low_verbal"
"68",1194,2280665,"A12HZGOZQD5YK7",2022-05-31 13:49:12,"task_switching-phon_sim-same_different-rhyme",1956.19999992847,"rhyme","arrowdown","experiment","<div style=""border: 3px solid #000000; position: fixed;left:14%;top:30%""><img src=""visual/brain.png"" width=""300""></div><div style=""border: 3px solid #000000; position: fixed;left:64%;top:30%""><img src=""visual/clock.png"" width=""300""></div>",1,"No","I thought of the words and tried to rhyme them not out loud.","visual/brain.png","visual/clock.png","arrowdown","NR",2.58,3.8,"low_verbal"
"69",1200,2286472,"A12HZGOZQD5YK7",2022-05-31 13:49:12,"task_switching-phon_sim-same_different-rhyme",1221.90000009537,"rhyme","arrowup","experiment","<div style=""border: 3px solid #000000; position: fixed;left:14%;top:30%""><img src=""visual/spoon.png"" width=""300""></div><div style=""border: 3px solid #000000; position: fixed;left:64%;top:30%""><img src=""visual/moon.png"" width=""300""></div>",1,"No","I thought of the words and tried to rhyme them not out loud.","visual/spoon.png","visual/moon.png","arrowup","ortho",2.58,3.8,"low_verbal"
"70",1203,2288697,"A12HZGOZQD5YK7",2022-05-31 13:49:12,"task_switching-phon_sim-same_different-rhyme",1444.5,"rhyme","arrowup","experiment","<div style=""border: 3px solid #000000; position: fixed;left:14%;top:30%""><img src=""visual/king.png"" width=""300""></div><div style=""border: 3px solid #000000; position: fixed;left:64%;top:30%""><img src=""visual/ring.png"" width=""300""></div>",1,"No","I thought of the words and tried to rhyme them not out loud.","visual/king.png","visual/ring.png","arrowup","ortho",2.58,3.8,"low_verbal"
"71",1209,2294188,"A12HZGOZQD5YK7",2022-05-31 13:49:12,"task_switching-phon_sim-same_different-rhyme",1435.79999995232,"rhyme","arrowup","experiment","<div style=""border: 3px solid #000000; position: fixed;left:14%;top:30%""><img src=""visual/screw.png"" width=""300""></div><div style=""border: 3px solid #000000; position: fixed;left:64%;top:30%""><img src=""visual/shoe.png"" width=""300""></div>",1,"No","I thought of the words and tried to rhyme them not out loud.","visual/screw.png","visual/shoe.png","arrowup","non-ortho",2.58,3.8,"low_verbal"
"72",1212,2296517,"A12HZGOZQD5YK7",2022-05-31 13:49:12,"task_switching-phon_sim-same_different-rhyme",1296.89999997616,"rhyme","arrowup","experiment","<div style=""border: 3px solid #000000; position: fixed;left:14%;top:30%""><img src=""visual/snail.png"" width=""300""></div><div style=""border: 3px solid #000000; position: fixed;left:64%;top:30%""><img src=""visual/whale.png"" width=""300""></div>",1,"No","I thought of the words and tried to rhyme them not out loud.","visual/snail.png","visual/whale.png","arrowup","non-ortho",2.58,3.8,"low_verbal"
"73",1215,2299304,"A12HZGOZQD5YK7",2022-05-31 13:49:12,"task_switching-phon_sim-same_different-rhyme",1523.39999997616,"rhyme","arrowup","experiment","<div style=""border: 3px solid #000000; position: fixed;left:14%;top:30%""><img src=""visual/train.png"" width=""300""></div><div style=""border: 3px solid #000000; position: fixed;left:64%;top:30%""><img src=""visual/crane.png"" width=""300""></div>",1,"No","I thought of the words and tried to rhyme them not out loud.","visual/train.png","visual/crane.png","arrowup","non-ortho",2.58,3.8,"low_verbal"
"74",1218,2302855,"A12HZGOZQD5YK7",2022-05-31 13:49:12,"task_switching-phon_sim-same_different-rhyme",2269.10000002384,"rhyme","arrowdown","experiment","<div style=""border: 3px solid #000000; position: fixed;left:14%;top:30%""><img src=""visual/socks.png"" width=""300""></div><div style=""border: 3px solid #000000; position: fixed;left:64%;top:30%""><img src=""visual/fox.png"" width=""300""></div>",0,"No","I thought of the words and tried to rhyme them not out loud.","visual/socks.png","visual/fox.png","arrowup","non-ortho",2.58,3.8,"low_verbal"
"75",1224,2308465,"A12HZGOZQD5YK7",2022-05-31 13:49:12,"task_switching-phon_sim-same_different-rhyme",2612.09999990463,"rhyme","arrowdown","experiment","<div style=""border: 3px solid #000000; position: fixed;left:14%;top:30%""><img src=""visual/deer.png"" width=""300""></div><div style=""border: 3px solid #000000; position: fixed;left:64%;top:30%""><img src=""visual/beer.png"" width=""300""></div>",0,"No","I thought of the words and tried to rhyme them not out loud.","visual/deer.png","visual/beer.png","arrowup","ortho",2.58,3.8,"low_verbal"
"76",1227,2310990,"A12HZGOZQD5YK7",2022-05-31 13:49:12,"task_switching-phon_sim-same_different-rhyme",1499.60000002384,"rhyme","arrowup","experiment","<div style=""border: 3px solid #000000; position: fixed;left:14%;top:30%""><img src=""visual/key.png"" width=""300""></div><div style=""border: 3px solid #000000; position: fixed;left:64%;top:30%""><img src=""visual/tree.png"" width=""300""></div>",1,"No","I thought of the words and tried to rhyme them not out loud.","visual/key.png","visual/tree.png","arrowup","non-ortho",2.58,3.8,"low_verbal"
"77",1230,2313264,"A12HZGOZQD5YK7",2022-05-31 13:49:12,"task_switching-phon_sim-same_different-rhyme",1245.39999997616,"rhyme","arrowup","experiment","<div style=""border: 3px solid #000000; position: fixed;left:14%;top:30%""><img src=""visual/egg.png"" width=""300""></div><div style=""border: 3px solid #000000; position: fixed;left:64%;top:30%""><img src=""visual/leg.png"" width=""300""></div>",1,"No","I thought of the words and tried to rhyme them not out loud.","visual/egg.png","visual/leg.png","arrowup","ortho",2.58,3.8,"low_verbal"
"78",1233,2316157,"A12HZGOZQD5YK7",2022-05-31 13:49:12,"task_switching-phon_sim-same_different-rhyme",1869.29999995232,"rhyme","arrowup","experiment","<div style=""border: 3px solid #000000; position: fixed;left:14%;top:30%""><img src=""visual/dart.png"" width=""300""></div><div style=""border: 3px solid #000000; position: fixed;left:64%;top:30%""><img src=""visual/heart.png"" width=""300""></div>",1,"No","I thought of the words and tried to rhyme them not out loud.","visual/dart.png","visual/heart.png","arrowup","non-ortho",2.58,3.8,"low_verbal"
"79",1239,2322840,"A12HZGOZQD5YK7",2022-05-31 13:49:12,"task_switching-phon_sim-same_different-rhyme",1707.5,"rhyme","arrowdown","experiment","<div style=""border: 3px solid #000000; position: fixed;left:14%;top:30%""><img src=""visual/tree.png"" width=""300""></div><div style=""border: 3px solid #000000; position: fixed;left:64%;top:30%""><img src=""visual/door.png"" width=""300""></div>",1,"No","I thought of the words and tried to rhyme them not out loud.","visual/tree.png","visual/door.png","arrowdown","NR",2.58,3.8,"low_verbal"
"80",1242,2326336,"A12HZGOZQD5YK7",2022-05-31 13:49:12,"task_switching-phon_sim-same_different-rhyme",1981.19999992847,"rhyme","arrowup","experiment","<div style=""border: 3px solid #000000; position: fixed;left:14%;top:30%""><img src=""visual/soap.png"" width=""300""></div><div style=""border: 3px solid #000000; position: fixed;left:64%;top:30%""><img src=""visual/rope.png"" width=""300""></div>",1,"No","I thought of the words and tried to rhyme them not out loud.","visual/soap.png","visual/rope.png","arrowup","non-ortho",2.58,3.8,"low_verbal"
"81",1245,2328693,"A12HZGOZQD5YK7",2022-05-31 13:49:12,"task_switching-phon_sim-same_different-rhyme",1580.29999995232,"rhyme","arrowup","experiment","<div style=""border: 3px solid #000000; position: fixed;left:14%;top:30%""><img src=""visual/chain.png"" width=""300""></div><div style=""border: 3px solid #000000; position: fixed;left:64%;top:30%""><img src=""visual/brain.png"" width=""300""></div>",1,"No","I thought of the words and tried to rhyme them not out loud.","visual/chain.png","visual/brain.png","arrowup","ortho",2.58,3.8,"low_verbal"
"82",1248,2331633,"A12HZGOZQD5YK7",2022-05-31 13:49:12,"task_switching-phon_sim-same_different-rhyme",1424.5,"rhyme","arrowdown","experiment","<div style=""border: 3px solid #000000; position: fixed;left:14%;top:30%""><img src=""visual/drawer.png"" width=""300""></div><div style=""border: 3px solid #000000; position: fixed;left:64%;top:30%""><img src=""visual/chair.png"" width=""300""></div>",1,"No","I thought of the words and tried to rhyme them not out loud.","visual/drawer.png","visual/chair.png","arrowdown","NR",2.58,3.8,"low_verbal"
"83",1251,2334793,"A12HZGOZQD5YK7",2022-05-31 13:49:12,"task_switching-phon_sim-same_different-rhyme",2401.20000004768,"rhyme","arrowdown","experiment","<div style=""border: 3px solid #000000; position: fixed;left:14%;top:30%""><img src=""visual/fly.png"" width=""300""></div><div style=""border: 3px solid #000000; position: fixed;left:64%;top:30%""><img src=""visual/plane.png"" width=""300""></div>",1,"No","I thought of the words and tried to rhyme them not out loud.","visual/fly.png","visual/plane.png","arrowdown","NR",2.58,3.8,"low_verbal"
"84",1254,2337557,"A12HZGOZQD5YK7",2022-05-31 13:49:12,"task_switching-phon_sim-same_different-rhyme",1242.60000002384,"rhyme","arrowup","experiment","<div style=""border: 3px solid #000000; position: fixed;left:14%;top:30%""><img src=""visual/eye.png"" width=""300""></div><div style=""border: 3px solid #000000; position: fixed;left:64%;top:30%""><img src=""visual/tie.png"" width=""300""></div>",1,"No","I thought of the words and tried to rhyme them not out loud.","visual/eye.png","visual/tie.png","arrowup","non-ortho",2.58,3.8,"low_verbal"
"85",1257,2339647,"A12HZGOZQD5YK7",2022-05-31 13:49:12,"task_switching-phon_sim-same_different-rhyme",1318.79999995232,"rhyme","arrowdown","experiment","<div style=""border: 3px solid #000000; position: fixed;left:14%;top:30%""><img src=""visual/spoon.png"" width=""300""></div><div style=""border: 3px solid #000000; position: fixed;left:64%;top:30%""><img src=""visual/crab.png"" width=""300""></div>",1,"No","I thought of the words and tried to rhyme them not out loud.","visual/spoon.png","visual/crab.png","arrowdown","NR",2.58,3.8,"low_verbal"
"86",1260,2342810,"A12HZGOZQD5YK7",2022-05-31 13:49:12,"task_switching-phon_sim-same_different-rhyme",2148.70000004768,"rhyme","arrowdown","experiment","<div style=""border: 3px solid #000000; position: fixed;left:14%;top:30%""><img src=""visual/pope.png"" width=""300""></div><div style=""border: 3px solid #000000; position: fixed;left:64%;top:30%""><img src=""visual/soap.png"" width=""300""></div>",0,"No","I thought of the words and tried to rhyme them not out loud.","visual/pope.png","visual/soap.png","arrowup","non-ortho",2.58,3.8,"low_verbal"
"87",1263,2346158,"A12HZGOZQD5YK7",2022-05-31 13:49:12,"task_switching-phon_sim-same_different-rhyme",1828.10000002384,"rhyme","arrowup","experiment","<div style=""border: 3px solid #000000; position: fixed;left:14%;top:30%""><img src=""visual/sock.png"" width=""300""></div><div style=""border: 3px solid #000000; position: fixed;left:64%;top:30%""><img src=""visual/clock.png"" width=""300""></div>",1,"No","I thought of the words and tried to rhyme them not out loud.","visual/sock.png","visual/clock.png","arrowup","ortho",2.58,3.8,"low_verbal"
"88",1266,2348747,"A12HZGOZQD5YK7",2022-05-31 13:49:12,"task_switching-phon_sim-same_different-rhyme",1312.29999995232,"rhyme","arrowup","experiment","<div style=""border: 3px solid #000000; position: fixed;left:14%;top:30%""><img src=""visual/box.png"" width=""300""></div><div style=""border: 3px solid #000000; position: fixed;left:64%;top:30%""><img src=""visual/fox.png"" width=""300""></div>",1,"No","I thought of the words and tried to rhyme them not out loud.","visual/box.png","visual/fox.png","arrowup","ortho",2.58,3.8,"low_verbal"
"89",1269,2351373,"A12HZGOZQD5YK7",2022-05-31 13:49:12,"task_switching-phon_sim-same_different-rhyme",1353.59999990463,"rhyme","arrowup","experiment","<div style=""border: 3px solid #000000; position: fixed;left:14%;top:30%""><img src=""visual/plane.png"" width=""300""></div><div style=""border: 3px solid #000000; position: fixed;left:64%;top:30%""><img src=""visual/chain.png"" width=""300""></div>",1,"No","I thought of the words and tried to rhyme them not out loud.","visual/plane.png","visual/chain.png","arrowup","non-ortho",2.58,3.8,"low_verbal"
"90",1272,2354003,"A12HZGOZQD5YK7",2022-05-31 13:49:12,"task_switching-phon_sim-same_different-rhyme",1114,"rhyme","arrowdown","experiment","<div style=""border: 3px solid #000000; position: fixed;left:14%;top:30%""><img src=""visual/nose.png"" width=""300""></div><div style=""border: 3px solid #000000; position: fixed;left:64%;top:30%""><img src=""visual/bell.png"" width=""300""></div>",1,"No","I thought of the words and tried to rhyme them not out loud.","visual/nose.png","visual/bell.png","arrowdown","NR",2.58,3.8,"low_verbal"
"91",1275,2356747,"A12HZGOZQD5YK7",2022-05-31 13:49:12,"task_switching-phon_sim-same_different-rhyme",1239.5,"rhyme","arrowup","experiment","<div style=""border: 3px solid #000000; position: fixed;left:14%;top:30%""><img src=""visual/star.png"" width=""300""></div><div style=""border: 3px solid #000000; position: fixed;left:64%;top:30%""><img src=""visual/jar.png"" width=""300""></div>",1,"No","I thought of the words and tried to rhyme them not out loud.","visual/star.png","visual/jar.png","arrowup","ortho",2.58,3.8,"low_verbal"
"92",1278,2359681,"A12HZGOZQD5YK7",2022-05-31 13:49:12,"task_switching-phon_sim-same_different-rhyme",1658.69999992847,"rhyme","arrowdown","experiment","<div style=""border: 3px solid #000000; position: fixed;left:14%;top:30%""><img src=""visual/cat.png"" width=""300""></div><div style=""border: 3px solid #000000; position: fixed;left:64%;top:30%""><img src=""visual/sock.png"" width=""300""></div>",1,"No","I thought of the words and tried to rhyme them not out loud.","visual/cat.png","visual/sock.png","arrowdown","NR",2.58,3.8,"low_verbal"
"93",1284,2365926,"A12HZGOZQD5YK7",2022-05-31 13:49:12,"task_switching-phon_sim-same_different-rhyme",1429,"rhyme","arrowdown","experiment","<div style=""border: 3px solid #000000; position: fixed;left:14%;top:30%""><img src=""visual/claw.png"" width=""300""></div><div style=""border: 3px solid #000000; position: fixed;left:64%;top:30%""><img src=""visual/beer.png"" width=""300""></div>",1,"No","I thought of the words and tried to rhyme them not out loud.","visual/claw.png","visual/beer.png","arrowdown","NR",2.58,3.8,"low_verbal"
"94",1287,2369391,"A12HZGOZQD5YK7",2022-05-31 13:49:12,"task_switching-phon_sim-same_different-rhyme",2199.80000007153,"rhyme","arrowup","experiment","<div style=""border: 3px solid #000000; position: fixed;left:14%;top:30%""><img src=""visual/nail.png"" width=""300""></div><div style=""border: 3px solid #000000; position: fixed;left:64%;top:30%""><img src=""visual/whale.png"" width=""300""></div>",1,"No","I thought of the words and tried to rhyme them not out loud.","visual/nail.png","visual/whale.png","arrowup","non-ortho",2.58,3.8,"low_verbal"
"95",1290,2372428,"A12HZGOZQD5YK7",2022-05-31 13:49:12,"task_switching-phon_sim-same_different-rhyme",1509.79999995232,"rhyme","arrowup","experiment","<div style=""border: 3px solid #000000; position: fixed;left:14%;top:30%""><img src=""visual/flag.png"" width=""300""></div><div style=""border: 3px solid #000000; position: fixed;left:64%;top:30%""><img src=""visual/bag.png"" width=""300""></div>",1,"No","I thought of the words and tried to rhyme them not out loud.","visual/flag.png","visual/bag.png","arrowup","ortho",2.58,3.8,"low_verbal"
"96",1296,2377380,"A12HZGOZQD5YK7",2022-05-31 13:49:12,"task_switching-phon_sim-same_different-rhyme",1109,"rhyme","arrowdown","experiment","<div style=""border: 3px solid #000000; position: fixed;left:14%;top:30%""><img src=""visual/jar.png"" width=""300""></div><div style=""border: 3px solid #000000; position: fixed;left:64%;top:30%""><img src=""visual/whale.png"" width=""300""></div>",1,"No","I thought of the words and tried to rhyme them not out loud.","visual/jar.png","visual/whale.png","arrowdown","NR",2.58,3.8,"low_verbal"
"97",1299,2380608,"A12HZGOZQD5YK7",2022-05-31 13:49:12,"task_switching-phon_sim-same_different-rhyme",2209,"rhyme","arrowup","experiment","<div style=""border: 3px solid #000000; position: fixed;left:14%;top:30%""><img src=""visual/bear.png"" width=""300""></div><div style=""border: 3px solid #000000; position: fixed;left:64%;top:30%""><img src=""visual/square_rhyme.png"" width=""300""></div>",1,"No","I thought of the words and tried to rhyme them not out loud.","visual/bear.png","visual/square_rhyme.png","arrowup","non-ortho",2.58,3.8,"low_verbal"
"98",1305,2387227,"A12HZGOZQD5YK7",2022-05-31 13:49:12,"task_switching-phon_sim-same_different-rhyme",1940.10000002384,"rhyme","arrowup","experiment","<div style=""border: 3px solid #000000; position: fixed;left:14%;top:30%""><img src=""visual/saw.png"" width=""300""></div><div style=""border: 3px solid #000000; position: fixed;left:64%;top:30%""><img src=""visual/claw.png"" width=""300""></div>",1,"No","I thought of the words and tried to rhyme them not out loud.","visual/saw.png","visual/claw.png","arrowup","ortho",2.58,3.8,"low_verbal"
"99",1308,2389674,"A12HZGOZQD5YK7",2022-05-31 13:49:12,"task_switching-phon_sim-same_different-rhyme",1424.39999997616,"rhyme","arrowup","experiment","<div style=""border: 3px solid #000000; position: fixed;left:14%;top:30%""><img src=""visual/cat.png"" width=""300""></div><div style=""border: 3px solid #000000; position: fixed;left:64%;top:30%""><img src=""visual/hat.png"" width=""300""></div>",1,"No","I thought of the words and tried to rhyme them not out loud.","visual/cat.png","visual/hat.png","arrowup","ortho",2.58,3.8,"low_verbal"
"100",1311,2392194,"A12HZGOZQD5YK7",2022-05-31 13:49:12,"task_switching-phon_sim-same_different-rhyme",1246.80000007153,"rhyme","arrowdown","experiment","<div style=""border: 3px solid #000000; position: fixed;left:14%;top:30%""><img src=""visual/pear.png"" width=""300""></div><div style=""border: 3px solid #000000; position: fixed;left:64%;top:30%""><img src=""visual/rope.png"" width=""300""></div>",1,"No","I thought of the words and tried to rhyme them not out loud.","visual/pear.png","visual/rope.png","arrowdown","NR",2.58,3.8,"low_verbal"
"101",1314,2394232,"A12HZGOZQD5YK7",2022-05-31 13:49:12,"task_switching-phon_sim-same_different-rhyme",1262,"rhyme","arrowup","experiment","<div style=""border: 3px solid #000000; position: fixed;left:14%;top:30%""><img src=""visual/drum.png"" width=""300""></div><div style=""border: 3px solid #000000; position: fixed;left:64%;top:30%""><img src=""visual/thumb.png"" width=""300""></div>",1,"No","I thought of the words and tried to rhyme them not out loud.","visual/drum.png","visual/thumb.png","arrowup","non-ortho",2.58,3.8,"low_verbal"
"102",1317,2397569,"A12HZGOZQD5YK7",2022-05-31 13:49:12,"task_switching-phon_sim-same_different-rhyme",2068.10000002384,"rhyme","arrowdown","experiment","<div style=""border: 3px solid #000000; position: fixed;left:14%;top:30%""><img src=""visual/soap.png"" width=""300""></div><div style=""border: 3px solid #000000; position: fixed;left:64%;top:30%""><img src=""visual/shoe.png"" width=""300""></div>",1,"No","I thought of the words and tried to rhyme them not out loud.","visual/soap.png","visual/shoe.png","arrowdown","NR",2.58,3.8,"low_verbal"
"103",1320,2399932,"A12HZGOZQD5YK7",2022-05-31 13:49:12,"task_switching-phon_sim-same_different-rhyme",1089.89999997616,"rhyme","arrowup","experiment","<div style=""border: 3px solid #000000; position: fixed;left:14%;top:30%""><img src=""visual/tie.png"" width=""300""></div><div style=""border: 3px solid #000000; position: fixed;left:64%;top:30%""><img src=""visual/fly.png"" width=""300""></div>",1,"No","I thought of the words and tried to rhyme them not out loud.","visual/tie.png","visual/fly.png","arrowup","non-ortho",2.58,3.8,"low_verbal"
"104",1323,2402229,"A12HZGOZQD5YK7",2022-05-31 13:49:12,"task_switching-phon_sim-same_different-rhyme",1525.89999997616,"rhyme","arrowup","experiment","<div style=""border: 3px solid #000000; position: fixed;left:14%;top:30%""><img src=""visual/chair.png"" width=""300""></div><div style=""border: 3px solid #000000; position: fixed;left:64%;top:30%""><img src=""visual/pear.png"" width=""300""></div>",1,"No","I thought of the words and tried to rhyme them not out loud.","visual/chair.png","visual/pear.png","arrowup","non-ortho",2.58,3.8,"low_verbal"
"105",1326,2405291,"A12HZGOZQD5YK7",2022-05-31 13:49:12,"task_switching-phon_sim-same_different-rhyme",1552.10000002384,"rhyme","arrowdown","experiment","<div style=""border: 3px solid #000000; position: fixed;left:14%;top:30%""><img src=""visual/bed.png"" width=""300""></div><div style=""border: 3px solid #000000; position: fixed;left:64%;top:30%""><img src=""visual/bread.png"" width=""300""></div>",0,"No","I thought of the words and tried to rhyme them not out loud.","visual/bed.png","visual/bread.png","arrowup","non-ortho",2.58,3.8,"low_verbal"
"106",1329,2409319,"A12HZGOZQD5YK7",2022-05-31 13:49:12,"task_switching-phon_sim-same_different-rhyme",2506.39999997616,"rhyme","arrowdown","experiment","<div style=""border: 3px solid #000000; position: fixed;left:14%;top:30%""><img src=""visual/drawer.png"" width=""300""></div><div style=""border: 3px solid #000000; position: fixed;left:64%;top:30%""><img src=""visual/door.png"" width=""300""></div>",0,"No","I thought of the words and tried to rhyme them not out loud.","visual/drawer.png","visual/door.png","arrowup","non-ortho",2.58,3.8,"low_verbal"
"107",22,42512,"A15T9HDPHV3X7Q",2022-05-19 02:18:12,"rhyme-phon_sim-task_switching-same_different",1538.59999990463,"rhyme","arrowup","experiment","<div style=""border: 3px solid #000000; position: fixed;left:14%;top:30%""><img src=""visual/sock.png"" width=""300""></div><div style=""border: 3px solid #000000; position: fixed;left:64%;top:30%""><img src=""visual/clock.png"" width=""300""></div>",1,"Yes","no","visual/sock.png","visual/clock.png","arrowup","ortho",1.33,1.9,"low_verbal"
"108",25,46158,"A15T9HDPHV3X7Q",2022-05-19 02:18:12,"rhyme-phon_sim-task_switching-same_different",2374.90000009537,"rhyme","arrowdown","experiment","<div style=""border: 3px solid #000000; position: fixed;left:14%;top:30%""><img src=""visual/cat.png"" width=""300""></div><div style=""border: 3px solid #000000; position: fixed;left:64%;top:30%""><img src=""visual/sock.png"" width=""300""></div>",1,"Yes","no","visual/cat.png","visual/sock.png","arrowdown","NR",1.33,1.9,"low_verbal"
"109",31,52144,"A15T9HDPHV3X7Q",2022-05-19 02:18:12,"rhyme-phon_sim-task_switching-same_different",2361.09999990463,"rhyme","arrowup","experiment","<div style=""border: 3px solid #000000; position: fixed;left:14%;top:30%""><img src=""visual/nail.png"" width=""300""></div><div style=""border: 3px solid #000000; position: fixed;left:64%;top:30%""><img src=""visual/whale.png"" width=""300""></div>",1,"Yes","no","visual/nail.png","visual/whale.png","arrowup","non-ortho",1.33,1.9,"low_verbal"
"110",34,55214,"A15T9HDPHV3X7Q",2022-05-19 02:18:12,"rhyme-phon_sim-task_switching-same_different",1805.09999990463,"rhyme","arrowup","experiment","<div style=""border: 3px solid #000000; position: fixed;left:14%;top:30%""><img src=""visual/flag.png"" width=""300""></div><div style=""border: 3px solid #000000; position: fixed;left:64%;top:30%""><img src=""visual/bag.png"" width=""300""></div>",1,"Yes","no","visual/flag.png","visual/bag.png","arrowup","ortho",1.33,1.9,"low_verbal"
"111",37,57735,"A15T9HDPHV3X7Q",2022-05-19 02:18:12,"rhyme-phon_sim-task_switching-same_different",1496.90000009537,"rhyme","arrowdown","experiment","<div style=""border: 3px solid #000000; position: fixed;left:14%;top:30%""><img src=""visual/spoon.png"" width=""300""></div><div style=""border: 3px solid #000000; position: fixed;left:64%;top:30%""><img src=""visual/crab.png"" width=""300""></div>",1,"Yes","no","visual/spoon.png","visual/crab.png","arrowdown","NR",1.33,1.9,"low_verbal"
"112",40,60592,"A15T9HDPHV3X7Q",2022-05-19 02:18:12,"rhyme-phon_sim-task_switching-same_different",1578.20000004768,"rhyme","arrowup","experiment","<div style=""border: 3px solid #000000; position: fixed;left:14%;top:30%""><img src=""visual/chair.png"" width=""300""></div><div style=""border: 3px solid #000000; position: fixed;left:64%;top:30%""><img src=""visual/pear.png"" width=""300""></div>",1,"Yes","no","visual/chair.png","visual/pear.png","arrowup","non-ortho",1.33,1.9,"low_verbal"
"113",43,64960,"A15T9HDPHV3X7Q",2022-05-19 02:18:12,"rhyme-phon_sim-task_switching-same_different",3097,"rhyme","arrowdown","experiment","<div style=""border: 3px solid #000000; position: fixed;left:14%;top:30%""><img src=""visual/fly.png"" width=""300""></div><div style=""border: 3px solid #000000; position: fixed;left:64%;top:30%""><img src=""visual/plane.png"" width=""300""></div>",1,"Yes","no","visual/fly.png","visual/plane.png","arrowdown","NR",1.33,1.9,"low_verbal"
"114",46,68432,"A15T9HDPHV3X7Q",2022-05-19 02:18:12,"rhyme-phon_sim-task_switching-same_different",1960.09999990463,"rhyme","arrowup","experiment","<div style=""border: 3px solid #000000; position: fixed;left:14%;top:30%""><img src=""visual/socks.png"" width=""300""></div><div style=""border: 3px solid #000000; position: fixed;left:64%;top:30%""><img src=""visual/fox.png"" width=""300""></div>",1,"Yes","no","visual/socks.png","visual/fox.png","arrowup","non-ortho",1.33,1.9,"low_verbal"
"115",49,71664,"A15T9HDPHV3X7Q",2022-05-19 02:18:12,"rhyme-phon_sim-task_switching-same_different",2204,"rhyme","arrowup","experiment","<div style=""border: 3px solid #000000; position: fixed;left:14%;top:30%""><img src=""visual/wheel.png"" width=""300""></div><div style=""border: 3px solid #000000; position: fixed;left:64%;top:30%""><img src=""visual/seal.png"" width=""300""></div>",1,"Yes","no","visual/wheel.png","visual/seal.png","arrowup","non-ortho",1.33,1.9,"low_verbal"
"116",52,74565,"A15T9HDPHV3X7Q",2022-05-19 02:18:12,"rhyme-phon_sim-task_switching-same_different",1867.5,"rhyme","arrowdown","experiment","<div style=""border: 3px solid #000000; position: fixed;left:14%;top:30%""><img src=""visual/egg.png"" width=""300""></div><div style=""border: 3px solid #000000; position: fixed;left:64%;top:30%""><img src=""visual/ring.png"" width=""300""></div>",1,"Yes","no","visual/egg.png","visual/ring.png","arrowdown","NR",1.33,1.9,"low_verbal"
"117",55,78752,"A15T9HDPHV3X7Q",2022-05-19 02:18:12,"rhyme-phon_sim-task_switching-same_different",3171.90000009537,"rhyme","arrowdown","experiment","<div style=""border: 3px solid #000000; position: fixed;left:14%;top:30%""><img src=""visual/star.png"" width=""300""></div><div style=""border: 3px solid #000000; position: fixed;left:64%;top:30%""><img src=""visual/jar.png"" width=""300""></div>",0,"Yes","no","visual/star.png","visual/jar.png","arrowup","ortho",1.33,1.9,"low_verbal"
"118",61,86120,"A15T9HDPHV3X7Q",2022-05-19 02:18:12,"rhyme-phon_sim-task_switching-same_different",2245.09999990463,"rhyme","arrowdown","experiment","<div style=""border: 3px solid #000000; position: fixed;left:14%;top:30%""><img src=""visual/nose.png"" width=""300""></div><div style=""border: 3px solid #000000; position: fixed;left:64%;top:30%""><img src=""visual/bell.png"" width=""300""></div>",1,"Yes","no","visual/nose.png","visual/bell.png","arrowdown","NR",1.33,1.9,"low_verbal"
"119",64,90315,"A15T9HDPHV3X7Q",2022-05-19 02:18:12,"rhyme-phon_sim-task_switching-same_different",3423.59999990463,"rhyme","arrowdown","experiment","<div style=""border: 3px solid #000000; position: fixed;left:14%;top:30%""><img src=""visual/train.png"" width=""300""></div><div style=""border: 3px solid #000000; position: fixed;left:64%;top:30%""><img src=""visual/screw.png"" width=""300""></div>",1,"Yes","no","visual/train.png","visual/screw.png","arrowdown","NR",1.33,1.9,"low_verbal"
"120",67,93459,"A15T9HDPHV3X7Q",2022-05-19 02:18:12,"rhyme-phon_sim-task_switching-same_different",1618,"rhyme","arrowup","experiment","<div style=""border: 3px solid #000000; position: fixed;left:14%;top:30%""><img src=""visual/snail.png"" width=""300""></div><div style=""border: 3px solid #000000; position: fixed;left:64%;top:30%""><img src=""visual/whale.png"" width=""300""></div>",1,"Yes","no","visual/snail.png","visual/whale.png","arrowup","non-ortho",1.33,1.9,"low_verbal"
"121",70,96291,"A15T9HDPHV3X7Q",2022-05-19 02:18:12,"rhyme-phon_sim-task_switching-same_different",1812,"rhyme","arrowup","experiment","<div style=""border: 3px solid #000000; position: fixed;left:14%;top:30%""><img src=""visual/deer.png"" width=""300""></div><div style=""border: 3px solid #000000; position: fixed;left:64%;top:30%""><img src=""visual/beer.png"" width=""300""></div>",1,"Yes","no","visual/deer.png","visual/beer.png","arrowup","ortho",1.33,1.9,"low_verbal"
"122",73,99416,"A15T9HDPHV3X7Q",2022-05-19 02:18:12,"rhyme-phon_sim-task_switching-same_different",2116.70000004768,"rhyme","arrowdown","experiment","<div style=""border: 3px solid #000000; position: fixed;left:14%;top:30%""><img src=""visual/tree.png"" width=""300""></div><div style=""border: 3px solid #000000; position: fixed;left:64%;top:30%""><img src=""visual/door.png"" width=""300""></div>",1,"Yes","no","visual/tree.png","visual/door.png","arrowdown","NR",1.33,1.9,"low_verbal"
"123",76,101564,"A15T9HDPHV3X7Q",2022-05-19 02:18:12,"rhyme-phon_sim-task_switching-same_different",1365.59999990463,"rhyme","arrowdown","experiment","<div style=""border: 3px solid #000000; position: fixed;left:14%;top:30%""><img src=""visual/brain.png"" width=""300""></div><div style=""border: 3px solid #000000; position: fixed;left:64%;top:30%""><img src=""visual/clock.png"" width=""300""></div>",1,"Yes","no","visual/brain.png","visual/clock.png","arrowdown","NR",1.33,1.9,"low_verbal"
"124",79,104551,"A15T9HDPHV3X7Q",2022-05-19 02:18:12,"rhyme-phon_sim-task_switching-same_different",1969.09999990463,"rhyme","arrowup","experiment","<div style=""border: 3px solid #000000; position: fixed;left:14%;top:30%""><img src=""visual/egg.png"" width=""300""></div><div style=""border: 3px solid #000000; position: fixed;left:64%;top:30%""><img src=""visual/leg.png"" width=""300""></div>",1,"Yes","no","visual/egg.png","visual/leg.png","arrowup","ortho",1.33,1.9,"low_verbal"
"125",82,108274,"A15T9HDPHV3X7Q",2022-05-19 02:18:12,"rhyme-phon_sim-task_switching-same_different",2202.70000004768,"rhyme","arrowup","experiment","<div style=""border: 3px solid #000000; position: fixed;left:14%;top:30%""><img src=""visual/king.png"" width=""300""></div><div style=""border: 3px solid #000000; position: fixed;left:64%;top:30%""><img src=""visual/ring.png"" width=""300""></div>",1,"Yes","no","visual/king.png","visual/ring.png","arrowup","ortho",1.33,1.9,"low_verbal"
"126",85,111457,"A15T9HDPHV3X7Q",2022-05-19 02:18:12,"rhyme-phon_sim-task_switching-same_different",2401.19999980927,"rhyme","arrowdown","experiment","<div style=""border: 3px solid #000000; position: fixed;left:14%;top:30%""><img src=""visual/bear.png"" width=""300""></div><div style=""border: 3px solid #000000; position: fixed;left:64%;top:30%""><img src=""visual/crane.png"" width=""300""></div>",1,"Yes","no","visual/bear.png","visual/crane.png","arrowdown","NR",1.33,1.9,"low_verbal"
"127",88,116185,"A15T9HDPHV3X7Q",2022-05-19 02:18:12,"rhyme-phon_sim-task_switching-same_different",3197.90000009537,"rhyme","arrowdown","experiment","<div style=""border: 3px solid #000000; position: fixed;left:14%;top:30%""><img src=""visual/soap.png"" width=""300""></div><div style=""border: 3px solid #000000; position: fixed;left:64%;top:30%""><img src=""visual/shoe.png"" width=""300""></div>",1,"Yes","no","visual/soap.png","visual/shoe.png","arrowdown","NR",1.33,1.9,"low_verbal"
"128",91,118855,"A15T9HDPHV3X7Q",2022-05-19 02:18:12,"rhyme-phon_sim-task_switching-same_different",1889.10000014305,"rhyme","arrowup","experiment","<div style=""border: 3px solid #000000; position: fixed;left:14%;top:30%""><img src=""visual/tie.png"" width=""300""></div><div style=""border: 3px solid #000000; position: fixed;left:64%;top:30%""><img src=""visual/fly.png"" width=""300""></div>",1,"Yes","no","visual/tie.png","visual/fly.png","arrowup","non-ortho",1.33,1.9,"low_verbal"
"129",94,122300,"A15T9HDPHV3X7Q",2022-05-19 02:18:12,"rhyme-phon_sim-task_switching-same_different",2430,"rhyme","arrowup","experiment","<div style=""border: 3px solid #000000; position: fixed;left:14%;top:30%""><img src=""visual/well.png"" width=""300""></div><div style=""border: 3px solid #000000; position: fixed;left:64%;top:30%""><img src=""visual/bell.png"" width=""300""></div>",1,"Yes","no","visual/well.png","visual/bell.png","arrowup","ortho",1.33,1.9,"low_verbal"
"130",97,125061,"A15T9HDPHV3X7Q",2022-05-19 02:18:12,"rhyme-phon_sim-task_switching-same_different",1491.30000019073,"rhyme","arrowup","experiment","<div style=""border: 3px solid #000000; position: fixed;left:14%;top:30%""><img src=""visual/rose.png"" width=""300""></div><div style=""border: 3px solid #000000; position: fixed;left:64%;top:30%""><img src=""visual/nose.png"" width=""300""></div>",1,"Yes","no","visual/rose.png","visual/nose.png","arrowup","ortho",1.33,1.9,"low_verbal"
"131",100,128173,"A15T9HDPHV3X7Q",2022-05-19 02:18:12,"rhyme-phon_sim-task_switching-same_different",1835.60000014305,"rhyme","arrowup","experiment","<div style=""border: 3px solid #000000; position: fixed;left:14%;top:30%""><img src=""visual/bear.png"" width=""300""></div><div style=""border: 3px solid #000000; position: fixed;left:64%;top:30%""><img src=""visual/hair.png"" width=""300""></div>",1,"Yes","no","visual/bear.png","visual/hair.png","arrowup","non-ortho",1.33,1.9,"low_verbal"
"132",103,131876,"A15T9HDPHV3X7Q",2022-05-19 02:18:12,"rhyme-phon_sim-task_switching-same_different",2924.5,"rhyme","arrowup","experiment","<div style=""border: 3px solid #000000; position: fixed;left:14%;top:30%""><img src=""visual/plane.png"" width=""300""></div><div style=""border: 3px solid #000000; position: fixed;left:64%;top:30%""><img src=""visual/chain.png"" width=""300""></div>",1,"Yes","no","visual/plane.png","visual/chain.png","arrowup","non-ortho",1.33,1.9,"low_verbal"
"133",109,141929,"A15T9HDPHV3X7Q",2022-05-19 02:18:12,"rhyme-phon_sim-task_switching-same_different",NA,"rhyme","null","experiment","<div style=""border: 3px solid #000000; position: fixed;left:14%;top:30%""><img src=""visual/drum.png"" width=""300""></div><div style=""border: 3px solid #000000; position: fixed;left:64%;top:30%""><img src=""visual/thumb.png"" width=""300""></div>",0,"Yes","no","visual/drum.png","visual/thumb.png","arrowup","non-ortho",1.33,1.9,"low_verbal"
"134",112,146818,"A15T9HDPHV3X7Q",2022-05-19 02:18:12,"rhyme-phon_sim-task_switching-same_different",4128.10000014305,"rhyme","arrowdown","experiment","<div style=""border: 3px solid #000000; position: fixed;left:14%;top:30%""><img src=""visual/drawer.png"" width=""300""></div><div style=""border: 3px solid #000000; position: fixed;left:64%;top:30%""><img src=""visual/door.png"" width=""300""></div>",0,"Yes","no","visual/drawer.png","visual/door.png","arrowup","non-ortho",1.33,1.9,"low_verbal"
"135",115,149362,"A15T9HDPHV3X7Q",2022-05-19 02:18:12,"rhyme-phon_sim-task_switching-same_different",1764.79999995232,"rhyme","arrowdown","experiment","<div style=""border: 3px solid #000000; position: fixed;left:14%;top:30%""><img src=""visual/king.png"" width=""300""></div><div style=""border: 3px solid #000000; position: fixed;left:64%;top:30%""><img src=""visual/cab.png"" width=""300""></div>",1,"Yes","no","visual/king.png","visual/cab.png","arrowdown","NR",1.33,1.9,"low_verbal"
"136",118,153222,"A15T9HDPHV3X7Q",2022-05-19 02:18:12,"rhyme-phon_sim-task_switching-same_different",2333,"rhyme","arrowup","experiment","<div style=""border: 3px solid #000000; position: fixed;left:14%;top:30%""><img src=""visual/saw.png"" width=""300""></div><div style=""border: 3px solid #000000; position: fixed;left:64%;top:30%""><img src=""visual/claw.png"" width=""300""></div>",1,"Yes","no","visual/saw.png","visual/claw.png","arrowup","ortho",1.33,1.9,"low_verbal"
"137",121,158490,"A15T9HDPHV3X7Q",2022-05-19 02:18:12,"rhyme-phon_sim-task_switching-same_different",4253.29999995232,"rhyme","arrowup","experiment","<div style=""border: 3px solid #000000; position: fixed;left:14%;top:30%""><img src=""visual/key.png"" width=""300""></div><div style=""border: 3px solid #000000; position: fixed;left:64%;top:30%""><img src=""visual/tree.png"" width=""300""></div>",1,"Yes","no","visual/key.png","visual/tree.png","arrowup","non-ortho",1.33,1.9,"low_verbal"
"138",124,161176,"A15T9HDPHV3X7Q",2022-05-19 02:18:12,"rhyme-phon_sim-task_switching-same_different",1161.70000004768,"rhyme","arrowup","experiment","<div style=""border: 3px solid #000000; position: fixed;left:14%;top:30%""><img src=""visual/box.png"" width=""300""></div><div style=""border: 3px solid #000000; position: fixed;left:64%;top:30%""><img src=""visual/fox.png"" width=""300""></div>",1,"Yes","no","visual/box.png","visual/fox.png","arrowup","ortho",1.33,1.9,"low_verbal"
"139",127,165001,"A15T9HDPHV3X7Q",2022-05-19 02:18:12,"rhyme-phon_sim-task_switching-same_different",2808.90000009537,"rhyme","arrowup","experiment","<div style=""border: 3px solid #000000; position: fixed;left:14%;top:30%""><img src=""visual/pope.png"" width=""300""></div><div style=""border: 3px solid #000000; position: fixed;left:64%;top:30%""><img src=""visual/soap.png"" width=""300""></div>",1,"Yes","no","visual/pope.png","visual/soap.png","arrowup","non-ortho",1.33,1.9,"low_verbal"
"140",130,168037,"A15T9HDPHV3X7Q",2022-05-19 02:18:12,"rhyme-phon_sim-task_switching-same_different",1504,"rhyme","arrowup","experiment","<div style=""border: 3px solid #000000; position: fixed;left:14%;top:30%""><img src=""visual/spoon.png"" width=""300""></div><div style=""border: 3px solid #000000; position: fixed;left:64%;top:30%""><img src=""visual/moon.png"" width=""300""></div>",1,"Yes","no","visual/spoon.png","visual/moon.png","arrowup","ortho",1.33,1.9,"low_verbal"
"141",133,171589,"A15T9HDPHV3X7Q",2022-05-19 02:18:12,"rhyme-phon_sim-task_switching-same_different",2535,"rhyme","arrowdown","experiment","<div style=""border: 3px solid #000000; position: fixed;left:14%;top:30%""><img src=""visual/train.png"" width=""300""></div><div style=""border: 3px solid #000000; position: fixed;left:64%;top:30%""><img src=""visual/crane.png"" width=""300""></div>",0,"Yes","no","visual/train.png","visual/crane.png","arrowup","non-ortho",1.33,1.9,"low_verbal"
"142",145,185547,"A15T9HDPHV3X7Q",2022-05-19 02:18:12,"rhyme-phon_sim-task_switching-same_different",2288.09999990463,"rhyme","arrowdown","experiment","<div style=""border: 3px solid #000000; position: fixed;left:14%;top:30%""><img src=""visual/jar.png"" width=""300""></div><div style=""border: 3px solid #000000; position: fixed;left:64%;top:30%""><img src=""visual/whale.png"" width=""300""></div>",1,"Yes","no","visual/jar.png","visual/whale.png","arrowdown","NR",1.33,1.9,"low_verbal"
"143",148,188167,"A15T9HDPHV3X7Q",2022-05-19 02:18:12,"rhyme-phon_sim-task_switching-same_different",1854.29999995232,"rhyme","arrowdown","experiment","<div style=""border: 3px solid #000000; position: fixed;left:14%;top:30%""><img src=""visual/key.png"" width=""300""></div><div style=""border: 3px solid #000000; position: fixed;left:64%;top:30%""><img src=""visual/snail.png"" width=""300""></div>",1,"Yes","no","visual/key.png","visual/snail.png","arrowdown","NR",1.33,1.9,"low_verbal"
"144",151,191083,"A15T9HDPHV3X7Q",2022-05-19 02:18:12,"rhyme-phon_sim-task_switching-same_different",1408.5,"rhyme","arrowup","experiment","<div style=""border: 3px solid #000000; position: fixed;left:14%;top:30%""><img src=""visual/cat.png"" width=""300""></div><div style=""border: 3px solid #000000; position: fixed;left:64%;top:30%""><img src=""visual/hat.png"" width=""300""></div>",1,"Yes","no","visual/cat.png","visual/hat.png","arrowup","ortho",1.33,1.9,"low_verbal"
"145",154,193980,"A15T9HDPHV3X7Q",2022-05-19 02:18:12,"rhyme-phon_sim-task_switching-same_different",1876.79999995232,"rhyme","arrowdown","experiment","<div style=""border: 3px solid #000000; position: fixed;left:14%;top:30%""><img src=""visual/pear.png"" width=""300""></div><div style=""border: 3px solid #000000; position: fixed;left:64%;top:30%""><img src=""visual/rope.png"" width=""300""></div>",1,"Yes","no","visual/pear.png","visual/rope.png","arrowdown","NR",1.33,1.9,"low_verbal"
"146",157,196862,"A15T9HDPHV3X7Q",2022-05-19 02:18:12,"rhyme-phon_sim-task_switching-same_different",2109.20000004768,"rhyme","arrowup","experiment","<div style=""border: 3px solid #000000; position: fixed;left:14%;top:30%""><img src=""visual/dart.png"" width=""300""></div><div style=""border: 3px solid #000000; position: fixed;left:64%;top:30%""><img src=""visual/heart.png"" width=""300""></div>",1,"Yes","no","visual/dart.png","visual/heart.png","arrowup","non-ortho",1.33,1.9,"low_verbal"
"147",160,200533,"A15T9HDPHV3X7Q",2022-05-19 02:18:12,"rhyme-phon_sim-task_switching-same_different",2150.90000009537,"rhyme","arrowdown","experiment","<div style=""border: 3px solid #000000; position: fixed;left:14%;top:30%""><img src=""visual/claw.png"" width=""300""></div><div style=""border: 3px solid #000000; position: fixed;left:64%;top:30%""><img src=""visual/beer.png"" width=""300""></div>",1,"Yes","no","visual/claw.png","visual/beer.png","arrowdown","NR",1.33,1.9,"low_verbal"
"148",163,203221,"A15T9HDPHV3X7Q",2022-05-19 02:18:12,"rhyme-phon_sim-task_switching-same_different",1421.60000014305,"rhyme","arrowup","experiment","<div style=""border: 3px solid #000000; position: fixed;left:14%;top:30%""><img src=""visual/bed.png"" width=""300""></div><div style=""border: 3px solid #000000; position: fixed;left:64%;top:30%""><img src=""visual/bread.png"" width=""300""></div>",1,"Yes","no","visual/bed.png","visual/bread.png","arrowup","non-ortho",1.33,1.9,"low_verbal"
"149",166,206685,"A15T9HDPHV3X7Q",2022-05-19 02:18:12,"rhyme-phon_sim-task_switching-same_different",1934.39999985695,"rhyme","arrowup","experiment","<div style=""border: 3px solid #000000; position: fixed;left:14%;top:30%""><img src=""visual/soap.png"" width=""300""></div><div style=""border: 3px solid #000000; position: fixed;left:64%;top:30%""><img src=""visual/rope.png"" width=""300""></div>",1,"Yes","no","visual/soap.png","visual/rope.png","arrowup","non-ortho",1.33,1.9,"low_verbal"
"150",169,209329,"A15T9HDPHV3X7Q",2022-05-19 02:18:12,"rhyme-phon_sim-task_switching-same_different",1873.40000009537,"rhyme","arrowdown","experiment","<div style=""border: 3px solid #000000; position: fixed;left:14%;top:30%""><img src=""visual/dart.png"" width=""300""></div><div style=""border: 3px solid #000000; position: fixed;left:64%;top:30%""><img src=""visual/tie.png"" width=""300""></div>",1,"Yes","no","visual/dart.png","visual/tie.png","arrowdown","NR",1.33,1.9,"low_verbal"
"151",172,213952,"A15T9HDPHV3X7Q",2022-05-19 02:18:12,"rhyme-phon_sim-task_switching-same_different",3350.40000009537,"rhyme","arrowdown","experiment","<div style=""border: 3px solid #000000; position: fixed;left:14%;top:30%""><img src=""visual/bone.png"" width=""300""></div><div style=""border: 3px solid #000000; position: fixed;left:64%;top:30%""><img src=""visual/cone.png"" width=""300""></div>",0,"Yes","no","visual/bone.png","visual/cone.png","arrowup","ortho",1.33,1.9,"low_verbal"
"152",175,216768,"A15T9HDPHV3X7Q",2022-05-19 02:18:12,"rhyme-phon_sim-task_switching-same_different",1804.40000009537,"rhyme","arrowup","experiment","<div style=""border: 3px solid #000000; position: fixed;left:14%;top:30%""><img src=""visual/eye.png"" width=""300""></div><div style=""border: 3px solid #000000; position: fixed;left:64%;top:30%""><img src=""visual/tie.png"" width=""300""></div>",1,"Yes","no","visual/eye.png","visual/tie.png","arrowup","non-ortho",1.33,1.9,"low_verbal"
"153",178,219285,"A15T9HDPHV3X7Q",2022-05-19 02:18:12,"rhyme-phon_sim-task_switching-same_different",1495.80000019073,"rhyme","arrowdown","experiment","<div style=""border: 3px solid #000000; position: fixed;left:14%;top:30%""><img src=""visual/screw.png"" width=""300""></div><div style=""border: 3px solid #000000; position: fixed;left:64%;top:30%""><img src=""visual/shoe.png"" width=""300""></div>",0,"Yes","no","visual/screw.png","visual/shoe.png","arrowup","non-ortho",1.33,1.9,"low_verbal"
"154",181,222390,"A15T9HDPHV3X7Q",2022-05-19 02:18:12,"rhyme-phon_sim-task_switching-same_different",1836.70000004768,"rhyme","arrowup","experiment","<div style=""border: 3px solid #000000; position: fixed;left:14%;top:30%""><img src=""visual/plane.png"" width=""300""></div><div style=""border: 3px solid #000000; position: fixed;left:64%;top:30%""><img src=""visual/train.png"" width=""300""></div>",1,"Yes","no","visual/plane.png","visual/train.png","arrowup","non-ortho",1.33,1.9,"low_verbal"
"155",184,225992,"A15T9HDPHV3X7Q",2022-05-19 02:18:12,"rhyme-phon_sim-task_switching-same_different",2830.29999995232,"rhyme","arrowdown","experiment","<div style=""border: 3px solid #000000; position: fixed;left:14%;top:30%""><img src=""visual/bear.png"" width=""300""></div><div style=""border: 3px solid #000000; position: fixed;left:64%;top:30%""><img src=""visual/square_rhyme.png"" width=""300""></div>",0,"Yes","no","visual/bear.png","visual/square_rhyme.png","arrowup","non-ortho",1.33,1.9,"low_verbal"
"156",187,228997,"A15T9HDPHV3X7Q",2022-05-19 02:18:12,"rhyme-phon_sim-task_switching-same_different",1983,"rhyme","arrowdown","experiment","<div style=""border: 3px solid #000000; position: fixed;left:14%;top:30%""><img src=""visual/well.png"" width=""300""></div><div style=""border: 3px solid #000000; position: fixed;left:64%;top:30%""><img src=""visual/rose.png"" width=""300""></div>",1,"Yes","no","visual/well.png","visual/rose.png","arrowdown","NR",1.33,1.9,"low_verbal"
"157",190,231913,"A15T9HDPHV3X7Q",2022-05-19 02:18:12,"rhyme-phon_sim-task_switching-same_different",1640.10000014305,"rhyme","arrowdown","experiment","<div style=""border: 3px solid #000000; position: fixed;left:14%;top:30%""><img src=""visual/drawer.png"" width=""300""></div><div style=""border: 3px solid #000000; position: fixed;left:64%;top:30%""><img src=""visual/chair.png"" width=""300""></div>",1,"Yes","no","visual/drawer.png","visual/chair.png","arrowdown","NR",1.33,1.9,"low_verbal"
"158",193,234550,"A15T9HDPHV3X7Q",2022-05-19 02:18:12,"rhyme-phon_sim-task_switching-same_different",1610.79999995232,"rhyme","arrowup","experiment","<div style=""border: 3px solid #000000; position: fixed;left:14%;top:30%""><img src=""visual/chain.png"" width=""300""></div><div style=""border: 3px solid #000000; position: fixed;left:64%;top:30%""><img src=""visual/brain.png"" width=""300""></div>",1,"Yes","no","visual/chain.png","visual/brain.png","arrowup","ortho",1.33,1.9,"low_verbal"
"159",196,238233,"A15T9HDPHV3X7Q",2022-05-19 02:18:12,"rhyme-phon_sim-task_switching-same_different",2151.30000019073,"rhyme","arrowdown","experiment","<div style=""border: 3px solid #000000; position: fixed;left:14%;top:30%""><img src=""visual/fan.png"" width=""300""></div><div style=""border: 3px solid #000000; position: fixed;left:64%;top:30%""><img src=""visual/man.png"" width=""300""></div>",0,"Yes","no","visual/fan.png","visual/man.png","arrowup","ortho",1.33,1.9,"low_verbal"
"160",1093,2342234,"A1BM57TUNAQIXM",2022-05-19 03:36:11,"task_switching-same_different-rhyme-phon_sim",1333.89999999851,"rhyme","arrowdown","experiment","<div style=""border: 3px solid #000000; position: fixed;left:14%;top:30%""><img src=""visual/jar.png"" width=""300""></div><div style=""border: 3px solid #000000; position: fixed;left:64%;top:30%""><img src=""visual/whale.png"" width=""300""></div>",1,"Yes","None","visual/jar.png","visual/whale.png","arrowdown","NR",2.17,3.6,"low_verbal"
"161",1096,2344042,"A1BM57TUNAQIXM",2022-05-19 03:36:11,"task_switching-same_different-rhyme-phon_sim",1024.10000000149,"rhyme","arrowup","experiment","<div style=""border: 3px solid #000000; position: fixed;left:14%;top:30%""><img src=""visual/eye.png"" width=""300""></div><div style=""border: 3px solid #000000; position: fixed;left:64%;top:30%""><img src=""visual/tie.png"" width=""300""></div>",1,"Yes","None","visual/eye.png","visual/tie.png","arrowup","non-ortho",2.17,3.6,"low_verbal"
"162",1099,2346868,"A1BM57TUNAQIXM",2022-05-19 03:36:11,"task_switching-same_different-rhyme-phon_sim",1300.20000000298,"rhyme","arrowup","experiment","<div style=""border: 3px solid #000000; position: fixed;left:14%;top:30%""><img src=""visual/well.png"" width=""300""></div><div style=""border: 3px solid #000000; position: fixed;left:64%;top:30%""><img src=""visual/bell.png"" width=""300""></div>",1,"Yes","None","visual/well.png","visual/bell.png","arrowup","ortho",2.17,3.6,"low_verbal"
"163",1102,2349395,"A1BM57TUNAQIXM",2022-05-19 03:36:11,"task_switching-same_different-rhyme-phon_sim",1745.29999999702,"rhyme","arrowup","experiment","<div style=""border: 3px solid #000000; position: fixed;left:14%;top:30%""><img src=""visual/bear.png"" width=""300""></div><div style=""border: 3px solid #000000; position: fixed;left:64%;top:30%""><img src=""visual/square_rhyme.png"" width=""300""></div>",1,"Yes","None","visual/bear.png","visual/square_rhyme.png","arrowup","non-ortho",2.17,3.6,"low_verbal"
"164",1105,2351704,"A1BM57TUNAQIXM",2022-05-19 03:36:11,"task_switching-same_different-rhyme-phon_sim",779.10000000149,"rhyme","arrowup","experiment","<div style=""border: 3px solid #000000; position: fixed;left:14%;top:30%""><img src=""visual/key.png"" width=""300""></div><div style=""border: 3px solid #000000; position: fixed;left:64%;top:30%""><img src=""visual/tree.png"" width=""300""></div>",1,"Yes","None","visual/key.png","visual/tree.png","arrowup","non-ortho",2.17,3.6,"low_verbal"
"165",1108,2354129,"A1BM57TUNAQIXM",2022-05-19 03:36:11,"task_switching-same_different-rhyme-phon_sim",1149.5,"rhyme","arrowdown","experiment","<div style=""border: 3px solid #000000; position: fixed;left:14%;top:30%""><img src=""visual/egg.png"" width=""300""></div><div style=""border: 3px solid #000000; position: fixed;left:64%;top:30%""><img src=""visual/leg.png"" width=""300""></div>",0,"Yes","None","visual/egg.png","visual/leg.png","arrowup","ortho",2.17,3.6,"low_verbal"
"166",1111,2357245,"A1BM57TUNAQIXM",2022-05-19 03:36:11,"task_switching-same_different-rhyme-phon_sim",2349.70000000298,"rhyme","arrowdown","experiment","<div style=""border: 3px solid #000000; position: fixed;left:14%;top:30%""><img src=""visual/pope.png"" width=""300""></div><div style=""border: 3px solid #000000; position: fixed;left:64%;top:30%""><img src=""visual/soap.png"" width=""300""></div>",0,"Yes","None","visual/pope.png","visual/soap.png","arrowup","non-ortho",2.17,3.6,"low_verbal"
"167",1114,2359577,"A1BM57TUNAQIXM",2022-05-19 03:36:11,"task_switching-same_different-rhyme-phon_sim",1300.5,"rhyme","arrowup","experiment","<div style=""border: 3px solid #000000; position: fixed;left:14%;top:30%""><img src=""visual/bear.png"" width=""300""></div><div style=""border: 3px solid #000000; position: fixed;left:64%;top:30%""><img src=""visual/hair.png"" width=""300""></div>",1,"Yes","None","visual/bear.png","visual/hair.png","arrowup","non-ortho",2.17,3.6,"low_verbal"
"168",1117,2363500,"A1BM57TUNAQIXM",2022-05-19 03:36:11,"task_switching-same_different-rhyme-phon_sim",2400.29999999702,"rhyme","arrowup","experiment","<div style=""border: 3px solid #000000; position: fixed;left:14%;top:30%""><img src=""visual/chain.png"" width=""300""></div><div style=""border: 3px solid #000000; position: fixed;left:64%;top:30%""><img src=""visual/brain.png"" width=""300""></div>",1,"Yes","None","visual/chain.png","visual/brain.png","arrowup","ortho",2.17,3.6,"low_verbal"
"169",1123,2369526,"A1BM57TUNAQIXM",2022-05-19 03:36:11,"task_switching-same_different-rhyme-phon_sim",2210.79999999702,"rhyme","arrowdown","experiment","<div style=""border: 3px solid #000000; position: fixed;left:14%;top:30%""><img src=""visual/drawer.png"" width=""300""></div><div style=""border: 3px solid #000000; position: fixed;left:64%;top:30%""><img src=""visual/door.png"" width=""300""></div>",0,"Yes","None","visual/drawer.png","visual/door.png","arrowup","non-ortho",2.17,3.6,"low_verbal"
"170",1126,2372359,"A1BM57TUNAQIXM",2022-05-19 03:36:11,"task_switching-same_different-rhyme-phon_sim",1306,"rhyme","arrowup","experiment","<div style=""border: 3px solid #000000; position: fixed;left:14%;top:30%""><img src=""visual/plane.png"" width=""300""></div><div style=""border: 3px solid #000000; position: fixed;left:64%;top:30%""><img src=""visual/train.png"" width=""300""></div>",1,"Yes","None","visual/plane.png","visual/train.png","arrowup","non-ortho",2.17,3.6,"low_verbal"
"171",1132,2378661,"A1BM57TUNAQIXM",2022-05-19 03:36:11,"task_switching-same_different-rhyme-phon_sim",1111.59999999404,"rhyme","arrowdown","experiment","<div style=""border: 3px solid #000000; position: fixed;left:14%;top:30%""><img src=""visual/egg.png"" width=""300""></div><div style=""border: 3px solid #000000; position: fixed;left:64%;top:30%""><img src=""visual/ring.png"" width=""300""></div>",1,"Yes","None","visual/egg.png","visual/ring.png","arrowdown","NR",2.17,3.6,"low_verbal"
"172",1135,2381224,"A1BM57TUNAQIXM",2022-05-19 03:36:11,"task_switching-same_different-rhyme-phon_sim",1039.29999999702,"rhyme","arrowup","experiment","<div style=""border: 3px solid #000000; position: fixed;left:14%;top:30%""><img src=""visual/drum.png"" width=""300""></div><div style=""border: 3px solid #000000; position: fixed;left:64%;top:30%""><img src=""visual/thumb.png"" width=""300""></div>",1,"Yes","None","visual/drum.png","visual/thumb.png","arrowup","non-ortho",2.17,3.6,"low_verbal"
"173",1141,2386765,"A1BM57TUNAQIXM",2022-05-19 03:36:11,"task_switching-same_different-rhyme-phon_sim",1950.5,"rhyme","arrowdown","experiment","<div style=""border: 3px solid #000000; position: fixed;left:14%;top:30%""><img src=""visual/train.png"" width=""300""></div><div style=""border: 3px solid #000000; position: fixed;left:64%;top:30%""><img src=""visual/screw.png"" width=""300""></div>",1,"Yes","None","visual/train.png","visual/screw.png","arrowdown","NR",2.17,3.6,"low_verbal"
"174",1144,2391890,"A1BM57TUNAQIXM",2022-05-19 03:36:11,"task_switching-same_different-rhyme-phon_sim",4348.19999999553,"rhyme","arrowdown","experiment","<div style=""border: 3px solid #000000; position: fixed;left:14%;top:30%""><img src=""visual/nail.png"" width=""300""></div><div style=""border: 3px solid #000000; position: fixed;left:64%;top:30%""><img src=""visual/whale.png"" width=""300""></div>",0,"Yes","None","visual/nail.png","visual/whale.png","arrowup","non-ortho",2.17,3.6,"low_verbal"
"175",1147,2393893,"A1BM57TUNAQIXM",2022-05-19 03:36:11,"task_switching-same_different-rhyme-phon_sim",1243.89999999851,"rhyme","arrowup","experiment","<div style=""border: 3px solid #000000; position: fixed;left:14%;top:30%""><img src=""visual/snail.png"" width=""300""></div><div style=""border: 3px solid #000000; position: fixed;left:64%;top:30%""><img src=""visual/whale.png"" width=""300""></div>",1,"Yes","None","visual/snail.png","visual/whale.png","arrowup","non-ortho",2.17,3.6,"low_verbal"
"176",1150,2396277,"A1BM57TUNAQIXM",2022-05-19 03:36:11,"task_switching-same_different-rhyme-phon_sim",859,"rhyme","arrowup","experiment","<div style=""border: 3px solid #000000; position: fixed;left:14%;top:30%""><img src=""visual/cat.png"" width=""300""></div><div style=""border: 3px solid #000000; position: fixed;left:64%;top:30%""><img src=""visual/hat.png"" width=""300""></div>",1,"Yes","None","visual/cat.png","visual/hat.png","arrowup","ortho",2.17,3.6,"low_verbal"
"177",1153,2398234,"A1BM57TUNAQIXM",2022-05-19 03:36:11,"task_switching-same_different-rhyme-phon_sim",1191.59999999404,"rhyme","arrowup","experiment","<div style=""border: 3px solid #000000; position: fixed;left:14%;top:30%""><img src=""visual/plane.png"" width=""300""></div><div style=""border: 3px solid #000000; position: fixed;left:64%;top:30%""><img src=""visual/chain.png"" width=""300""></div>",1,"Yes","None","visual/plane.png","visual/chain.png","arrowup","non-ortho",2.17,3.6,"low_verbal"
"178",1156,2401025,"A1BM57TUNAQIXM",2022-05-19 03:36:11,"task_switching-same_different-rhyme-phon_sim",1260.80000000447,"rhyme","arrowdown","experiment","<div style=""border: 3px solid #000000; position: fixed;left:14%;top:30%""><img src=""visual/socks.png"" width=""300""></div><div style=""border: 3px solid #000000; position: fixed;left:64%;top:30%""><img src=""visual/fox.png"" width=""300""></div>",0,"Yes","None","visual/socks.png","visual/fox.png","arrowup","non-ortho",2.17,3.6,"low_verbal"
"179",1159,2402911,"A1BM57TUNAQIXM",2022-05-19 03:36:11,"task_switching-same_different-rhyme-phon_sim",873.10000000149,"rhyme","arrowup","experiment","<div style=""border: 3px solid #000000; position: fixed;left:14%;top:30%""><img src=""visual/rose.png"" width=""300""></div><div style=""border: 3px solid #000000; position: fixed;left:64%;top:30%""><img src=""visual/nose.png"" width=""300""></div>",1,"Yes","None","visual/rose.png","visual/nose.png","arrowup","ortho",2.17,3.6,"low_verbal"
"180",1162,2405348,"A1BM57TUNAQIXM",2022-05-19 03:36:11,"task_switching-same_different-rhyme-phon_sim",914.19999999553,"rhyme","arrowdown","experiment","<div style=""border: 3px solid #000000; position: fixed;left:14%;top:30%""><img src=""visual/key.png"" width=""300""></div><div style=""border: 3px solid #000000; position: fixed;left:64%;top:30%""><img src=""visual/snail.png"" width=""300""></div>",1,"Yes","None","visual/key.png","visual/snail.png","arrowdown","NR",2.17,3.6,"low_verbal"
"181",1165,2407674,"A1BM57TUNAQIXM",2022-05-19 03:36:11,"task_switching-same_different-rhyme-phon_sim",1069.19999999553,"rhyme","arrowup","experiment","<div style=""border: 3px solid #000000; position: fixed;left:14%;top:30%""><img src=""visual/star.png"" width=""300""></div><div style=""border: 3px solid #000000; position: fixed;left:64%;top:30%""><img src=""visual/jar.png"" width=""300""></div>",1,"Yes","None","visual/star.png","visual/jar.png","arrowup","ortho",2.17,3.6,"low_verbal"
"182",1168,2409632,"A1BM57TUNAQIXM",2022-05-19 03:36:11,"task_switching-same_different-rhyme-phon_sim",1191.89999999851,"rhyme","arrowdown","experiment","<div style=""border: 3px solid #000000; position: fixed;left:14%;top:30%""><img src=""visual/claw.png"" width=""300""></div><div style=""border: 3px solid #000000; position: fixed;left:64%;top:30%""><img src=""visual/beer.png"" width=""300""></div>",1,"Yes","None","visual/claw.png","visual/beer.png","arrowdown","NR",2.17,3.6,"low_verbal"
"183",1171,2411630,"A1BM57TUNAQIXM",2022-05-19 03:36:11,"task_switching-same_different-rhyme-phon_sim",982.60000000149,"rhyme","arrowdown","experiment","<div style=""border: 3px solid #000000; position: fixed;left:14%;top:30%""><img src=""visual/tree.png"" width=""300""></div><div style=""border: 3px solid #000000; position: fixed;left:64%;top:30%""><img src=""visual/door.png"" width=""300""></div>",1,"Yes","None","visual/tree.png","visual/door.png","arrowdown","NR",2.17,3.6,"low_verbal"
"184",1174,2413324,"A1BM57TUNAQIXM",2022-05-19 03:36:11,"task_switching-same_different-rhyme-phon_sim",923.89999999851,"rhyme","arrowup","experiment","<div style=""border: 3px solid #000000; position: fixed;left:14%;top:30%""><img src=""visual/box.png"" width=""300""></div><div style=""border: 3px solid #000000; position: fixed;left:64%;top:30%""><img src=""visual/fox.png"" width=""300""></div>",1,"Yes","None","visual/box.png","visual/fox.png","arrowup","ortho",2.17,3.6,"low_verbal"
"185",1177,2416566,"A1BM57TUNAQIXM",2022-05-19 03:36:11,"task_switching-same_different-rhyme-phon_sim",1716.89999999851,"rhyme","arrowup","experiment","<div style=""border: 3px solid #000000; position: fixed;left:14%;top:30%""><img src=""visual/bone.png"" width=""300""></div><div style=""border: 3px solid #000000; position: fixed;left:64%;top:30%""><img src=""visual/cone.png"" width=""300""></div>",1,"Yes","None","visual/bone.png","visual/cone.png","arrowup","ortho",2.17,3.6,"low_verbal"
"186",1183,2424207,"A1BM57TUNAQIXM",2022-05-19 03:36:11,"task_switching-same_different-rhyme-phon_sim",2931.5,"rhyme","arrowup","experiment","<div style=""border: 3px solid #000000; position: fixed;left:14%;top:30%""><img src=""visual/saw.png"" width=""300""></div><div style=""border: 3px solid #000000; position: fixed;left:64%;top:30%""><img src=""visual/claw.png"" width=""300""></div>",1,"Yes","None","visual/saw.png","visual/claw.png","arrowup","ortho",2.17,3.6,"low_verbal"
"187",1186,2427111,"A1BM57TUNAQIXM",2022-05-19 03:36:11,"task_switching-same_different-rhyme-phon_sim",1382.10000000149,"rhyme","arrowdown","experiment","<div style=""border: 3px solid #000000; position: fixed;left:14%;top:30%""><img src=""visual/brain.png"" width=""300""></div><div style=""border: 3px solid #000000; position: fixed;left:64%;top:30%""><img src=""visual/clock.png"" width=""300""></div>",1,"Yes","None","visual/brain.png","visual/clock.png","arrowdown","NR",2.17,3.6,"low_verbal"
"188",1189,2429088,"A1BM57TUNAQIXM",2022-05-19 03:36:11,"task_switching-same_different-rhyme-phon_sim",1199,"rhyme","arrowdown","experiment","<div style=""border: 3px solid #000000; position: fixed;left:14%;top:30%""><img src=""visual/drawer.png"" width=""300""></div><div style=""border: 3px solid #000000; position: fixed;left:64%;top:30%""><img src=""visual/chair.png"" width=""300""></div>",1,"Yes","None","visual/drawer.png","visual/chair.png","arrowdown","NR",2.17,3.6,"low_verbal"
"189",1192,2431842,"A1BM57TUNAQIXM",2022-05-19 03:36:11,"task_switching-same_different-rhyme-phon_sim",1244.70000000298,"rhyme","arrowup","experiment","<div style=""border: 3px solid #000000; position: fixed;left:14%;top:30%""><img src=""visual/soap.png"" width=""300""></div><div style=""border: 3px solid #000000; position: fixed;left:64%;top:30%""><img src=""visual/rope.png"" width=""300""></div>",1,"Yes","None","visual/soap.png","visual/rope.png","arrowup","non-ortho",2.17,3.6,"low_verbal"
"190",1195,2434904,"A1BM57TUNAQIXM",2022-05-19 03:36:11,"task_switching-same_different-rhyme-phon_sim",1792.19999999553,"rhyme","arrowdown","experiment","<div style=""border: 3px solid #000000; position: fixed;left:14%;top:30%""><img src=""visual/bear.png"" width=""300""></div><div style=""border: 3px solid #000000; position: fixed;left:64%;top:30%""><img src=""visual/crane.png"" width=""300""></div>",1,"Yes","None","visual/bear.png","visual/crane.png","arrowdown","NR",2.17,3.6,"low_verbal"
"191",1198,2439580,"A1BM57TUNAQIXM",2022-05-19 03:36:11,"task_switching-same_different-rhyme-phon_sim",3149.89999999851,"rhyme","arrowup","experiment","<div style=""border: 3px solid #000000; position: fixed;left:14%;top:30%""><img src=""visual/wheel.png"" width=""300""></div><div style=""border: 3px solid #000000; position: fixed;left:64%;top:30%""><img src=""visual/seal.png"" width=""300""></div>",1,"Yes","None","visual/wheel.png","visual/seal.png","arrowup","non-ortho",2.17,3.6,"low_verbal"
"192",1201,2441603,"A1BM57TUNAQIXM",2022-05-19 03:36:11,"task_switching-same_different-rhyme-phon_sim",738.10000000149,"rhyme","arrowup","experiment","<div style=""border: 3px solid #000000; position: fixed;left:14%;top:30%""><img src=""visual/nose.png"" width=""300""></div><div style=""border: 3px solid #000000; position: fixed;left:64%;top:30%""><img src=""visual/bell.png"" width=""300""></div>",0,"Yes","None","visual/nose.png","visual/bell.png","arrowdown","NR",2.17,3.6,"low_verbal"
"193",1204,2444182,"A1BM57TUNAQIXM",2022-05-19 03:36:11,"task_switching-same_different-rhyme-phon_sim",1052.60000000149,"rhyme","arrowup","experiment","<div style=""border: 3px solid #000000; position: fixed;left:14%;top:30%""><img src=""visual/chair.png"" width=""300""></div><div style=""border: 3px solid #000000; position: fixed;left:64%;top:30%""><img src=""visual/pear.png"" width=""300""></div>",1,"Yes","None","visual/chair.png","visual/pear.png","arrowup","non-ortho",2.17,3.6,"low_verbal"
"194",1207,2446864,"A1BM57TUNAQIXM",2022-05-19 03:36:11,"task_switching-same_different-rhyme-phon_sim",1659.39999999851,"rhyme","arrowdown","experiment","<div style=""border: 3px solid #000000; position: fixed;left:14%;top:30%""><img src=""visual/soap.png"" width=""300""></div><div style=""border: 3px solid #000000; position: fixed;left:64%;top:30%""><img src=""visual/shoe.png"" width=""300""></div>",1,"Yes","None","visual/soap.png","visual/shoe.png","arrowdown","NR",2.17,3.6,"low_verbal"
"195",1210,2450058,"A1BM57TUNAQIXM",2022-05-19 03:36:11,"task_switching-same_different-rhyme-phon_sim",1676.69999999553,"rhyme","arrowdown","experiment","<div style=""border: 3px solid #000000; position: fixed;left:14%;top:30%""><img src=""visual/dart.png"" width=""300""></div><div style=""border: 3px solid #000000; position: fixed;left:64%;top:30%""><img src=""visual/tie.png"" width=""300""></div>",1,"Yes","None","visual/dart.png","visual/tie.png","arrowdown","NR",2.17,3.6,"low_verbal"
"196",1213,2452590,"A1BM57TUNAQIXM",2022-05-19 03:36:11,"task_switching-same_different-rhyme-phon_sim",1755.79999999702,"rhyme","arrowdown","experiment","<div style=""border: 3px solid #000000; position: fixed;left:14%;top:30%""><img src=""visual/fly.png"" width=""300""></div><div style=""border: 3px solid #000000; position: fixed;left:64%;top:30%""><img src=""visual/plane.png"" width=""300""></div>",1,"Yes","None","visual/fly.png","visual/plane.png","arrowdown","NR",2.17,3.6,"low_verbal"
"197",1216,2455948,"A1BM57TUNAQIXM",2022-05-19 03:36:11,"task_switching-same_different-rhyme-phon_sim",1845.20000000298,"rhyme","arrowdown","experiment","<div style=""border: 3px solid #000000; position: fixed;left:14%;top:30%""><img src=""visual/spoon.png"" width=""300""></div><div style=""border: 3px solid #000000; position: fixed;left:64%;top:30%""><img src=""visual/moon.png"" width=""300""></div>",0,"Yes","None","visual/spoon.png","visual/moon.png","arrowup","ortho",2.17,3.6,"low_verbal"
