"","worker_id","condition","trial_index","time_elapsed","start_time","experiment_order","rt","experiment","stimulus","answer","correct","operation","symbol_cue","color_cue","talk_out_loud","strategy_free_ans","VerbalScored","VisualScored","high_low_verbal","correct_if_add","correct_if_subtract","list_completion","operation_used","correct_operation","correct_arithmetic","switching_is_correct"
"1","A10JXOU89D5RXR","uncued",234,600633,2022-05-18 15:11:54,"task_switching-rhyme-same_different-phon_sim",2310.09999999404,"task_switching",73,76,1,"add",NA,NA,"Yes","no",3.25,4.4,"low_verbal",76,70,78.6108000001609,"add",1,1,1
"2","A10JXOU89D5RXR","uncued",235,602744,2022-05-18 15:11:54,"task_switching-rhyme-same_different-phon_sim",2107.09999999404,"task_switching",33,30,1,"subtract",NA,NA,"Yes","no",3.25,4.4,"low_verbal",36,30,78.6108000001609,"subtract",1,1,1
"3","A10JXOU89D5RXR","uncued",236,604384,2022-05-18 15:11:54,"task_switching-rhyme-same_different-phon_sim",1636.20000001788,"task_switching",27,30,1,"add",NA,NA,"Yes","no",3.25,4.4,"low_verbal",30,24,78.6108000001609,"add",1,1,1
"4","A10JXOU89D5RXR","uncued",237,607840,2022-05-18 15:11:54,"task_switching-rhyme-same_different-phon_sim",3452.59999999404,"task_switching",89,86,1,"subtract",NA,NA,"Yes","no",3.25,4.4,"low_verbal",92,86,78.6108000001609,"subtract",1,1,1
"5","A10JXOU89D5RXR","uncued",238,609568,2022-05-18 15:11:54,"task_switching-rhyme-same_different-phon_sim",1723,"task_switching",15,18,1,"add",NA,NA,"Yes","no",3.25,4.4,"low_verbal",18,12,78.6108000001609,"add",1,1,1
"6","A10JXOU89D5RXR","uncued",239,612002,2022-05-18 15:11:54,"task_switching-rhyme-same_different-phon_sim",2426.30000001192,"task_switching",78,75,1,"subtract",NA,NA,"Yes","no",3.25,4.4,"low_verbal",81,75,78.6108000001609,"subtract",1,1,1
"7","A10JXOU89D5RXR","uncued",240,613681,2022-05-18 15:11:54,"task_switching-rhyme-same_different-phon_sim",1674.40000000596,"task_switching",87,90,1,"add",NA,NA,"Yes","no",3.25,4.4,"low_verbal",90,84,78.6108000001609,"add",1,1,1
"8","A10JXOU89D5RXR","uncued",241,615521,2022-05-18 15:11:54,"task_switching-rhyme-same_different-phon_sim",1833.59999999404,"task_switching",83,80,1,"subtract",NA,NA,"Yes","no",3.25,4.4,"low_verbal",86,80,78.6108000001609,"subtract",1,1,1
"9","A10JXOU89D5RXR","uncued",242,617841,2022-05-18 15:11:54,"task_switching-rhyme-same_different-phon_sim",2316.30000001192,"task_switching",34,37,1,"add",NA,NA,"Yes","no",3.25,4.4,"low_verbal",37,31,78.6108000001609,"add",1,1,1
"10","A10JXOU89D5RXR","uncued",243,623032,2022-05-18 15:11:54,"task_switching-rhyme-same_different-phon_sim",5188.40000000596,"task_switching",49,46,1,"subtract",NA,NA,"Yes","no",3.25,4.4,"low_verbal",52,46,78.6108000001609,"subtract",1,1,1
"11","A10JXOU89D5RXR","uncued",244,624817,2022-05-18 15:11:54,"task_switching-rhyme-same_different-phon_sim",1780,"task_switching",30,33,1,"add",NA,NA,"Yes","no",3.25,4.4,"low_verbal",33,27,78.6108000001609,"add",1,1,1
"12","A10JXOU89D5RXR","uncued",245,626729,2022-05-18 15:11:54,"task_switching-rhyme-same_different-phon_sim",1908.20000001788,"task_switching",69,66,1,"subtract",NA,NA,"Yes","no",3.25,4.4,"low_verbal",72,66,78.6108000001609,"subtract",1,1,1
"13","A10JXOU89D5RXR","uncued",246,628672,2022-05-18 15:11:54,"task_switching-rhyme-same_different-phon_sim",1936.5,"task_switching",38,41,1,"add",NA,NA,"Yes","no",3.25,4.4,"low_verbal",41,35,78.6108000001609,"add",1,1,1
"14","A10JXOU89D5RXR","uncued",247,631416,2022-05-18 15:11:54,"task_switching-rhyme-same_different-phon_sim",2738.80000001192,"task_switching",81,78,1,"subtract",NA,NA,"Yes","no",3.25,4.4,"low_verbal",84,78,78.6108000001609,"subtract",1,1,1
"15","A10JXOU89D5RXR","uncued",248,640474,2022-05-18 15:11:54,"task_switching-rhyme-same_different-phon_sim",9053.59999999404,"task_switching",61,64,1,"add",NA,NA,"Yes","no",3.25,4.4,"low_verbal",64,58,78.6108000001609,"add",1,1,1
"16","A10JXOU89D5RXR","uncued",249,642537,2022-05-18 15:11:54,"task_switching-rhyme-same_different-phon_sim",2058.30000001192,"task_switching",25,22,1,"subtract",NA,NA,"Yes","no",3.25,4.4,"low_verbal",28,22,78.6108000001609,"subtract",1,1,1
"17","A10JXOU89D5RXR","uncued",250,646760,2022-05-18 15:11:54,"task_switching-rhyme-same_different-phon_sim",4219,"task_switching",36,39,1,"add",NA,NA,"Yes","no",3.25,4.4,"low_verbal",39,33,78.6108000001609,"add",1,1,1
"18","A10JXOU89D5RXR","uncued",251,649097,2022-05-18 15:11:54,"task_switching-rhyme-same_different-phon_sim",2331.70000001788,"task_switching",75,72,1,"subtract",NA,NA,"Yes","no",3.25,4.4,"low_verbal",78,72,78.6108000001609,"subtract",1,1,1
"19","A10JXOU89D5RXR","uncued",252,651009,2022-05-18 15:11:54,"task_switching-rhyme-same_different-phon_sim",1906.5,"task_switching",32,35,1,"add",NA,NA,"Yes","no",3.25,4.4,"low_verbal",35,29,78.6108000001609,"add",1,1,1
"20","A10JXOU89D5RXR","uncued",253,654113,2022-05-18 15:11:54,"task_switching-rhyme-same_different-phon_sim",3100.40000000596,"task_switching",59,56,1,"subtract",NA,NA,"Yes","no",3.25,4.4,"low_verbal",62,56,78.6108000001609,"subtract",1,1,1
"21","A10JXOU89D5RXR","uncued",254,657362,2022-05-18 15:11:54,"task_switching-rhyme-same_different-phon_sim",3244.29999998212,"task_switching",19,22,1,"add",NA,NA,"Yes","no",3.25,4.4,"low_verbal",22,16,78.6108000001609,"add",1,1,1
"22","A10JXOU89D5RXR","uncued",255,659651,2022-05-18 15:11:54,"task_switching-rhyme-same_different-phon_sim",2282.30000001192,"task_switching",77,74,1,"subtract",NA,NA,"Yes","no",3.25,4.4,"low_verbal",80,74,78.6108000001609,"subtract",1,1,1
"23","A10JXOU89D5RXR","uncued",256,661497,2022-05-18 15:11:54,"task_switching-rhyme-same_different-phon_sim",1842.70000001788,"task_switching",18,21,1,"add",NA,NA,"Yes","no",3.25,4.4,"low_verbal",21,15,78.6108000001609,"add",1,1,1
"24","A10JXOU89D5RXR","uncued",257,663770,2022-05-18 15:11:54,"task_switching-rhyme-same_different-phon_sim",2268.70000001788,"task_switching",56,53,1,"subtract",NA,NA,"Yes","no",3.25,4.4,"low_verbal",59,53,78.6108000001609,"subtract",1,1,1
"25","A10JXOU89D5RXR","uncued",258,666105,2022-05-18 15:11:54,"task_switching-rhyme-same_different-phon_sim",2330.5,"task_switching",35,38,1,"add",NA,NA,"Yes","no",3.25,4.4,"low_verbal",38,32,78.6108000001609,"add",1,1,1
"26","A10JXOU89D5RXR","uncued",259,668193,2022-05-18 15:11:54,"task_switching-rhyme-same_different-phon_sim",2081.5,"task_switching",66,63,1,"subtract",NA,NA,"Yes","no",3.25,4.4,"low_verbal",69,63,78.6108000001609,"subtract",1,1,1
"27","A10JXOU89D5RXR","uncued",260,669977,2022-05-18 15:11:54,"task_switching-rhyme-same_different-phon_sim",1779.80000001192,"task_switching",71,74,1,"add",NA,NA,"Yes","no",3.25,4.4,"low_verbal",74,68,78.6108000001609,"add",1,1,1
"28","A10JXOU89D5RXR","uncued",261,672802,2022-05-18 15:11:54,"task_switching-rhyme-same_different-phon_sim",2819.80000001192,"task_switching",55,52,1,"subtract",NA,NA,"Yes","no",3.25,4.4,"low_verbal",58,52,78.6108000001609,"subtract",1,1,1
"29","A10JXOU89D5RXR","uncued",262,674994,2022-05-18 15:11:54,"task_switching-rhyme-same_different-phon_sim",2188.20000001788,"task_switching",68,71,1,"add",NA,NA,"Yes","no",3.25,4.4,"low_verbal",71,65,78.6108000001609,"add",1,1,1
"30","A10JXOU89D5RXR","uncued",263,677073,2022-05-18 15:11:54,"task_switching-rhyme-same_different-phon_sim",2072,"task_switching",64,61,1,"subtract",NA,NA,"Yes","no",3.25,4.4,"low_verbal",67,61,78.6108000001609,"subtract",1,1,1
"31","A12HZGOZQD5YK7","uncued",182,437044,2022-05-31 13:49:12,"task_switching-phon_sim-same_different-rhyme",3642.69999992847,"task_switching",86,89,1,"add",NA,NA,"No","I just added and subtracted and took my time when having to switch back and forth from adding and subtracting.",2.58,3.8,"low_verbal",89,83,73.9006999999285,"add",1,1,1
"32","A12HZGOZQD5YK7","uncued",183,441800,2022-05-31 13:49:12,"task_switching-phon_sim-same_different-rhyme",4754.39999997616,"task_switching",21,18,1,"subtract",NA,NA,"No","I just added and subtracted and took my time when having to switch back and forth from adding and subtracting.",2.58,3.8,"low_verbal",24,18,73.9006999999285,"subtract",1,1,1
"33","A12HZGOZQD5YK7","uncued",184,443150,2022-05-31 13:49:12,"task_switching-phon_sim-same_different-rhyme",1348.10000002384,"task_switching",30,33,1,"add",NA,NA,"No","I just added and subtracted and took my time when having to switch back and forth from adding and subtracting.",2.58,3.8,"low_verbal",33,27,73.9006999999285,"add",1,1,1
"34","A12HZGOZQD5YK7","uncued",185,445890,2022-05-31 13:49:12,"task_switching-phon_sim-same_different-rhyme",2738.89999997616,"task_switching",95,92,1,"subtract",NA,NA,"No","I just added and subtracted and took my time when having to switch back and forth from adding and subtracting.",2.58,3.8,"low_verbal",98,92,73.9006999999285,"subtract",1,1,1
"35","A12HZGOZQD5YK7","uncued",186,448147,2022-05-31 13:49:12,"task_switching-phon_sim-same_different-rhyme",2255.29999995232,"task_switching",32,35,1,"add",NA,NA,"No","I just added and subtracted and took my time when having to switch back and forth from adding and subtracting.",2.58,3.8,"low_verbal",35,29,73.9006999999285,"add",1,1,1
"36","A12HZGOZQD5YK7","uncued",187,449691,2022-05-31 13:49:12,"task_switching-phon_sim-same_different-rhyme",1543,"task_switching",73,70,1,"subtract",NA,NA,"No","I just added and subtracted and took my time when having to switch back and forth from adding and subtracting.",2.58,3.8,"low_verbal",76,70,73.9006999999285,"subtract",1,1,1
"37","A12HZGOZQD5YK7","uncued",188,451428,2022-05-31 13:49:12,"task_switching-phon_sim-same_different-rhyme",1735.10000002384,"task_switching",76,79,1,"add",NA,NA,"No","I just added and subtracted and took my time when having to switch back and forth from adding and subtracting.",2.58,3.8,"low_verbal",79,73,73.9006999999285,"add",1,1,1
"38","A12HZGOZQD5YK7","uncued",189,453350,2022-05-31 13:49:12,"task_switching-phon_sim-same_different-rhyme",1919.90000009537,"task_switching",69,66,1,"subtract",NA,NA,"No","I just added and subtracted and took my time when having to switch back and forth from adding and subtracting.",2.58,3.8,"low_verbal",72,66,73.9006999999285,"subtract",1,1,1
"39","A12HZGOZQD5YK7","uncued",190,456604,2022-05-31 13:49:12,"task_switching-phon_sim-same_different-rhyme",3251.79999995232,"task_switching",17,20,1,"add",NA,NA,"No","I just added and subtracted and took my time when having to switch back and forth from adding and subtracting.",2.58,3.8,"low_verbal",20,14,73.9006999999285,"add",1,1,1
"40","A12HZGOZQD5YK7","uncued",191,458311,2022-05-31 13:49:12,"task_switching-phon_sim-same_different-rhyme",1705.79999995232,"task_switching",88,85,1,"subtract",NA,NA,"No","I just added and subtracted and took my time when having to switch back and forth from adding and subtracting.",2.58,3.8,"low_verbal",91,85,73.9006999999285,"subtract",1,1,1
"41","A12HZGOZQD5YK7","uncued",192,460310,2022-05-31 13:49:12,"task_switching-phon_sim-same_different-rhyme",1997.10000002384,"task_switching",37,40,1,"add",NA,NA,"No","I just added and subtracted and took my time when having to switch back and forth from adding and subtracting.",2.58,3.8,"low_verbal",40,34,73.9006999999285,"add",1,1,1
"42","A12HZGOZQD5YK7","uncued",193,464721,2022-05-31 13:49:12,"task_switching-phon_sim-same_different-rhyme",4409.79999995232,"task_switching",91,88,1,"subtract",NA,NA,"No","I just added and subtracted and took my time when having to switch back and forth from adding and subtracting.",2.58,3.8,"low_verbal",94,88,73.9006999999285,"subtract",1,1,1
"43","A12HZGOZQD5YK7","uncued",194,467134,2022-05-31 13:49:12,"task_switching-phon_sim-same_different-rhyme",2411.30000007153,"task_switching",46,49,1,"add",NA,NA,"No","I just added and subtracted and took my time when having to switch back and forth from adding and subtracting.",2.58,3.8,"low_verbal",49,43,73.9006999999285,"add",1,1,1
"44","A12HZGOZQD5YK7","uncued",195,469442,2022-05-31 13:49:12,"task_switching-phon_sim-same_different-rhyme",2306.20000004768,"task_switching",20,17,1,"subtract",NA,NA,"No","I just added and subtracted and took my time when having to switch back and forth from adding and subtracting.",2.58,3.8,"low_verbal",23,17,73.9006999999285,"subtract",1,1,1
"45","A12HZGOZQD5YK7","uncued",196,471717,2022-05-31 13:49:12,"task_switching-phon_sim-same_different-rhyme",2273.60000002384,"task_switching",81,84,1,"add",NA,NA,"No","I just added and subtracted and took my time when having to switch back and forth from adding and subtracting.",2.58,3.8,"low_verbal",84,78,73.9006999999285,"add",1,1,1
"46","A12HZGOZQD5YK7","uncued",197,476061,2022-05-31 13:49:12,"task_switching-phon_sim-same_different-rhyme",4342.69999992847,"task_switching",67,64,1,"subtract",NA,NA,"No","I just added and subtracted and took my time when having to switch back and forth from adding and subtracting.",2.58,3.8,"low_verbal",70,64,73.9006999999285,"subtract",1,1,1
"47","A12HZGOZQD5YK7","uncued",198,477675,2022-05-31 13:49:12,"task_switching-phon_sim-same_different-rhyme",1612.89999997616,"task_switching",70,73,1,"add",NA,NA,"No","I just added and subtracted and took my time when having to switch back and forth from adding and subtracting.",2.58,3.8,"low_verbal",73,67,73.9006999999285,"add",1,1,1
"48","A12HZGOZQD5YK7","uncued",199,479901,2022-05-31 13:49:12,"task_switching-phon_sim-same_different-rhyme",2223.89999997616,"task_switching",54,51,1,"subtract",NA,NA,"No","I just added and subtracted and took my time when having to switch back and forth from adding and subtracting.",2.58,3.8,"low_verbal",57,51,73.9006999999285,"subtract",1,1,1
"49","A12HZGOZQD5YK7","uncued",200,481497,2022-05-31 13:49:12,"task_switching-phon_sim-same_different-rhyme",1594.89999997616,"task_switching",40,43,1,"add",NA,NA,"No","I just added and subtracted and took my time when having to switch back and forth from adding and subtracting.",2.58,3.8,"low_verbal",43,37,73.9006999999285,"add",1,1,1
"50","A12HZGOZQD5YK7","uncued",201,483243,2022-05-31 13:49:12,"task_switching-phon_sim-same_different-rhyme",1744.39999997616,"task_switching",19,16,1,"subtract",NA,NA,"No","I just added and subtracted and took my time when having to switch back and forth from adding and subtracting.",2.58,3.8,"low_verbal",22,16,73.9006999999285,"subtract",1,1,1
"51","A12HZGOZQD5YK7","uncued",202,484767,2022-05-31 13:49:12,"task_switching-phon_sim-same_different-rhyme",1521.40000009537,"task_switching",13,16,1,"add",NA,NA,"No","I just added and subtracted and took my time when having to switch back and forth from adding and subtracting.",2.58,3.8,"low_verbal",16,10,73.9006999999285,"add",1,1,1
"52","A12HZGOZQD5YK7","uncued",203,486496,2022-05-31 13:49:12,"task_switching-phon_sim-same_different-rhyme",1727.20000004768,"task_switching",24,21,1,"subtract",NA,NA,"No","I just added and subtracted and took my time when having to switch back and forth from adding and subtracting.",2.58,3.8,"low_verbal",27,21,73.9006999999285,"subtract",1,1,1
"53","A12HZGOZQD5YK7","uncued",204,488506,2022-05-31 13:49:12,"task_switching-phon_sim-same_different-rhyme",2008.10000002384,"task_switching",26,29,1,"add",NA,NA,"No","I just added and subtracted and took my time when having to switch back and forth from adding and subtracting.",2.58,3.8,"low_verbal",29,23,73.9006999999285,"add",1,1,1
"54","A12HZGOZQD5YK7","uncued",205,491143,2022-05-31 13:49:12,"task_switching-phon_sim-same_different-rhyme",2635.79999995232,"task_switching",47,44,1,"subtract",NA,NA,"No","I just added and subtracted and took my time when having to switch back and forth from adding and subtracting.",2.58,3.8,"low_verbal",50,44,73.9006999999285,"subtract",1,1,1
"55","A12HZGOZQD5YK7","uncued",206,493493,2022-05-31 13:49:12,"task_switching-phon_sim-same_different-rhyme",2348,"task_switching",27,30,1,"add",NA,NA,"No","I just added and subtracted and took my time when having to switch back and forth from adding and subtracting.",2.58,3.8,"low_verbal",30,24,73.9006999999285,"add",1,1,1
"56","A12HZGOZQD5YK7","uncued",207,497157,2022-05-31 13:49:12,"task_switching-phon_sim-same_different-rhyme",3662.79999995232,"task_switching",22,19,1,"subtract",NA,NA,"No","I just added and subtracted and took my time when having to switch back and forth from adding and subtracting.",2.58,3.8,"low_verbal",25,19,73.9006999999285,"subtract",1,1,1
"57","A12HZGOZQD5YK7","uncued",208,500029,2022-05-31 13:49:12,"task_switching-phon_sim-same_different-rhyme",2870.29999995232,"task_switching",71,74,1,"add",NA,NA,"No","I just added and subtracted and took my time when having to switch back and forth from adding and subtracting.",2.58,3.8,"low_verbal",74,68,73.9006999999285,"add",1,1,1
"58","A12HZGOZQD5YK7","uncued",209,502659,2022-05-31 13:49:12,"task_switching-phon_sim-same_different-rhyme",2626.89999997616,"task_switching",92,89,1,"subtract",NA,NA,"No","I just added and subtracted and took my time when having to switch back and forth from adding and subtracting.",2.58,3.8,"low_verbal",95,89,73.9006999999285,"subtract",1,1,1
"59","A12HZGOZQD5YK7","uncued",210,504422,2022-05-31 13:49:12,"task_switching-phon_sim-same_different-rhyme",1760.80000007153,"task_switching",57,60,1,"add",NA,NA,"No","I just added and subtracted and took my time when having to switch back and forth from adding and subtracting.",2.58,3.8,"low_verbal",60,54,73.9006999999285,"add",1,1,1
"60","A12HZGOZQD5YK7","uncued",211,507351,2022-05-31 13:49:12,"task_switching-phon_sim-same_different-rhyme",2927.60000002384,"task_switching",41,38,1,"subtract",NA,NA,"No","I just added and subtracted and took my time when having to switch back and forth from adding and subtracting.",2.58,3.8,"low_verbal",44,38,73.9006999999285,"subtract",1,1,1
"61","A15T9HDPHV3X7Q","uncued",438,1129734,2022-05-19 02:18:12,"rhyme-phon_sim-task_switching-same_different",1487.10000014305,"task_switching",17,20,1,"add",NA,NA,"No","no",1.33,1.9,"low_verbal",20,14,62.4236000013351,"add",1,1,1
"62","A15T9HDPHV3X7Q","uncued",439,1131742,2022-05-19 02:18:12,"rhyme-phon_sim-task_switching-same_different",2005.59999990463,"task_switching",92,89,1,"subtract",NA,NA,"No","no",1.33,1.9,"low_verbal",95,89,62.4236000013351,"subtract",1,1,1
"63","A15T9HDPHV3X7Q","uncued",440,1133226,2022-05-19 02:18:12,"rhyme-phon_sim-task_switching-same_different",1482.70000004768,"task_switching",73,76,1,"add",NA,NA,"No","no",1.33,1.9,"low_verbal",76,70,62.4236000013351,"add",1,1,1
"64","A15T9HDPHV3X7Q","uncued",441,1135132,2022-05-19 02:18:12,"rhyme-phon_sim-task_switching-same_different",1903.70000004768,"task_switching",91,88,1,"subtract",NA,NA,"No","no",1.33,1.9,"low_verbal",94,88,62.4236000013351,"subtract",1,1,1
"65","A15T9HDPHV3X7Q","uncued",442,1136500,2022-05-19 02:18:12,"rhyme-phon_sim-task_switching-same_different",1366.60000014305,"task_switching",41,44,1,"add",NA,NA,"No","no",1.33,1.9,"low_verbal",44,38,62.4236000013351,"add",1,1,1
"66","A15T9HDPHV3X7Q","uncued",443,1138836,2022-05-19 02:18:12,"rhyme-phon_sim-task_switching-same_different",2335,"task_switching",24,21,1,"subtract",NA,NA,"No","no",1.33,1.9,"low_verbal",27,21,62.4236000013351,"subtract",1,1,1
"67","A15T9HDPHV3X7Q","uncued",444,1140800,2022-05-19 02:18:12,"rhyme-phon_sim-task_switching-same_different",1962.5,"task_switching",95,98,1,"add",NA,NA,"No","no",1.33,1.9,"low_verbal",98,92,62.4236000013351,"add",1,1,1
"68","A15T9HDPHV3X7Q","uncued",445,1142796,2022-05-19 02:18:12,"rhyme-phon_sim-task_switching-same_different",1993.30000019073,"task_switching",19,16,1,"subtract",NA,NA,"No","no",1.33,1.9,"low_verbal",22,16,62.4236000013351,"subtract",1,1,1
"69","A15T9HDPHV3X7Q","uncued",446,1145288,2022-05-19 02:18:12,"rhyme-phon_sim-task_switching-same_different",2491,"task_switching",58,61,1,"add",NA,NA,"No","no",1.33,1.9,"low_verbal",61,55,62.4236000013351,"add",1,1,1
"70","A15T9HDPHV3X7Q","uncued",447,1147086,2022-05-19 02:18:12,"rhyme-phon_sim-task_switching-same_different",1796.10000014305,"task_switching",46,43,1,"subtract",NA,NA,"No","no",1.33,1.9,"low_verbal",49,43,62.4236000013351,"subtract",1,1,1
"71","A15T9HDPHV3X7Q","uncued",448,1148674,2022-05-19 02:18:12,"rhyme-phon_sim-task_switching-same_different",1586.20000004768,"task_switching",56,59,1,"add",NA,NA,"No","no",1.33,1.9,"low_verbal",59,53,62.4236000013351,"add",1,1,1
"72","A15T9HDPHV3X7Q","uncued",449,1150422,2022-05-19 02:18:12,"rhyme-phon_sim-task_switching-same_different",1746.10000014305,"task_switching",93,90,1,"subtract",NA,NA,"No","no",1.33,1.9,"low_verbal",96,90,62.4236000013351,"subtract",1,1,1
"73","A15T9HDPHV3X7Q","uncued",450,1157051,2022-05-19 02:18:12,"rhyme-phon_sim-task_switching-same_different",6626.89999985695,"task_switching",27,30,1,"add",NA,NA,"No","no",1.33,1.9,"low_verbal",30,24,62.4236000013351,"add",1,1,1
"74","A15T9HDPHV3X7Q","uncued",451,1158680,2022-05-19 02:18:12,"rhyme-phon_sim-task_switching-same_different",1626.90000009537,"task_switching",52,49,1,"subtract",NA,NA,"No","no",1.33,1.9,"low_verbal",55,49,62.4236000013351,"subtract",1,1,1
"75","A15T9HDPHV3X7Q","uncued",452,1160223,2022-05-19 02:18:12,"rhyme-phon_sim-task_switching-same_different",1541.10000014305,"task_switching",64,67,1,"add",NA,NA,"No","no",1.33,1.9,"low_verbal",67,61,62.4236000013351,"add",1,1,1
"76","A15T9HDPHV3X7Q","uncued",453,1161715,2022-05-19 02:18:12,"rhyme-phon_sim-task_switching-same_different",1490.79999995232,"task_switching",45,42,1,"subtract",NA,NA,"No","no",1.33,1.9,"low_verbal",48,42,62.4236000013351,"subtract",1,1,1
"77","A15T9HDPHV3X7Q","uncued",454,1163652,2022-05-19 02:18:12,"rhyme-phon_sim-task_switching-same_different",1934.5,"task_switching",30,33,1,"add",NA,NA,"No","no",1.33,1.9,"low_verbal",33,27,62.4236000013351,"add",1,1,1
"78","A15T9HDPHV3X7Q","uncued",455,1166087,2022-05-19 02:18:12,"rhyme-phon_sim-task_switching-same_different",2433.40000009537,"task_switching",76,73,1,"subtract",NA,NA,"No","no",1.33,1.9,"low_verbal",79,73,62.4236000013351,"subtract",1,1,1
"79","A15T9HDPHV3X7Q","uncued",456,1167793,2022-05-19 02:18:12,"rhyme-phon_sim-task_switching-same_different",1704.5,"task_switching",28,31,1,"add",NA,NA,"No","no",1.33,1.9,"low_verbal",31,25,62.4236000013351,"add",1,1,1
"80","A15T9HDPHV3X7Q","uncued",457,1170182,2022-05-19 02:18:12,"rhyme-phon_sim-task_switching-same_different",2387.09999990463,"task_switching",55,52,1,"subtract",NA,NA,"No","no",1.33,1.9,"low_verbal",58,52,62.4236000013351,"subtract",1,1,1
"81","A15T9HDPHV3X7Q","uncued",458,1171682,2022-05-19 02:18:12,"rhyme-phon_sim-task_switching-same_different",1498.79999995232,"task_switching",21,24,1,"add",NA,NA,"No","no",1.33,1.9,"low_verbal",24,18,62.4236000013351,"add",1,1,1
"82","A15T9HDPHV3X7Q","uncued",459,1173425,2022-05-19 02:18:12,"rhyme-phon_sim-task_switching-same_different",1741.69999980927,"task_switching",18,15,1,"subtract",NA,NA,"No","no",1.33,1.9,"low_verbal",21,15,62.4236000013351,"subtract",1,1,1
"83","A15T9HDPHV3X7Q","uncued",460,1175503,2022-05-19 02:18:12,"rhyme-phon_sim-task_switching-same_different",2076.20000004768,"task_switching",13,16,1,"add",NA,NA,"No","no",1.33,1.9,"low_verbal",16,10,62.4236000013351,"add",1,1,1
"84","A15T9HDPHV3X7Q","uncued",461,1177158,2022-05-19 02:18:12,"rhyme-phon_sim-task_switching-same_different",1653.40000009537,"task_switching",35,32,1,"subtract",NA,NA,"No","no",1.33,1.9,"low_verbal",38,32,62.4236000013351,"subtract",1,1,1
"85","A15T9HDPHV3X7Q","uncued",462,1179021,2022-05-19 02:18:12,"rhyme-phon_sim-task_switching-same_different",1860.40000009537,"task_switching",66,69,1,"add",NA,NA,"No","no",1.33,1.9,"low_verbal",69,63,62.4236000013351,"add",1,1,1
"86","A15T9HDPHV3X7Q","uncued",463,1182589,2022-05-19 02:18:12,"rhyme-phon_sim-task_switching-same_different",3566.10000014305,"task_switching",68,95,0,"subtract",NA,NA,"No","no",1.33,1.9,"low_verbal",71,65,62.4236000013351,"add",0,0,0
"87","A15T9HDPHV3X7Q","uncued",464,1184534,2022-05-19 02:18:12,"rhyme-phon_sim-task_switching-same_different",1943.20000004768,"task_switching",44,47,1,"add",NA,NA,"No","no",1.33,1.9,"low_verbal",47,41,62.4236000013351,"add",1,1,0
"88","A15T9HDPHV3X7Q","uncued",465,1187218,2022-05-19 02:18:12,"rhyme-phon_sim-task_switching-same_different",2682.40000009537,"task_switching",81,78,1,"subtract",NA,NA,"No","no",1.33,1.9,"low_verbal",84,78,62.4236000013351,"subtract",1,1,1
"89","A15T9HDPHV3X7Q","uncued",466,1188751,2022-05-19 02:18:12,"rhyme-phon_sim-task_switching-same_different",1531.40000009537,"task_switching",90,93,1,"add",NA,NA,"No","no",1.33,1.9,"low_verbal",93,87,62.4236000013351,"add",1,1,1
"90","A15T9HDPHV3X7Q","uncued",467,1190721,2022-05-19 02:18:12,"rhyme-phon_sim-task_switching-same_different",1968.90000009537,"task_switching",50,47,1,"subtract",NA,NA,"No","no",1.33,1.9,"low_verbal",53,47,62.4236000013351,"subtract",1,1,1
"91","A1BM57TUNAQIXM","uncued",234,1011587,2022-05-19 03:36:11,"task_switching-same_different-rhyme-phon_sim",1969.79999999702,"task_switching",83,86,1,"add",NA,NA,"Yes","I mentally also told myself red means add, red means add to not forget what red and blue meant.",2.17,3.6,"low_verbal",86,80,77.6465,"add",1,1,1
"92","A1BM57TUNAQIXM","uncued",235,1013084,2022-05-19 03:36:11,"task_switching-same_different-rhyme-phon_sim",1491.69999999553,"task_switching",24,21,1,"subtract",NA,NA,"Yes","I mentally also told myself red means add, red means add to not forget what red and blue meant.",2.17,3.6,"low_verbal",27,21,77.6465,"subtract",1,1,1
"93","A1BM57TUNAQIXM","uncued",236,1014488,2022-05-19 03:36:11,"task_switching-same_different-rhyme-phon_sim",1397.10000000149,"task_switching",15,18,1,"add",NA,NA,"Yes","I mentally also told myself red means add, red means add to not forget what red and blue meant.",2.17,3.6,"low_verbal",18,12,77.6465,"add",1,1,1
"94","A1BM57TUNAQIXM","uncued",237,1016042,2022-05-19 03:36:11,"task_switching-same_different-rhyme-phon_sim",1549.40000000596,"task_switching",40,37,1,"subtract",NA,NA,"Yes","I mentally also told myself red means add, red means add to not forget what red and blue meant.",2.17,3.6,"low_verbal",43,37,77.6465,"subtract",1,1,1
"95","A1BM57TUNAQIXM","uncued",238,1017981,2022-05-19 03:36:11,"task_switching-same_different-rhyme-phon_sim",1936.89999999851,"task_switching",91,94,1,"add",NA,NA,"Yes","I mentally also told myself red means add, red means add to not forget what red and blue meant.",2.17,3.6,"low_verbal",94,88,77.6465,"add",1,1,1
"96","A1BM57TUNAQIXM","uncued",239,1020891,2022-05-19 03:36:11,"task_switching-same_different-rhyme-phon_sim",2907.5,"task_switching",31,28,1,"subtract",NA,NA,"Yes","I mentally also told myself red means add, red means add to not forget what red and blue meant.",2.17,3.6,"low_verbal",34,28,77.6465,"subtract",1,1,1
"97","A1BM57TUNAQIXM","uncued",240,1022669,2022-05-19 03:36:11,"task_switching-same_different-rhyme-phon_sim",1772.60000000149,"task_switching",81,84,1,"add",NA,NA,"Yes","I mentally also told myself red means add, red means add to not forget what red and blue meant.",2.17,3.6,"low_verbal",84,78,77.6465,"add",1,1,1
"98","A1BM57TUNAQIXM","uncued",241,1026719,2022-05-19 03:36:11,"task_switching-same_different-rhyme-phon_sim",4044.10000000149,"task_switching",82,79,1,"subtract",NA,NA,"Yes","I mentally also told myself red means add, red means add to not forget what red and blue meant.",2.17,3.6,"low_verbal",85,79,77.6465,"subtract",1,1,1
"99","A1BM57TUNAQIXM","uncued",242,1031398,2022-05-19 03:36:11,"task_switching-same_different-rhyme-phon_sim",4673.30000000447,"task_switching",95,98,1,"add",NA,NA,"Yes","I mentally also told myself red means add, red means add to not forget what red and blue meant.",2.17,3.6,"low_verbal",98,92,77.6465,"add",1,1,1
"100","A1BM57TUNAQIXM","uncued",243,1034913,2022-05-19 03:36:11,"task_switching-same_different-rhyme-phon_sim",3511.5,"task_switching",47,44,1,"subtract",NA,NA,"Yes","I mentally also told myself red means add, red means add to not forget what red and blue meant.",2.17,3.6,"low_verbal",50,44,77.6465,"subtract",1,1,1
"101","A1BM57TUNAQIXM","uncued",244,1037294,2022-05-19 03:36:11,"task_switching-same_different-rhyme-phon_sim",2375.79999999702,"task_switching",55,58,1,"add",NA,NA,"Yes","I mentally also told myself red means add, red means add to not forget what red and blue meant.",2.17,3.6,"low_verbal",58,52,77.6465,"add",1,1,1
"102","A1BM57TUNAQIXM","uncued",245,1039278,2022-05-19 03:36:11,"task_switching-same_different-rhyme-phon_sim",1982,"task_switching",45,42,1,"subtract",NA,NA,"Yes","I mentally also told myself red means add, red means add to not forget what red and blue meant.",2.17,3.6,"low_verbal",48,42,77.6465,"subtract",1,1,1
"103","A1BM57TUNAQIXM","uncued",246,1043253,2022-05-19 03:36:11,"task_switching-same_different-rhyme-phon_sim",3973.5,"task_switching",64,67,1,"add",NA,NA,"Yes","I mentally also told myself red means add, red means add to not forget what red and blue meant.",2.17,3.6,"low_verbal",67,61,77.6465,"add",1,1,1
"104","A1BM57TUNAQIXM","uncued",247,1045570,2022-05-19 03:36:11,"task_switching-same_different-rhyme-phon_sim",2314.79999999702,"task_switching",14,11,1,"subtract",NA,NA,"Yes","I mentally also told myself red means add, red means add to not forget what red and blue meant.",2.17,3.6,"low_verbal",17,11,77.6465,"subtract",1,1,1
"105","A1BM57TUNAQIXM","uncued",248,1050929,2022-05-19 03:36:11,"task_switching-same_different-rhyme-phon_sim",5353.10000000149,"task_switching",75,78,1,"add",NA,NA,"Yes","I mentally also told myself red means add, red means add to not forget what red and blue meant.",2.17,3.6,"low_verbal",78,72,77.6465,"add",1,1,1
"106","A1BM57TUNAQIXM","uncued",249,1052852,2022-05-19 03:36:11,"task_switching-same_different-rhyme-phon_sim",1917,"task_switching",26,23,1,"subtract",NA,NA,"Yes","I mentally also told myself red means add, red means add to not forget what red and blue meant.",2.17,3.6,"low_verbal",29,23,77.6465,"subtract",1,1,1
"107","A1BM57TUNAQIXM","uncued",250,1055573,2022-05-19 03:36:11,"task_switching-same_different-rhyme-phon_sim",2715.29999999702,"task_switching",18,21,1,"add",NA,NA,"Yes","I mentally also told myself red means add, red means add to not forget what red and blue meant.",2.17,3.6,"low_verbal",21,15,77.6465,"add",1,1,1
"108","A1BM57TUNAQIXM","uncued",251,1060452,2022-05-19 03:36:11,"task_switching-same_different-rhyme-phon_sim",4875.19999999553,"task_switching",49,46,1,"subtract",NA,NA,"Yes","I mentally also told myself red means add, red means add to not forget what red and blue meant.",2.17,3.6,"low_verbal",52,46,77.6465,"subtract",1,1,1
"109","A1BM57TUNAQIXM","uncued",252,1062644,2022-05-19 03:36:11,"task_switching-same_different-rhyme-phon_sim",2189.60000000149,"task_switching",74,77,1,"add",NA,NA,"Yes","I mentally also told myself red means add, red means add to not forget what red and blue meant.",2.17,3.6,"low_verbal",77,71,77.6465,"add",1,1,1
"110","A1BM57TUNAQIXM","uncued",253,1064192,2022-05-19 03:36:11,"task_switching-same_different-rhyme-phon_sim",1543.29999999702,"task_switching",34,31,1,"subtract",NA,NA,"Yes","I mentally also told myself red means add, red means add to not forget what red and blue meant.",2.17,3.6,"low_verbal",37,31,77.6465,"subtract",1,1,1
"111","A1BM57TUNAQIXM","uncued",254,1066543,2022-05-19 03:36:11,"task_switching-same_different-rhyme-phon_sim",2348.60000000149,"task_switching",25,28,1,"add",NA,NA,"Yes","I mentally also told myself red means add, red means add to not forget what red and blue meant.",2.17,3.6,"low_verbal",28,22,77.6465,"add",1,1,1
"112","A1BM57TUNAQIXM","uncued",255,1069541,2022-05-19 03:36:11,"task_switching-same_different-rhyme-phon_sim",2995.70000000298,"task_switching",51,48,1,"subtract",NA,NA,"Yes","I mentally also told myself red means add, red means add to not forget what red and blue meant.",2.17,3.6,"low_verbal",54,48,77.6465,"subtract",1,1,1
"113","A1BM57TUNAQIXM","uncued",256,1071190,2022-05-19 03:36:11,"task_switching-same_different-rhyme-phon_sim",1647.70000000298,"task_switching",30,33,1,"add",NA,NA,"Yes","I mentally also told myself red means add, red means add to not forget what red and blue meant.",2.17,3.6,"low_verbal",33,27,77.6465,"add",1,1,1
"114","A1BM57TUNAQIXM","uncued",257,1075218,2022-05-19 03:36:11,"task_switching-same_different-rhyme-phon_sim",4026.30000000447,"task_switching",69,66,1,"subtract",NA,NA,"Yes","I mentally also told myself red means add, red means add to not forget what red and blue meant.",2.17,3.6,"low_verbal",72,66,77.6465,"subtract",1,1,1
"115","A1BM57TUNAQIXM","uncued",258,1077530,2022-05-19 03:36:11,"task_switching-same_different-rhyme-phon_sim",2307.89999999851,"task_switching",37,40,1,"add",NA,NA,"Yes","I mentally also told myself red means add, red means add to not forget what red and blue meant.",2.17,3.6,"low_verbal",40,34,77.6465,"add",1,1,1
"116","A1BM57TUNAQIXM","uncued",259,1079865,2022-05-19 03:36:11,"task_switching-same_different-rhyme-phon_sim",2329.5,"task_switching",86,83,1,"subtract",NA,NA,"Yes","I mentally also told myself red means add, red means add to not forget what red and blue meant.",2.17,3.6,"low_verbal",89,83,77.6465,"subtract",1,1,1
"117","A1BM57TUNAQIXM","uncued",260,1081550,2022-05-19 03:36:11,"task_switching-same_different-rhyme-phon_sim",1679.10000000149,"task_switching",28,31,1,"add",NA,NA,"Yes","I mentally also told myself red means add, red means add to not forget what red and blue meant.",2.17,3.6,"low_verbal",31,25,77.6465,"add",1,1,1
"118","A1BM57TUNAQIXM","uncued",261,1083179,2022-05-19 03:36:11,"task_switching-same_different-rhyme-phon_sim",1624.89999999851,"task_switching",85,82,1,"subtract",NA,NA,"Yes","I mentally also told myself red means add, red means add to not forget what red and blue meant.",2.17,3.6,"low_verbal",88,82,77.6465,"subtract",1,1,1
"119","A1BM57TUNAQIXM","uncued",262,1085177,2022-05-19 03:36:11,"task_switching-same_different-rhyme-phon_sim",1997,"task_switching",92,95,1,"add",NA,NA,"Yes","I mentally also told myself red means add, red means add to not forget what red and blue meant.",2.17,3.6,"low_verbal",95,89,77.6465,"add",1,1,1
"120","A1BM57TUNAQIXM","uncued",263,1087376,2022-05-19 03:36:11,"task_switching-same_different-rhyme-phon_sim",2196.29999999702,"task_switching",65,62,1,"subtract",NA,NA,"Yes","I mentally also told myself red means add, red means add to not forget what red and blue meant.",2.17,3.6,"low_verbal",68,62,77.6465,"subtract",1,1,1
"121","A1CB72B51L7TKE","uncued",130,1826628,2022-05-23 17:54:51,"task_switching-rhyme-phon_sim-same_different",1877,"task_switching",39,42,1,"add",NA,NA,"Yes","The only one that I really needed a strategy for was talking out loud ""RED ADD BLUE SUBTRACT""",4.67,4.3,"high_verbal",42,36,59.4869999999404,"add",1,1,1
"122","A1CB72B51L7TKE","uncued",131,1828669,2022-05-23 17:54:51,"task_switching-rhyme-phon_sim-same_different",2037.10000002384,"task_switching",56,53,1,"subtract",NA,NA,"Yes","The only one that I really needed a strategy for was talking out loud ""RED ADD BLUE SUBTRACT""",4.67,4.3,"high_verbal",59,53,59.4869999999404,"subtract",1,1,1
"123","A1CB72B51L7TKE","uncued",132,1830628,2022-05-23 17:54:51,"task_switching-rhyme-phon_sim-same_different",1952.80000001192,"task_switching",54,57,1,"add",NA,NA,"Yes","The only one that I really needed a strategy for was talking out loud ""RED ADD BLUE SUBTRACT""",4.67,4.3,"high_verbal",57,51,59.4869999999404,"add",1,1,1
"124","A1CB72B51L7TKE","uncued",133,1832477,2022-05-23 17:54:51,"task_switching-rhyme-phon_sim-same_different",1845,"task_switching",75,72,1,"subtract",NA,NA,"Yes","The only one that I really needed a strategy for was talking out loud ""RED ADD BLUE SUBTRACT""",4.67,4.3,"high_verbal",78,72,59.4869999999404,"subtract",1,1,1
"125","A1CB72B51L7TKE","uncued",134,1834845,2022-05-23 17:54:51,"task_switching-rhyme-phon_sim-same_different",2363,"task_switching",88,91,1,"add",NA,NA,"Yes","The only one that I really needed a strategy for was talking out loud ""RED ADD BLUE SUBTRACT""",4.67,4.3,"high_verbal",91,85,59.4869999999404,"add",1,1,1
"126","A1CB72B51L7TKE","uncued",135,1836814,2022-05-23 17:54:51,"task_switching-rhyme-phon_sim-same_different",1964.70000004768,"task_switching",58,55,1,"subtract",NA,NA,"Yes","The only one that I really needed a strategy for was talking out loud ""RED ADD BLUE SUBTRACT""",4.67,4.3,"high_verbal",61,55,59.4869999999404,"subtract",1,1,1
"127","A1CB72B51L7TKE","uncued",136,1838796,2022-05-23 17:54:51,"task_switching-rhyme-phon_sim-same_different",1977.80000001192,"task_switching",46,49,1,"add",NA,NA,"Yes","The only one that I really needed a strategy for was talking out loud ""RED ADD BLUE SUBTRACT""",4.67,4.3,"high_verbal",49,43,59.4869999999404,"add",1,1,1
"128","A1CB72B51L7TKE","uncued",137,1840596,2022-05-23 17:54:51,"task_switching-rhyme-phon_sim-same_different",1796.79999995232,"task_switching",77,74,1,"subtract",NA,NA,"Yes","The only one that I really needed a strategy for was talking out loud ""RED ADD BLUE SUBTRACT""",4.67,4.3,"high_verbal",80,74,59.4869999999404,"subtract",1,1,1
"129","A1CB72B51L7TKE","uncued",138,1843221,2022-05-23 17:54:51,"task_switching-rhyme-phon_sim-same_different",2620.79999995232,"task_switching",32,35,1,"add",NA,NA,"Yes","The only one that I really needed a strategy for was talking out loud ""RED ADD BLUE SUBTRACT""",4.67,4.3,"high_verbal",35,29,59.4869999999404,"add",1,1,1
"130","A1CB72B51L7TKE","uncued",139,1845325,2022-05-23 17:54:51,"task_switching-rhyme-phon_sim-same_different",2100.59999996424,"task_switching",61,58,1,"subtract",NA,NA,"Yes","The only one that I really needed a strategy for was talking out loud ""RED ADD BLUE SUBTRACT""",4.67,4.3,"high_verbal",64,58,59.4869999999404,"subtract",1,1,1
"131","A1CB72B51L7TKE","uncued",140,1847125,2022-05-23 17:54:51,"task_switching-rhyme-phon_sim-same_different",1795.5,"task_switching",14,17,1,"add",NA,NA,"Yes","The only one that I really needed a strategy for was talking out loud ""RED ADD BLUE SUBTRACT""",4.67,4.3,"high_verbal",17,11,59.4869999999404,"add",1,1,1
"132","A1CB72B51L7TKE","uncued",141,1848676,2022-05-23 17:54:51,"task_switching-rhyme-phon_sim-same_different",1543.80000001192,"task_switching",55,52,1,"subtract",NA,NA,"Yes","The only one that I really needed a strategy for was talking out loud ""RED ADD BLUE SUBTRACT""",4.67,4.3,"high_verbal",58,52,59.4869999999404,"subtract",1,1,1
"133","A1CB72B51L7TKE","uncued",142,1850468,2022-05-23 17:54:51,"task_switching-rhyme-phon_sim-same_different",1789.19999998808,"task_switching",87,90,1,"add",NA,NA,"Yes","The only one that I really needed a strategy for was talking out loud ""RED ADD BLUE SUBTRACT""",4.67,4.3,"high_verbal",90,84,59.4869999999404,"add",1,1,1
"134","A1CB72B51L7TKE","uncued",143,1852820,2022-05-23 17:54:51,"task_switching-rhyme-phon_sim-same_different",2348.80000001192,"task_switching",85,82,1,"subtract",NA,NA,"Yes","The only one that I really needed a strategy for was talking out loud ""RED ADD BLUE SUBTRACT""",4.67,4.3,"high_verbal",88,82,59.4869999999404,"subtract",1,1,1
"135","A1CB72B51L7TKE","uncued",144,1854237,2022-05-23 17:54:51,"task_switching-rhyme-phon_sim-same_different",1413.39999997616,"task_switching",19,22,1,"add",NA,NA,"Yes","The only one that I really needed a strategy for was talking out loud ""RED ADD BLUE SUBTRACT""",4.67,4.3,"high_verbal",22,16,59.4869999999404,"add",1,1,1
"136","A1CB72B51L7TKE","uncued",145,1856053,2022-05-23 17:54:51,"task_switching-rhyme-phon_sim-same_different",1813,"task_switching",93,90,1,"subtract",NA,NA,"Yes","The only one that I really needed a strategy for was talking out loud ""RED ADD BLUE SUBTRACT""",4.67,4.3,"high_verbal",96,90,59.4869999999404,"subtract",1,1,1
"137","A1CB72B51L7TKE","uncued",146,1858093,2022-05-23 17:54:51,"task_switching-rhyme-phon_sim-same_different",2036.39999997616,"task_switching",47,50,1,"add",NA,NA,"Yes","The only one that I really needed a strategy for was talking out loud ""RED ADD BLUE SUBTRACT""",4.67,4.3,"high_verbal",50,44,59.4869999999404,"add",1,1,1
"138","A1CB72B51L7TKE","uncued",147,1860012,2022-05-23 17:54:51,"task_switching-rhyme-phon_sim-same_different",1917.10000002384,"task_switching",89,86,1,"subtract",NA,NA,"Yes","The only one that I really needed a strategy for was talking out loud ""RED ADD BLUE SUBTRACT""",4.67,4.3,"high_verbal",92,86,59.4869999999404,"subtract",1,1,1
"139","A1CB72B51L7TKE","uncued",148,1861804,2022-05-23 17:54:51,"task_switching-rhyme-phon_sim-same_different",1787.5,"task_switching",86,89,1,"add",NA,NA,"Yes","The only one that I really needed a strategy for was talking out loud ""RED ADD BLUE SUBTRACT""",4.67,4.3,"high_verbal",89,83,59.4869999999404,"add",1,1,1
"140","A1CB72B51L7TKE","uncued",149,1863933,2022-05-23 17:54:51,"task_switching-rhyme-phon_sim-same_different",2125.19999998808,"task_switching",64,61,1,"subtract",NA,NA,"Yes","The only one that I really needed a strategy for was talking out loud ""RED ADD BLUE SUBTRACT""",4.67,4.3,"high_verbal",67,61,59.4869999999404,"subtract",1,1,1
"141","A1CB72B51L7TKE","uncued",150,1866140,2022-05-23 17:54:51,"task_switching-rhyme-phon_sim-same_different",2201.30000001192,"task_switching",34,37,1,"add",NA,NA,"Yes","The only one that I really needed a strategy for was talking out loud ""RED ADD BLUE SUBTRACT""",4.67,4.3,"high_verbal",37,31,59.4869999999404,"add",1,1,1
"142","A1CB72B51L7TKE","uncued",151,1867917,2022-05-23 17:54:51,"task_switching-rhyme-phon_sim-same_different",1772.30000001192,"task_switching",33,30,1,"subtract",NA,NA,"Yes","The only one that I really needed a strategy for was talking out loud ""RED ADD BLUE SUBTRACT""",4.67,4.3,"high_verbal",36,30,59.4869999999404,"subtract",1,1,1
"143","A1CB72B51L7TKE","uncued",152,1869716,2022-05-23 17:54:51,"task_switching-rhyme-phon_sim-same_different",1797,"task_switching",44,47,1,"add",NA,NA,"Yes","The only one that I really needed a strategy for was talking out loud ""RED ADD BLUE SUBTRACT""",4.67,4.3,"high_verbal",47,41,59.4869999999404,"add",1,1,1
"144","A1CB72B51L7TKE","uncued",153,1871220,2022-05-23 17:54:51,"task_switching-rhyme-phon_sim-same_different",1501,"task_switching",15,12,1,"subtract",NA,NA,"Yes","The only one that I really needed a strategy for was talking out loud ""RED ADD BLUE SUBTRACT""",4.67,4.3,"high_verbal",18,12,59.4869999999404,"subtract",1,1,1
"145","A1CB72B51L7TKE","uncued",154,1873764,2022-05-23 17:54:51,"task_switching-rhyme-phon_sim-same_different",2539.39999997616,"task_switching",82,85,1,"add",NA,NA,"Yes","The only one that I really needed a strategy for was talking out loud ""RED ADD BLUE SUBTRACT""",4.67,4.3,"high_verbal",85,79,59.4869999999404,"add",1,1,1
"146","A1CB72B51L7TKE","uncued",155,1875862,2022-05-23 17:54:51,"task_switching-rhyme-phon_sim-same_different",2093.60000002384,"task_switching",45,42,1,"subtract",NA,NA,"Yes","The only one that I really needed a strategy for was talking out loud ""RED ADD BLUE SUBTRACT""",4.67,4.3,"high_verbal",48,42,59.4869999999404,"subtract",1,1,1
"147","A1CB72B51L7TKE","uncued",156,1878069,2022-05-23 17:54:51,"task_switching-rhyme-phon_sim-same_different",2201.19999998808,"task_switching",84,87,1,"add",NA,NA,"Yes","The only one that I really needed a strategy for was talking out loud ""RED ADD BLUE SUBTRACT""",4.67,4.3,"high_verbal",87,81,59.4869999999404,"add",1,1,1
"148","A1CB72B51L7TKE","uncued",157,1879909,2022-05-23 17:54:51,"task_switching-rhyme-phon_sim-same_different",1836.89999997616,"task_switching",22,19,1,"subtract",NA,NA,"Yes","The only one that I really needed a strategy for was talking out loud ""RED ADD BLUE SUBTRACT""",4.67,4.3,"high_verbal",25,19,59.4869999999404,"subtract",1,1,1
"149","A1CB72B51L7TKE","uncued",158,1882365,2022-05-23 17:54:51,"task_switching-rhyme-phon_sim-same_different",2452.69999998808,"task_switching",81,84,1,"add",NA,NA,"Yes","The only one that I really needed a strategy for was talking out loud ""RED ADD BLUE SUBTRACT""",4.67,4.3,"high_verbal",84,78,59.4869999999404,"add",1,1,1
"150","A1CB72B51L7TKE","uncued",159,1884357,2022-05-23 17:54:51,"task_switching-rhyme-phon_sim-same_different",1986.10000002384,"task_switching",83,80,1,"subtract",NA,NA,"Yes","The only one that I really needed a strategy for was talking out loud ""RED ADD BLUE SUBTRACT""",4.67,4.3,"high_verbal",86,80,59.4869999999404,"subtract",1,1,1
"151","A1CFMY4CEYOM8Y","uncued",379,631700,2022-05-18 16:39:34,"rhyme-task_switching-same_different-phon_sim",4319.19999999925,"task_switching",66,69,1,"add",NA,NA,"No","no",2.92,4.2,"low_verbal",69,63,71.5642000000142,"add",1,1,1
"152","A1CFMY4CEYOM8Y","uncued",380,633420,2022-05-18 16:39:34,"rhyme-task_switching-same_different-phon_sim",1718.5,"task_switching",75,72,1,"subtract",NA,NA,"No","no",2.92,4.2,"low_verbal",78,72,71.5642000000142,"subtract",1,1,1
"153","A1CFMY4CEYOM8Y","uncued",381,637284,2022-05-18 16:39:34,"rhyme-task_switching-same_different-phon_sim",3863,"task_switching",28,31,1,"add",NA,NA,"No","no",2.92,4.2,"low_verbal",31,25,71.5642000000142,"add",1,1,1
"154","A1CFMY4CEYOM8Y","uncued",382,639244,2022-05-18 16:39:34,"rhyme-task_switching-same_different-phon_sim",1958.80000000075,"task_switching",56,53,1,"subtract",NA,NA,"No","no",2.92,4.2,"low_verbal",59,53,71.5642000000142,"subtract",1,1,1
"155","A1CFMY4CEYOM8Y","uncued",383,641796,2022-05-18 16:39:34,"rhyme-task_switching-same_different-phon_sim",2550.30000000075,"task_switching",67,70,1,"add",NA,NA,"No","no",2.92,4.2,"low_verbal",70,64,71.5642000000142,"add",1,1,1
"156","A1CFMY4CEYOM8Y","uncued",384,643900,2022-05-18 16:39:34,"rhyme-task_switching-same_different-phon_sim",2102.70000000298,"task_switching",17,14,1,"subtract",NA,NA,"No","no",2.92,4.2,"low_verbal",20,14,71.5642000000142,"subtract",1,1,1
"157","A1CFMY4CEYOM8Y","uncued",385,646332,2022-05-18 16:39:34,"rhyme-task_switching-same_different-phon_sim",2430.5,"task_switching",76,79,1,"add",NA,NA,"No","no",2.92,4.2,"low_verbal",79,73,71.5642000000142,"add",1,1,1
"158","A1CFMY4CEYOM8Y","uncued",386,648124,2022-05-18 16:39:34,"rhyme-task_switching-same_different-phon_sim",1790.80000000075,"task_switching",79,76,1,"subtract",NA,NA,"No","no",2.92,4.2,"low_verbal",82,76,71.5642000000142,"subtract",1,1,1
"159","A1CFMY4CEYOM8Y","uncued",387,650900,2022-05-18 16:39:34,"rhyme-task_switching-same_different-phon_sim",2774.60000000149,"task_switching",74,77,1,"add",NA,NA,"No","no",2.92,4.2,"low_verbal",77,71,71.5642000000142,"add",1,1,1
"160","A1CFMY4CEYOM8Y","uncued",388,653516,2022-05-18 16:39:34,"rhyme-task_switching-same_different-phon_sim",2614.60000000149,"task_switching",50,47,1,"subtract",NA,NA,"No","no",2.92,4.2,"low_verbal",53,47,71.5642000000142,"subtract",1,1,1
"161","A1CFMY4CEYOM8Y","uncued",389,655868,2022-05-18 16:39:34,"rhyme-task_switching-same_different-phon_sim",2350.60000000149,"task_switching",51,54,1,"add",NA,NA,"No","no",2.92,4.2,"low_verbal",54,48,71.5642000000142,"add",1,1,1
"162","A1CFMY4CEYOM8Y","uncued",390,659108,2022-05-18 16:39:34,"rhyme-task_switching-same_different-phon_sim",3238.80000000075,"task_switching",31,28,1,"subtract",NA,NA,"No","no",2.92,4.2,"low_verbal",34,28,71.5642000000142,"subtract",1,1,1
"163","A1CFMY4CEYOM8Y","uncued",391,662196,2022-05-18 16:39:34,"rhyme-task_switching-same_different-phon_sim",3086.5,"task_switching",34,37,1,"add",NA,NA,"No","no",2.92,4.2,"low_verbal",37,31,71.5642000000142,"add",1,1,1
"164","A1CFMY4CEYOM8Y","uncued",392,664324,2022-05-18 16:39:34,"rhyme-task_switching-same_different-phon_sim",2126.80000000075,"task_switching",53,50,1,"subtract",NA,NA,"No","no",2.92,4.2,"low_verbal",56,50,71.5642000000142,"subtract",1,1,1
"165","A1CFMY4CEYOM8Y","uncued",393,666892,2022-05-18 16:39:34,"rhyme-task_switching-same_different-phon_sim",2566.80000000075,"task_switching",22,25,1,"add",NA,NA,"No","no",2.92,4.2,"low_verbal",25,19,71.5642000000142,"add",1,1,1
"166","A1CFMY4CEYOM8Y","uncued",394,668932,2022-05-18 16:39:34,"rhyme-task_switching-same_different-phon_sim",2038.70000000298,"task_switching",71,74,0,"subtract",NA,NA,"No","no",2.92,4.2,"low_verbal",74,68,71.5642000000142,"add",0,1,0
"167","A1CFMY4CEYOM8Y","uncued",395,671724,2022-05-18 16:39:34,"rhyme-task_switching-same_different-phon_sim",2790.80000000075,"task_switching",36,39,1,"add",NA,NA,"No","no",2.92,4.2,"low_verbal",39,33,71.5642000000142,"add",1,1,0
"168","A1CFMY4CEYOM8Y","uncued",397,688419,2022-05-18 16:39:34,"rhyme-task_switching-same_different-phon_sim",1390.80000000075,"task_switching",46,43,0,"subtract",NA,NA,"No","no",2.92,4.2,"low_verbal",49,43,71.5642000000142,"subtract",1,1,1
"169","A1CFMY4CEYOM8Y","uncued",398,690356,2022-05-18 16:39:34,"rhyme-task_switching-same_different-phon_sim",1935.09999999776,"task_switching",38,41,0,"add",NA,NA,"No","no",2.92,4.2,"low_verbal",41,35,71.5642000000142,"add",1,1,1
"170","A1CFMY4CEYOM8Y","uncued",403,700276,2022-05-18 16:39:34,"rhyme-task_switching-same_different-phon_sim",1982.89999999851,"task_switching",39,36,0,"subtract",NA,NA,"No","no",2.92,4.2,"low_verbal",42,36,71.5642000000142,"subtract",1,1,0
"171","A1CFMY4CEYOM8Y","uncued",404,702028,2022-05-18 16:39:34,"rhyme-task_switching-same_different-phon_sim",1750.89999999851,"task_switching",81,84,0,"add",NA,NA,"No","no",2.92,4.2,"low_verbal",84,78,71.5642000000142,"add",1,1,1
"172","A1DUPOUC9RNU4L","uncued",1300,5431398,2022-05-19 10:57:08,"rhyme-phon_sim-same_different-task_switching",3518,"task_switching",80,83,1,"add",NA,NA,"Yes","Just intent focus and speaking the rules",2.25,3.7,"low_verbal",83,77,114.11199999994,"add",1,1,1
"173","A1DUPOUC9RNU4L","uncued",1301,5436154,2022-05-19 10:57:08,"rhyme-phon_sim-same_different-task_switching",4754,"task_switching",40,37,1,"subtract",NA,NA,"Yes","Just intent focus and speaking the rules",2.25,3.7,"low_verbal",43,37,114.11199999994,"subtract",1,1,1
"174","A1DUPOUC9RNU4L","uncued",1302,5439994,2022-05-19 10:57:08,"rhyme-phon_sim-same_different-task_switching",3837.69999998808,"task_switching",63,66,1,"add",NA,NA,"Yes","Just intent focus and speaking the rules",2.25,3.7,"low_verbal",66,60,114.11199999994,"add",1,1,1
"175","A1DUPOUC9RNU4L","uncued",1303,5444062,2022-05-19 10:57:08,"rhyme-phon_sim-same_different-task_switching",4064.79999995232,"task_switching",28,25,1,"subtract",NA,NA,"Yes","Just intent focus and speaking the rules",2.25,3.7,"low_verbal",31,25,114.11199999994,"subtract",1,1,1
"176","A1DUPOUC9RNU4L","uncued",1304,5446898,2022-05-19 10:57:08,"rhyme-phon_sim-same_different-task_switching",2833.89999997616,"task_switching",74,79,0,"add",NA,NA,"Yes","Just intent focus and speaking the rules",2.25,3.7,"low_verbal",77,71,114.11199999994,"add",1,0,0
"177","A1DUPOUC9RNU4L","uncued",1305,5449534,2022-05-19 10:57:08,"rhyme-phon_sim-same_different-task_switching",2634,"task_switching",83,80,1,"subtract",NA,NA,"Yes","Just intent focus and speaking the rules",2.25,3.7,"low_verbal",86,80,114.11199999994,"subtract",1,1,1
"178","A1DUPOUC9RNU4L","uncued",1306,5455118,2022-05-19 10:57:08,"rhyme-phon_sim-same_different-task_switching",5581.10000002384,"task_switching",24,27,1,"add",NA,NA,"Yes","Just intent focus and speaking the rules",2.25,3.7,"low_verbal",27,21,114.11199999994,"add",1,1,1
"179","A1DUPOUC9RNU4L","uncued",1307,5458722,2022-05-19 10:57:08,"rhyme-phon_sim-same_different-task_switching",3601.90000003576,"task_switching",91,88,1,"subtract",NA,NA,"Yes","Just intent focus and speaking the rules",2.25,3.7,"low_verbal",94,88,114.11199999994,"subtract",1,1,1
"180","A1DUPOUC9RNU4L","uncued",1308,5462327,2022-05-19 10:57:08,"rhyme-phon_sim-same_different-task_switching",3603.80000001192,"task_switching",23,26,1,"add",NA,NA,"Yes","Just intent focus and speaking the rules",2.25,3.7,"low_verbal",26,20,114.11199999994,"add",1,1,1
"181","A1DUPOUC9RNU4L","uncued",1309,5466282,2022-05-19 10:57:08,"rhyme-phon_sim-same_different-task_switching",3951.89999997616,"task_switching",30,27,1,"subtract",NA,NA,"Yes","Just intent focus and speaking the rules",2.25,3.7,"low_verbal",33,27,114.11199999994,"subtract",1,1,1
"182","A1DUPOUC9RNU4L","uncued",1310,5471525,2022-05-19 10:57:08,"rhyme-phon_sim-same_different-task_switching",5241.89999997616,"task_switching",73,76,1,"add",NA,NA,"Yes","Just intent focus and speaking the rules",2.25,3.7,"low_verbal",76,70,114.11199999994,"add",1,1,1
"183","A1DUPOUC9RNU4L","uncued",1311,5475574,2022-05-19 10:57:08,"rhyme-phon_sim-same_different-task_switching",4044.69999998808,"task_switching",48,45,1,"subtract",NA,NA,"Yes","Just intent focus and speaking the rules",2.25,3.7,"low_verbal",51,45,114.11199999994,"subtract",1,1,1
"184","A1DUPOUC9RNU4L","uncued",1312,5480119,2022-05-19 10:57:08,"rhyme-phon_sim-same_different-task_switching",4543.80000001192,"task_switching",71,74,1,"add",NA,NA,"Yes","Just intent focus and speaking the rules",2.25,3.7,"low_verbal",74,68,114.11199999994,"add",1,1,1
"185","A1DUPOUC9RNU4L","uncued",1313,5483479,2022-05-19 10:57:08,"rhyme-phon_sim-same_different-task_switching",3357.80000001192,"task_switching",45,43,0,"subtract",NA,NA,"Yes","Just intent focus and speaking the rules",2.25,3.7,"low_verbal",48,42,114.11199999994,"subtract",1,0,0
"186","A1DUPOUC9RNU4L","uncued",1314,5486646,2022-05-19 10:57:08,"rhyme-phon_sim-same_different-task_switching",3164.30000001192,"task_switching",27,30,1,"add",NA,NA,"Yes","Just intent focus and speaking the rules",2.25,3.7,"low_verbal",30,24,114.11199999994,"add",1,1,1
"187","A1DUPOUC9RNU4L","uncued",1315,5489719,2022-05-19 10:57:08,"rhyme-phon_sim-same_different-task_switching",3071.60000002384,"task_switching",84,81,1,"subtract",NA,NA,"Yes","Just intent focus and speaking the rules",2.25,3.7,"low_verbal",87,81,114.11199999994,"subtract",1,1,1
"188","A1DUPOUC9RNU4L","uncued",1316,5494599,2022-05-19 10:57:08,"rhyme-phon_sim-same_different-task_switching",4877.80000001192,"task_switching",81,84,1,"add",NA,NA,"Yes","Just intent focus and speaking the rules",2.25,3.7,"low_verbal",84,78,114.11199999994,"add",1,1,1
"189","A1DUPOUC9RNU4L","uncued",1317,5498043,2022-05-19 10:57:08,"rhyme-phon_sim-same_different-task_switching",3441.90000003576,"task_switching",35,32,1,"subtract",NA,NA,"Yes","Just intent focus and speaking the rules",2.25,3.7,"low_verbal",38,32,114.11199999994,"subtract",1,1,1
"190","A1DUPOUC9RNU4L","uncued",1318,5501393,2022-05-19 10:57:08,"rhyme-phon_sim-same_different-task_switching",3348,"task_switching",46,49,1,"add",NA,NA,"Yes","Just intent focus and speaking the rules",2.25,3.7,"low_verbal",49,43,114.11199999994,"add",1,1,1
"191","A1DUPOUC9RNU4L","uncued",1319,5505793,2022-05-19 10:57:08,"rhyme-phon_sim-same_different-task_switching",4397.80000001192,"task_switching",87,84,1,"subtract",NA,NA,"Yes","Just intent focus and speaking the rules",2.25,3.7,"low_verbal",90,84,114.11199999994,"subtract",1,1,1
"192","A1DUPOUC9RNU4L","uncued",1320,5509723,2022-05-19 10:57:08,"rhyme-phon_sim-same_different-task_switching",3927.89999997616,"task_switching",59,62,1,"add",NA,NA,"Yes","Just intent focus and speaking the rules",2.25,3.7,"low_verbal",62,56,114.11199999994,"add",1,1,1
"193","A1DUPOUC9RNU4L","uncued",1321,5513247,2022-05-19 10:57:08,"rhyme-phon_sim-same_different-task_switching",3521.79999995232,"task_switching",90,87,1,"subtract",NA,NA,"Yes","Just intent focus and speaking the rules",2.25,3.7,"low_verbal",93,87,114.11199999994,"subtract",1,1,1
"194","A1DUPOUC9RNU4L","uncued",1322,5515579,2022-05-19 10:57:08,"rhyme-phon_sim-same_different-task_switching",2329.89999997616,"task_switching",85,88,1,"add",NA,NA,"Yes","Just intent focus and speaking the rules",2.25,3.7,"low_verbal",88,82,114.11199999994,"add",1,1,1
"195","A1DUPOUC9RNU4L","uncued",1323,5519509,2022-05-19 10:57:08,"rhyme-phon_sim-same_different-task_switching",3928,"task_switching",38,85,0,"subtract",NA,NA,"Yes","Just intent focus and speaking the rules",2.25,3.7,"low_verbal",41,35,114.11199999994,"add",0,0,0
"196","A1DUPOUC9RNU4L","uncued",1324,5523577,2022-05-19 10:57:08,"rhyme-phon_sim-same_different-task_switching",4065.79999995232,"task_switching",16,19,1,"add",NA,NA,"Yes","Just intent focus and speaking the rules",2.25,3.7,"low_verbal",19,13,114.11199999994,"add",1,1,0
"197","A1DUPOUC9RNU4L","uncued",1325,5527499,2022-05-19 10:57:08,"rhyme-phon_sim-same_different-task_switching",3919.69999998808,"task_switching",67,64,1,"subtract",NA,NA,"Yes","Just intent focus and speaking the rules",2.25,3.7,"low_verbal",70,64,114.11199999994,"subtract",1,1,1
"198","A1DUPOUC9RNU4L","uncued",1326,5531145,2022-05-19 10:57:08,"rhyme-phon_sim-same_different-task_switching",3643.69999998808,"task_switching",93,96,1,"add",NA,NA,"Yes","Just intent focus and speaking the rules",2.25,3.7,"low_verbal",96,90,114.11199999994,"add",1,1,1
"199","A1DUPOUC9RNU4L","uncued",1327,5533831,2022-05-19 10:57:08,"rhyme-phon_sim-same_different-task_switching",2683.80000001192,"task_switching",26,23,1,"subtract",NA,NA,"Yes","Just intent focus and speaking the rules",2.25,3.7,"low_verbal",29,23,114.11199999994,"subtract",1,1,1
"200","A1DUPOUC9RNU4L","uncued",1328,5537835,2022-05-19 10:57:08,"rhyme-phon_sim-same_different-task_switching",4000.90000003576,"task_switching",72,75,1,"add",NA,NA,"Yes","Just intent focus and speaking the rules",2.25,3.7,"low_verbal",75,69,114.11199999994,"add",1,1,1
"201","A1DUPOUC9RNU4L","uncued",1329,5542057,2022-05-19 10:57:08,"rhyme-phon_sim-same_different-task_switching",4219.80000001192,"task_switching",69,66,1,"subtract",NA,NA,"Yes","Just intent focus and speaking the rules",2.25,3.7,"low_verbal",72,66,114.11199999994,"subtract",1,1,1
"202","A1F9KLZGHE9DTA","uncued",130,253990,2022-05-18 15:20:39,"task_switching-rhyme-same_different-phon_sim",1795.80000001192,"task_switching",55,58,1,"add",NA,NA,"Yes","Just intent focus and speaking the rules",5,4,"high_verbal",58,52,46.5063000000715,"add",1,1,1
"203","A1F9KLZGHE9DTA","uncued",131,256012,2022-05-18 15:20:39,"task_switching-rhyme-same_different-phon_sim",2019,"task_switching",65,62,1,"subtract",NA,NA,"Yes","Just intent focus and speaking the rules",5,4,"high_verbal",68,62,46.5063000000715,"subtract",1,1,1
"204","A1F9KLZGHE9DTA","uncued",132,257490,2022-05-18 15:20:39,"task_switching-rhyme-same_different-phon_sim",1475.30000001192,"task_switching",71,74,1,"add",NA,NA,"Yes","Just intent focus and speaking the rules",5,4,"high_verbal",74,68,46.5063000000715,"add",1,1,1
"205","A1F9KLZGHE9DTA","uncued",133,259294,2022-05-18 15:20:39,"task_switching-rhyme-same_different-phon_sim",1801.19999998808,"task_switching",66,63,1,"subtract",NA,NA,"Yes","Just intent focus and speaking the rules",5,4,"high_verbal",69,63,46.5063000000715,"subtract",1,1,1
"206","A1F9KLZGHE9DTA","uncued",134,260732,2022-05-18 15:20:39,"task_switching-rhyme-same_different-phon_sim",1434.80000001192,"task_switching",53,56,1,"add",NA,NA,"Yes","Just intent focus and speaking the rules",5,4,"high_verbal",56,50,46.5063000000715,"add",1,1,1
"207","A1F9KLZGHE9DTA","uncued",135,262270,2022-05-18 15:20:39,"task_switching-rhyme-same_different-phon_sim",1535.79999995232,"task_switching",70,67,1,"subtract",NA,NA,"Yes","Just intent focus and speaking the rules",5,4,"high_verbal",73,67,46.5063000000715,"subtract",1,1,1
"208","A1F9KLZGHE9DTA","uncued",136,263520,2022-05-18 15:20:39,"task_switching-rhyme-same_different-phon_sim",1247.5,"task_switching",85,88,1,"add",NA,NA,"Yes","Just intent focus and speaking the rules",5,4,"high_verbal",88,82,46.5063000000715,"add",1,1,1
"209","A1F9KLZGHE9DTA","uncued",137,264904,2022-05-18 15:20:39,"task_switching-rhyme-same_different-phon_sim",1382.20000004768,"task_switching",18,15,1,"subtract",NA,NA,"Yes","Just intent focus and speaking the rules",5,4,"high_verbal",21,15,46.5063000000715,"subtract",1,1,1
"210","A1F9KLZGHE9DTA","uncued",138,266434,2022-05-18 15:20:39,"task_switching-rhyme-same_different-phon_sim",1527.19999998808,"task_switching",25,28,1,"add",NA,NA,"Yes","Just intent focus and speaking the rules",5,4,"high_verbal",28,22,46.5063000000715,"add",1,1,1
"211","A1F9KLZGHE9DTA","uncued",139,267724,2022-05-18 15:20:39,"task_switching-rhyme-same_different-phon_sim",1287.5,"task_switching",48,45,1,"subtract",NA,NA,"Yes","Just intent focus and speaking the rules",5,4,"high_verbal",51,45,46.5063000000715,"subtract",1,1,1
"212","A1F9KLZGHE9DTA","uncued",140,269082,2022-05-18 15:20:39,"task_switching-rhyme-same_different-phon_sim",1356.19999998808,"task_switching",50,53,1,"add",NA,NA,"Yes","Just intent focus and speaking the rules",5,4,"high_verbal",53,47,46.5063000000715,"add",1,1,1
"213","A1F9KLZGHE9DTA","uncued",141,270598,2022-05-18 15:20:39,"task_switching-rhyme-same_different-phon_sim",1514,"task_switching",82,79,1,"subtract",NA,NA,"Yes","Just intent focus and speaking the rules",5,4,"high_verbal",85,79,46.5063000000715,"subtract",1,1,1
"214","A1F9KLZGHE9DTA","uncued",142,272082,2022-05-18 15:20:39,"task_switching-rhyme-same_different-phon_sim",1481.5,"task_switching",80,83,1,"add",NA,NA,"Yes","Just intent focus and speaking the rules",5,4,"high_verbal",83,77,46.5063000000715,"add",1,1,1
"215","A1F9KLZGHE9DTA","uncued",143,273560,2022-05-18 15:20:39,"task_switching-rhyme-same_different-phon_sim",1476.10000002384,"task_switching",67,64,1,"subtract",NA,NA,"Yes","Just intent focus and speaking the rules",5,4,"high_verbal",70,64,46.5063000000715,"subtract",1,1,1
"216","A1F9KLZGHE9DTA","uncued",144,275036,2022-05-18 15:20:39,"task_switching-rhyme-same_different-phon_sim",1472.69999998808,"task_switching",27,30,1,"add",NA,NA,"Yes","Just intent focus and speaking the rules",5,4,"high_verbal",30,24,46.5063000000715,"add",1,1,1
"217","A1F9KLZGHE9DTA","uncued",145,276410,2022-05-18 15:20:39,"task_switching-rhyme-same_different-phon_sim",1371.89999997616,"task_switching",13,10,1,"subtract",NA,NA,"Yes","Just intent focus and speaking the rules",5,4,"high_verbal",16,10,46.5063000000715,"subtract",1,1,1
"218","A1F9KLZGHE9DTA","uncued",146,278090,2022-05-18 15:20:39,"task_switching-rhyme-same_different-phon_sim",1674.29999995232,"task_switching",37,40,1,"add",NA,NA,"Yes","Just intent focus and speaking the rules",5,4,"high_verbal",40,34,46.5063000000715,"add",1,1,1
"219","A1F9KLZGHE9DTA","uncued",147,279943,2022-05-18 15:20:39,"task_switching-rhyme-same_different-phon_sim",1850.60000002384,"task_switching",17,14,1,"subtract",NA,NA,"Yes","Just intent focus and speaking the rules",5,4,"high_verbal",20,14,46.5063000000715,"subtract",1,1,1
"220","A1F9KLZGHE9DTA","uncued",148,281550,2022-05-18 15:20:39,"task_switching-rhyme-same_different-phon_sim",1605.90000003576,"task_switching",49,52,1,"add",NA,NA,"Yes","Just intent focus and speaking the rules",5,4,"high_verbal",52,46,46.5063000000715,"add",1,1,1
"221","A1F9KLZGHE9DTA","uncued",149,282958,2022-05-18 15:20:39,"task_switching-rhyme-same_different-phon_sim",1404.80000001192,"task_switching",57,54,1,"subtract",NA,NA,"Yes","Just intent focus and speaking the rules",5,4,"high_verbal",60,54,46.5063000000715,"subtract",1,1,1
"222","A1F9KLZGHE9DTA","uncued",150,284340,2022-05-18 15:20:39,"task_switching-rhyme-same_different-phon_sim",1379.80000001192,"task_switching",35,38,1,"add",NA,NA,"Yes","Just intent focus and speaking the rules",5,4,"high_verbal",38,32,46.5063000000715,"add",1,1,1
"223","A1F9KLZGHE9DTA","uncued",151,285731,2022-05-18 15:20:39,"task_switching-rhyme-same_different-phon_sim",1388.39999997616,"task_switching",36,33,1,"subtract",NA,NA,"Yes","Just intent focus and speaking the rules",5,4,"high_verbal",39,33,46.5063000000715,"subtract",1,1,1
"224","A1F9KLZGHE9DTA","uncued",152,287472,2022-05-18 15:20:39,"task_switching-rhyme-same_different-phon_sim",1738.89999997616,"task_switching",62,65,1,"add",NA,NA,"Yes","Just intent focus and speaking the rules",5,4,"high_verbal",65,59,46.5063000000715,"add",1,1,1
"225","A1F9KLZGHE9DTA","uncued",153,289214,2022-05-18 15:20:39,"task_switching-rhyme-same_different-phon_sim",1738.70000004768,"task_switching",89,86,1,"subtract",NA,NA,"Yes","Just intent focus and speaking the rules",5,4,"high_verbal",92,86,46.5063000000715,"subtract",1,1,1
"226","A1F9KLZGHE9DTA","uncued",154,291426,2022-05-18 15:20:39,"task_switching-rhyme-same_different-phon_sim",2209.60000002384,"task_switching",91,94,1,"add",NA,NA,"Yes","Just intent focus and speaking the rules",5,4,"high_verbal",94,88,46.5063000000715,"add",1,1,1
"227","A1F9KLZGHE9DTA","uncued",155,292754,2022-05-18 15:20:39,"task_switching-rhyme-same_different-phon_sim",1325.30000001192,"task_switching",16,13,1,"subtract",NA,NA,"Yes","Just intent focus and speaking the rules",5,4,"high_verbal",19,13,46.5063000000715,"subtract",1,1,1
"228","A1F9KLZGHE9DTA","uncued",156,294152,2022-05-18 15:20:39,"task_switching-rhyme-same_different-phon_sim",1395.40000003576,"task_switching",52,55,1,"add",NA,NA,"Yes","Just intent focus and speaking the rules",5,4,"high_verbal",55,49,46.5063000000715,"add",1,1,1
"229","A1F9KLZGHE9DTA","uncued",157,296012,2022-05-18 15:20:39,"task_switching-rhyme-same_different-phon_sim",1858,"task_switching",78,75,1,"subtract",NA,NA,"Yes","Just intent focus and speaking the rules",5,4,"high_verbal",81,75,46.5063000000715,"subtract",1,1,1
"230","A1F9KLZGHE9DTA","uncued",158,297394,2022-05-18 15:20:39,"task_switching-rhyme-same_different-phon_sim",1376.80000001192,"task_switching",15,18,1,"add",NA,NA,"Yes","Just intent focus and speaking the rules",5,4,"high_verbal",18,12,46.5063000000715,"add",1,1,1
"231","A1F9KLZGHE9DTA","uncued",159,298778,2022-05-18 15:20:39,"task_switching-rhyme-same_different-phon_sim",1381.09999996424,"task_switching",83,80,1,"subtract",NA,NA,"Yes","Just intent focus and speaking the rules",5,4,"high_verbal",86,80,46.5063000000715,"subtract",1,1,1
"232","A1JJYY622DGE5L","uncued",1196,1798883,2022-05-18 16:04:26,"rhyme-same_different-phon_sim-task_switching",1276.90000000596,"task_switching",44,47,1,"add",NA,NA,"Yes","No",4.67,4.4,"high_verbal",47,41,57.2505000000298,"add",1,1,1
"233","A1JJYY622DGE5L","uncued",1197,1800673,2022-05-18 16:04:26,"rhyme-same_different-phon_sim-task_switching",1774.70000000298,"task_switching",17,14,1,"subtract",NA,NA,"Yes","No",4.67,4.4,"high_verbal",20,14,57.2505000000298,"subtract",1,1,1
"234","A1JJYY622DGE5L","uncued",1198,1802103,2022-05-18 16:04:26,"rhyme-same_different-phon_sim-task_switching",1417.29999999702,"task_switching",37,40,1,"add",NA,NA,"Yes","No",4.67,4.4,"high_verbal",40,34,57.2505000000298,"add",1,1,1
"235","A1JJYY622DGE5L","uncued",1199,1803880,2022-05-18 16:04:26,"rhyme-same_different-phon_sim-task_switching",1763.59999999404,"task_switching",59,56,1,"subtract",NA,NA,"Yes","No",4.67,4.4,"high_verbal",62,56,57.2505000000298,"subtract",1,1,1
"236","A1JJYY622DGE5L","uncued",1200,1805309,2022-05-18 16:04:26,"rhyme-same_different-phon_sim-task_switching",1415.89999999106,"task_switching",27,30,1,"add",NA,NA,"Yes","No",4.67,4.4,"high_verbal",30,24,57.2505000000298,"add",1,1,1
"237","A1JJYY622DGE5L","uncued",1201,1807302,2022-05-18 16:04:26,"rhyme-same_different-phon_sim-task_switching",1981.10000000894,"task_switching",61,58,1,"subtract",NA,NA,"Yes","No",4.67,4.4,"high_verbal",64,58,57.2505000000298,"subtract",1,1,1
"238","A1JJYY622DGE5L","uncued",1202,1810747,2022-05-18 16:04:26,"rhyme-same_different-phon_sim-task_switching",3432.39999999106,"task_switching",77,80,1,"add",NA,NA,"Yes","No",4.67,4.4,"high_verbal",80,74,57.2505000000298,"add",1,1,1
"239","A1JJYY622DGE5L","uncued",1203,1813406,2022-05-18 16:04:26,"rhyme-same_different-phon_sim-task_switching",2645.10000000894,"task_switching",92,89,1,"subtract",NA,NA,"Yes","No",4.67,4.4,"high_verbal",95,89,57.2505000000298,"subtract",1,1,1
"240","A1JJYY622DGE5L","uncued",1204,1815381,2022-05-18 16:04:26,"rhyme-same_different-phon_sim-task_switching",1960.39999999106,"task_switching",22,25,1,"add",NA,NA,"Yes","No",4.67,4.4,"high_verbal",25,19,57.2505000000298,"add",1,1,1
"241","A1JJYY622DGE5L","uncued",1205,1817331,2022-05-18 16:04:26,"rhyme-same_different-phon_sim-task_switching",1936.70000000298,"task_switching",71,68,1,"subtract",NA,NA,"Yes","No",4.67,4.4,"high_verbal",74,68,57.2505000000298,"subtract",1,1,1
"242","A1JJYY622DGE5L","uncued",1206,1818895,2022-05-18 16:04:26,"rhyme-same_different-phon_sim-task_switching",1551.29999999702,"task_switching",16,19,1,"add",NA,NA,"Yes","No",4.67,4.4,"high_verbal",19,13,57.2505000000298,"add",1,1,1
"243","A1JJYY622DGE5L","uncued",1207,1822660,2022-05-18 16:04:26,"rhyme-same_different-phon_sim-task_switching",3748.20000000298,"task_switching",96,93,1,"subtract",NA,NA,"Yes","No",4.67,4.4,"high_verbal",99,93,57.2505000000298,"subtract",1,1,1
"244","A1JJYY622DGE5L","uncued",1208,1824174,2022-05-18 16:04:26,"rhyme-same_different-phon_sim-task_switching",1499.5,"task_switching",57,60,1,"add",NA,NA,"Yes","No",4.67,4.4,"high_verbal",60,54,57.2505000000298,"add",1,1,1
"245","A1JJYY622DGE5L","uncued",1209,1828714,2022-05-18 16:04:26,"rhyme-same_different-phon_sim-task_switching",4527.20000000298,"task_switching",82,79,1,"subtract",NA,NA,"Yes","No",4.67,4.4,"high_verbal",85,79,57.2505000000298,"subtract",1,1,1
"246","A1JJYY622DGE5L","uncued",1210,1830159,2022-05-18 16:04:26,"rhyme-same_different-phon_sim-task_switching",1429,"task_switching",93,96,1,"add",NA,NA,"Yes","No",4.67,4.4,"high_verbal",96,90,57.2505000000298,"add",1,1,1
"247","A1JJYY622DGE5L","uncued",1211,1831948,2022-05-18 16:04:26,"rhyme-same_different-phon_sim-task_switching",1777.79999999702,"task_switching",63,60,1,"subtract",NA,NA,"Yes","No",4.67,4.4,"high_verbal",66,60,57.2505000000298,"subtract",1,1,1
"248","A1JJYY622DGE5L","uncued",1212,1833434,2022-05-18 16:04:26,"rhyme-same_different-phon_sim-task_switching",1470.39999999106,"task_switching",13,16,1,"add",NA,NA,"Yes","No",4.67,4.4,"high_verbal",16,10,57.2505000000298,"add",1,1,1
"249","A1JJYY622DGE5L","uncued",1213,1835088,2022-05-18 16:04:26,"rhyme-same_different-phon_sim-task_switching",1642,"task_switching",32,29,1,"subtract",NA,NA,"Yes","No",4.67,4.4,"high_verbal",35,29,57.2505000000298,"subtract",1,1,1
"250","A1JJYY622DGE5L","uncued",1214,1836384,2022-05-18 16:04:26,"rhyme-same_different-phon_sim-task_switching",1280.10000000894,"task_switching",15,18,1,"add",NA,NA,"Yes","No",4.67,4.4,"high_verbal",18,12,57.2505000000298,"add",1,1,1
"251","A1JJYY622DGE5L","uncued",1215,1838357,2022-05-18 16:04:26,"rhyme-same_different-phon_sim-task_switching",1960,"task_switching",28,25,1,"subtract",NA,NA,"Yes","No",4.67,4.4,"high_verbal",31,25,57.2505000000298,"subtract",1,1,1
"252","A1JJYY622DGE5L","uncued",1216,1840317,2022-05-18 16:04:26,"rhyme-same_different-phon_sim-task_switching",1944.90000000596,"task_switching",86,89,1,"add",NA,NA,"Yes","No",4.67,4.4,"high_verbal",89,83,57.2505000000298,"add",1,1,1
"253","A1JJYY622DGE5L","uncued",1217,1842103,2022-05-18 16:04:26,"rhyme-same_different-phon_sim-task_switching",1772.5,"task_switching",29,26,1,"subtract",NA,NA,"Yes","No",4.67,4.4,"high_verbal",32,26,57.2505000000298,"subtract",1,1,1
"254","A1JJYY622DGE5L","uncued",1218,1843963,2022-05-18 16:04:26,"rhyme-same_different-phon_sim-task_switching",1844.90000000596,"task_switching",51,54,1,"add",NA,NA,"Yes","No",4.67,4.4,"high_verbal",54,48,57.2505000000298,"add",1,1,1
"255","A1JJYY622DGE5L","uncued",1219,1845802,2022-05-18 16:04:26,"rhyme-same_different-phon_sim-task_switching",1827.70000000298,"task_switching",41,38,1,"subtract",NA,NA,"Yes","No",4.67,4.4,"high_verbal",44,38,57.2505000000298,"subtract",1,1,1
"256","A1JJYY622DGE5L","uncued",1220,1847503,2022-05-18 16:04:26,"rhyme-same_different-phon_sim-task_switching",1689.40000000596,"task_switching",80,83,1,"add",NA,NA,"Yes","No",4.67,4.4,"high_verbal",83,77,57.2505000000298,"add",1,1,1
"257","A1JJYY622DGE5L","uncued",1221,1848908,2022-05-18 16:04:26,"rhyme-same_different-phon_sim-task_switching",1392.5,"task_switching",34,31,1,"subtract",NA,NA,"Yes","No",4.67,4.4,"high_verbal",37,31,57.2505000000298,"subtract",1,1,1
"258","A1JJYY622DGE5L","uncued",1222,1850474,2022-05-18 16:04:26,"rhyme-same_different-phon_sim-task_switching",1557.59999999404,"task_switching",42,45,1,"add",NA,NA,"Yes","No",4.67,4.4,"high_verbal",45,39,57.2505000000298,"add",1,1,1
"259","A1JJYY622DGE5L","uncued",1223,1851891,2022-05-18 16:04:26,"rhyme-same_different-phon_sim-task_switching",1409.40000000596,"task_switching",64,61,1,"subtract",NA,NA,"Yes","No",4.67,4.4,"high_verbal",67,61,57.2505000000298,"subtract",1,1,1
"260","A1JJYY622DGE5L","uncued",1224,1853402,2022-05-18 16:04:26,"rhyme-same_different-phon_sim-task_switching",1500.90000000596,"task_switching",33,36,1,"add",NA,NA,"Yes","No",4.67,4.4,"high_verbal",36,30,57.2505000000298,"add",1,1,1
"261","A1JJYY622DGE5L","uncued",1225,1855232,2022-05-18 16:04:26,"rhyme-same_different-phon_sim-task_switching",1821.10000000894,"task_switching",69,66,1,"subtract",NA,NA,"Yes","No",4.67,4.4,"high_verbal",72,66,57.2505000000298,"subtract",1,1,1
"262","A1KOBLL83SICGQ","uncued",293,5758783,2022-05-27 16:17:54,"phon_sim-task_switching-rhyme-same_different",6031.79999995232,"task_switching",66,69,1,"add",NA,NA,"No","I do my calculation",2.42,3.8,"low_verbal",69,63,137.600899999976,"add",1,1,1
"263","A1KOBLL83SICGQ","uncued",303,5834161,2022-05-27 16:17:54,"phon_sim-task_switching-rhyme-same_different",6179.39999997616,"task_switching",41,44,1,"add",NA,NA,"No","I do my calculation",2.42,3.8,"low_verbal",44,38,137.600899999976,"add",1,1,0
"264","A1KOBLL83SICGQ","uncued",306,5878350,2022-05-27 16:17:54,"phon_sim-task_switching-rhyme-same_different",9583.20000004768,"task_switching",77,74,1,"subtract",NA,NA,"No","I do my calculation",2.42,3.8,"low_verbal",80,74,137.600899999976,"subtract",1,1,1
"265","A1KOBLL83SICGQ","uncued",307,5882902,2022-05-27 16:17:54,"phon_sim-task_switching-rhyme-same_different",4546.59999990463,"task_switching",70,73,1,"add",NA,NA,"No","I do my calculation",2.42,3.8,"low_verbal",73,67,137.600899999976,"add",1,1,1
"266","A1KOBLL83SICGQ","uncued",308,5887984,2022-05-27 16:17:54,"phon_sim-task_switching-rhyme-same_different",5077.10000002384,"task_switching",87,84,1,"subtract",NA,NA,"No","I do my calculation",2.42,3.8,"low_verbal",90,84,137.600899999976,"subtract",1,1,1
"267","A1KOBLL83SICGQ","uncued",309,5892262,2022-05-27 16:17:54,"phon_sim-task_switching-rhyme-same_different",4271.39999997616,"task_switching",36,39,1,"add",NA,NA,"No","I do my calculation",2.42,3.8,"low_verbal",39,33,137.600899999976,"add",1,1,1
"268","A1KOBLL83SICGQ","uncued",310,5900101,2022-05-27 16:17:54,"phon_sim-task_switching-rhyme-same_different",7832,"task_switching",96,93,1,"subtract",NA,NA,"No","I do my calculation",2.42,3.8,"low_verbal",99,93,137.600899999976,"subtract",1,1,1
"269","A1KOBLL83SICGQ","uncued",311,5905795,2022-05-27 16:17:54,"phon_sim-task_switching-rhyme-same_different",5686.5,"task_switching",13,15,0,"add",NA,NA,"No","I do my calculation",2.42,3.8,"low_verbal",16,10,137.600899999976,"add",1,0,0
"270","A1KOBLL83SICGQ","uncued",312,5910572,2022-05-27 16:17:54,"phon_sim-task_switching-rhyme-same_different",4772.10000002384,"task_switching",94,91,1,"subtract",NA,NA,"No","I do my calculation",2.42,3.8,"low_verbal",97,91,137.600899999976,"subtract",1,1,1
"271","A1KOBLL83SICGQ","uncued",313,5915879,2022-05-27 16:17:54,"phon_sim-task_switching-rhyme-same_different",5302,"task_switching",50,53,1,"add",NA,NA,"No","I do my calculation",2.42,3.8,"low_verbal",53,47,137.600899999976,"add",1,1,1
"272","A1KOBLL83SICGQ","uncued",314,5920690,2022-05-27 16:17:54,"phon_sim-task_switching-rhyme-same_different",4805.60000002384,"task_switching",65,62,1,"subtract",NA,NA,"No","I do my calculation",2.42,3.8,"low_verbal",68,62,137.600899999976,"subtract",1,1,1
"273","A1KOBLL83SICGQ","uncued",315,5925904,2022-05-27 16:17:54,"phon_sim-task_switching-rhyme-same_different",5210.5,"task_switching",57,60,1,"add",NA,NA,"No","I do my calculation",2.42,3.8,"low_verbal",60,54,137.600899999976,"add",1,1,1
"274","A1KOBLL83SICGQ","uncued",316,5935438,2022-05-27 16:17:54,"phon_sim-task_switching-rhyme-same_different",9527.89999997616,"task_switching",91,88,1,"subtract",NA,NA,"No","I do my calculation",2.42,3.8,"low_verbal",94,88,137.600899999976,"subtract",1,1,1
"275","A1KOBLL83SICGQ","uncued",317,5942339,2022-05-27 16:17:54,"phon_sim-task_switching-rhyme-same_different",6895,"task_switching",62,65,1,"add",NA,NA,"No","I do my calculation",2.42,3.8,"low_verbal",65,59,137.600899999976,"add",1,1,1
"276","A1KOBLL83SICGQ","uncued",322,5982928,2022-05-27 16:17:54,"phon_sim-task_switching-rhyme-same_different",5389.10000002384,"task_switching",86,83,1,"subtract",NA,NA,"No","I do my calculation",2.42,3.8,"low_verbal",89,83,137.600899999976,"subtract",1,1,0
"277","A1LRJ4U04532TM","uncued",1248,2359318,2022-05-23 17:53:43,"same_different-rhyme-phon_sim-task_switching",3445.10000002384,"task_switching",73,76,1,"add",NA,NA,"No","no",4.83,4.2,"high_verbal",76,70,116.817900000095,"add",1,1,1
"278","A1LRJ4U04532TM","uncued",1249,2362550,2022-05-23 17:53:43,"same_different-rhyme-phon_sim-task_switching",3230.39999997616,"task_switching",90,87,1,"subtract",NA,NA,"No","no",4.83,4.2,"high_verbal",93,87,116.817900000095,"subtract",1,1,1
"279","A1LRJ4U04532TM","uncued",1250,2365687,2022-05-23 17:53:43,"same_different-rhyme-phon_sim-task_switching",3134,"task_switching",77,74,0,"add",NA,NA,"No","no",4.83,4.2,"high_verbal",80,74,116.817900000095,"subtract",0,1,0
"280","A1LRJ4U04532TM","uncued",1251,2374126,2022-05-23 17:53:43,"same_different-rhyme-phon_sim-task_switching",8438,"task_switching",86,83,1,"subtract",NA,NA,"No","no",4.83,4.2,"high_verbal",89,83,116.817900000095,"subtract",1,1,0
"281","A1LRJ4U04532TM","uncued",1252,2377323,2022-05-23 17:53:43,"same_different-rhyme-phon_sim-task_switching",3194.29999995232,"task_switching",55,57,0,"add",NA,NA,"No","no",4.83,4.2,"high_verbal",58,52,116.817900000095,"add",1,0,0
"282","A1LRJ4U04532TM","uncued",1253,2381337,2022-05-23 17:53:43,"same_different-rhyme-phon_sim-task_switching",4012.10000002384,"task_switching",42,39,1,"subtract",NA,NA,"No","no",4.83,4.2,"high_verbal",45,39,116.817900000095,"subtract",1,1,1
"283","A1LRJ4U04532TM","uncued",1254,2384568,2022-05-23 17:53:43,"same_different-rhyme-phon_sim-task_switching",3228.60000002384,"task_switching",41,43,0,"add",NA,NA,"No","no",4.83,4.2,"high_verbal",44,38,116.817900000095,"add",1,0,0
"284","A1LRJ4U04532TM","uncued",1255,2387967,2022-05-23 17:53:43,"same_different-rhyme-phon_sim-task_switching",3396.30000007153,"task_switching",70,67,1,"subtract",NA,NA,"No","no",4.83,4.2,"high_verbal",73,67,116.817900000095,"subtract",1,1,1
"285","A1LRJ4U04532TM","uncued",1256,2390918,2022-05-23 17:53:43,"same_different-rhyme-phon_sim-task_switching",2948.80000007153,"task_switching",69,72,1,"add",NA,NA,"No","no",4.83,4.2,"high_verbal",72,66,116.817900000095,"add",1,1,1
"286","A1LRJ4U04532TM","uncued",1257,2394945,2022-05-23 17:53:43,"same_different-rhyme-phon_sim-task_switching",4024.19999992847,"task_switching",85,82,1,"subtract",NA,NA,"No","no",4.83,4.2,"high_verbal",88,82,116.817900000095,"subtract",1,1,1
"287","A1LRJ4U04532TM","uncued",1258,2397786,2022-05-23 17:53:43,"same_different-rhyme-phon_sim-task_switching",2839.10000002384,"task_switching",44,50,0,"add",NA,NA,"No","no",4.83,4.2,"high_verbal",47,41,116.817900000095,"add",1,0,0
"288","A1LRJ4U04532TM","uncued",1259,2402174,2022-05-23 17:53:43,"same_different-rhyme-phon_sim-task_switching",4385.70000004768,"task_switching",34,31,1,"subtract",NA,NA,"No","no",4.83,4.2,"high_verbal",37,31,116.817900000095,"subtract",1,1,1
"289","A1LRJ4U04532TM","uncued",1260,2406258,2022-05-23 17:53:43,"same_different-rhyme-phon_sim-task_switching",4080.60000002384,"task_switching",91,94,1,"add",NA,NA,"No","no",4.83,4.2,"high_verbal",94,88,116.817900000095,"add",1,1,1
"290","A1LRJ4U04532TM","uncued",1261,2409846,2022-05-23 17:53:43,"same_different-rhyme-phon_sim-task_switching",3585.5,"task_switching",72,69,1,"subtract",NA,NA,"No","no",4.83,4.2,"high_verbal",75,69,116.817900000095,"subtract",1,1,1
"291","A1LRJ4U04532TM","uncued",1262,2413439,2022-05-23 17:53:43,"same_different-rhyme-phon_sim-task_switching",3592,"task_switching",23,26,1,"add",NA,NA,"No","no",4.83,4.2,"high_verbal",26,20,116.817900000095,"add",1,1,1
"292","A1LRJ4U04532TM","uncued",1263,2418503,2022-05-23 17:53:43,"same_different-rhyme-phon_sim-task_switching",5060.89999997616,"task_switching",40,37,1,"subtract",NA,NA,"No","no",4.83,4.2,"high_verbal",43,37,116.817900000095,"subtract",1,1,1
"293","A1LRJ4U04532TM","uncued",1264,2423106,2022-05-23 17:53:43,"same_different-rhyme-phon_sim-task_switching",4601.10000002384,"task_switching",21,19,0,"add",NA,NA,"No","no",4.83,4.2,"high_verbal",24,18,116.817900000095,"subtract",0,0,0
"294","A1LRJ4U04532TM","uncued",1265,2428714,2022-05-23 17:53:43,"same_different-rhyme-phon_sim-task_switching",5606,"task_switching",80,83,0,"subtract",NA,NA,"No","no",4.83,4.2,"high_verbal",83,77,116.817900000095,"add",0,1,1
"295","A1LRJ4U04532TM","uncued",1266,2433800,2022-05-23 17:53:43,"same_different-rhyme-phon_sim-task_switching",5083.60000002384,"task_switching",48,52,0,"add",NA,NA,"No","no",4.83,4.2,"high_verbal",51,45,116.817900000095,"add",1,0,0
"296","A1LRJ4U04532TM","uncued",1267,2438124,2022-05-23 17:53:43,"same_different-rhyme-phon_sim-task_switching",4321.5,"task_switching",30,27,1,"subtract",NA,NA,"No","no",4.83,4.2,"high_verbal",33,27,116.817900000095,"subtract",1,1,1
"297","A1LRJ4U04532TM","uncued",1268,2440248,2022-05-23 17:53:43,"same_different-rhyme-phon_sim-task_switching",2121.29999995232,"task_switching",37,34,0,"add",NA,NA,"No","no",4.83,4.2,"high_verbal",40,34,116.817900000095,"subtract",0,1,0
"298","A1LRJ4U04532TM","uncued",1269,2442256,2022-05-23 17:53:43,"same_different-rhyme-phon_sim-task_switching",2006,"task_switching",17,20,0,"subtract",NA,NA,"No","no",4.83,4.2,"high_verbal",20,14,116.817900000095,"add",0,1,1
"299","A1LRJ4U04532TM","uncued",1270,2445373,2022-05-23 17:53:43,"same_different-rhyme-phon_sim-task_switching",3114.69999992847,"task_switching",25,22,0,"add",NA,NA,"No","no",4.83,4.2,"high_verbal",28,22,116.817900000095,"subtract",0,1,1
"300","A1LRJ4U04532TM","uncued",1271,2447559,2022-05-23 17:53:43,"same_different-rhyme-phon_sim-task_switching",2184.09999990463,"task_switching",15,18,0,"subtract",NA,NA,"No","no",4.83,4.2,"high_verbal",18,12,116.817900000095,"add",0,1,1
"301","A1LRJ4U04532TM","uncued",1272,2451251,2022-05-23 17:53:43,"same_different-rhyme-phon_sim-task_switching",3689,"task_switching",31,34,1,"add",NA,NA,"No","no",4.83,4.2,"high_verbal",34,28,116.817900000095,"add",1,1,0
"302","A1LRJ4U04532TM","uncued",1273,2455679,2022-05-23 17:53:43,"same_different-rhyme-phon_sim-task_switching",4425.70000004768,"task_switching",47,44,1,"subtract",NA,NA,"No","no",4.83,4.2,"high_verbal",50,44,116.817900000095,"subtract",1,1,1
"303","A1LRJ4U04532TM","uncued",1274,2462679,2022-05-23 17:53:43,"same_different-rhyme-phon_sim-task_switching",6998.10000002384,"task_switching",54,57,1,"add",NA,NA,"No","no",4.83,4.2,"high_verbal",57,51,116.817900000095,"add",1,1,1
"304","A1LRJ4U04532TM","uncued",1275,2465418,2022-05-23 17:53:43,"same_different-rhyme-phon_sim-task_switching",2735.89999997616,"task_switching",26,23,1,"subtract",NA,NA,"No","no",4.83,4.2,"high_verbal",29,23,116.817900000095,"subtract",1,1,1
"305","A1LRJ4U04532TM","uncued",1276,2468636,2022-05-23 17:53:43,"same_different-rhyme-phon_sim-task_switching",3215.80000007153,"task_switching",63,66,1,"add",NA,NA,"No","no",4.83,4.2,"high_verbal",66,60,116.817900000095,"add",1,1,1
"306","A1LRJ4U04532TM","uncued",1277,2472758,2022-05-23 17:53:43,"same_different-rhyme-phon_sim-task_switching",4119.5,"task_switching",39,36,1,"subtract",NA,NA,"No","no",4.83,4.2,"high_verbal",42,36,116.817900000095,"subtract",1,1,1
"307","A1M64R8HPYNNZA","uncued",940,2109439,2022-05-19 01:28:11,"same_different-task_switching-phon_sim-rhyme",3221.10000014305,"task_switching",39,42,1,"add",NA,NA,"No","No",4.75,4.4,"high_verbal",42,36,96.9339000005722,"add",1,1,1
"308","A1M64R8HPYNNZA","uncued",941,2113309,2022-05-19 01:28:11,"same_different-task_switching-phon_sim-rhyme",3867.60000014305,"task_switching",32,29,1,"subtract",NA,NA,"No","No",4.75,4.4,"high_verbal",35,29,96.9339000005722,"subtract",1,1,1
"309","A1M64R8HPYNNZA","uncued",942,2116837,2022-05-19 01:28:11,"same_different-task_switching-phon_sim-rhyme",3525,"task_switching",89,92,1,"add",NA,NA,"No","No",4.75,4.4,"high_verbal",92,86,96.9339000005722,"add",1,1,1
"310","A1M64R8HPYNNZA","uncued",943,2122046,2022-05-19 01:28:11,"same_different-task_switching-phon_sim-rhyme",5205.59999990463,"task_switching",52,49,1,"subtract",NA,NA,"No","No",4.75,4.4,"high_verbal",55,49,96.9339000005722,"subtract",1,1,1
"311","A1M64R8HPYNNZA","uncued",944,2124989,2022-05-19 01:28:11,"same_different-task_switching-phon_sim-rhyme",2940.80000019073,"task_switching",81,84,1,"add",NA,NA,"No","No",4.75,4.4,"high_verbal",84,78,96.9339000005722,"add",1,1,1
"312","A1M64R8HPYNNZA","uncued",945,2128685,2022-05-19 01:28:11,"same_different-task_switching-phon_sim-rhyme",3693,"task_switching",41,38,1,"subtract",NA,NA,"No","No",4.75,4.4,"high_verbal",44,38,96.9339000005722,"subtract",1,1,1
"313","A1M64R8HPYNNZA","uncued",946,2131957,2022-05-19 01:28:11,"same_different-task_switching-phon_sim-rhyme",3268.70000004768,"task_switching",37,40,1,"add",NA,NA,"No","No",4.75,4.4,"high_verbal",40,34,96.9339000005722,"add",1,1,1
"314","A1M64R8HPYNNZA","uncued",947,2134733,2022-05-19 01:28:11,"same_different-task_switching-phon_sim-rhyme",2773.39999985695,"task_switching",93,90,1,"subtract",NA,NA,"No","No",4.75,4.4,"high_verbal",96,90,96.9339000005722,"subtract",1,1,1
"315","A1M64R8HPYNNZA","uncued",948,2138229,2022-05-19 01:28:11,"same_different-task_switching-phon_sim-rhyme",3492.69999980927,"task_switching",95,98,1,"add",NA,NA,"No","No",4.75,4.4,"high_verbal",98,92,96.9339000005722,"add",1,1,1
"316","A1M64R8HPYNNZA","uncued",949,2141317,2022-05-19 01:28:11,"same_different-task_switching-phon_sim-rhyme",3085.10000014305,"task_switching",86,83,1,"subtract",NA,NA,"No","No",4.75,4.4,"high_verbal",89,83,96.9339000005722,"subtract",1,1,1
"317","A1M64R8HPYNNZA","uncued",950,2145110,2022-05-19 01:28:11,"same_different-task_switching-phon_sim-rhyme",3790.20000004768,"task_switching",48,51,1,"add",NA,NA,"No","No",4.75,4.4,"high_verbal",51,45,96.9339000005722,"add",1,1,1
"318","A1M64R8HPYNNZA","uncued",951,2151125,2022-05-19 01:28:11,"same_different-task_switching-phon_sim-rhyme",6012.79999995232,"task_switching",80,77,1,"subtract",NA,NA,"No","No",4.75,4.4,"high_verbal",83,77,96.9339000005722,"subtract",1,1,1
"319","A1M64R8HPYNNZA","uncued",952,2153869,2022-05-19 01:28:11,"same_different-task_switching-phon_sim-rhyme",2740.59999990463,"task_switching",61,64,1,"add",NA,NA,"No","No",4.75,4.4,"high_verbal",64,58,96.9339000005722,"add",1,1,1
"320","A1M64R8HPYNNZA","uncued",953,2155909,2022-05-19 01:28:11,"same_different-task_switching-phon_sim-rhyme",2037.5,"task_switching",15,12,1,"subtract",NA,NA,"No","No",4.75,4.4,"high_verbal",18,12,96.9339000005722,"subtract",1,1,1
"321","A1M64R8HPYNNZA","uncued",954,2158229,2022-05-19 01:28:11,"same_different-task_switching-phon_sim-rhyme",2317,"task_switching",53,56,1,"add",NA,NA,"No","No",4.75,4.4,"high_verbal",56,50,96.9339000005722,"add",1,1,1
"322","A1M64R8HPYNNZA","uncued",955,2163909,2022-05-19 01:28:11,"same_different-task_switching-phon_sim-rhyme",5677.40000009537,"task_switching",67,647,0,"subtract",NA,NA,"No","No",4.75,4.4,"high_verbal",70,64,96.9339000005722,"add",0,0,0
"323","A1M64R8HPYNNZA","uncued",956,2167789,2022-05-19 01:28:11,"same_different-task_switching-phon_sim-rhyme",3877,"task_switching",65,68,1,"add",NA,NA,"No","No",4.75,4.4,"high_verbal",68,62,96.9339000005722,"add",1,1,0
"324","A1M64R8HPYNNZA","uncued",957,2170509,2022-05-19 01:28:11,"same_different-task_switching-phon_sim-rhyme",2716.39999985695,"task_switching",34,31,1,"subtract",NA,NA,"No","No",4.75,4.4,"high_verbal",37,31,96.9339000005722,"subtract",1,1,1
"325","A1M64R8HPYNNZA","uncued",958,2173101,2022-05-19 01:28:11,"same_different-task_switching-phon_sim-rhyme",2589.79999995232,"task_switching",38,41,1,"add",NA,NA,"No","No",4.75,4.4,"high_verbal",41,35,96.9339000005722,"add",1,1,1
"326","A1M64R8HPYNNZA","uncued",959,2175830,2022-05-19 01:28:11,"same_different-task_switching-phon_sim-rhyme",2725.60000014305,"task_switching",74,71,1,"subtract",NA,NA,"No","No",4.75,4.4,"high_verbal",77,71,96.9339000005722,"subtract",1,1,1
"327","A1M64R8HPYNNZA","uncued",960,2178981,2022-05-19 01:28:11,"same_different-task_switching-phon_sim-rhyme",3145.70000004768,"task_switching",59,62,1,"add",NA,NA,"No","No",4.75,4.4,"high_verbal",62,56,96.9339000005722,"add",1,1,1
"328","A1M64R8HPYNNZA","uncued",961,2185277,2022-05-19 01:28:11,"same_different-task_switching-phon_sim-rhyme",6293.10000014305,"task_switching",24,21,1,"subtract",NA,NA,"No","No",4.75,4.4,"high_verbal",27,21,96.9339000005722,"subtract",1,1,1
"329","A1M64R8HPYNNZA","uncued",962,2187276,2022-05-19 01:28:11,"same_different-task_switching-phon_sim-rhyme",1996.29999995232,"task_switching",68,71,1,"add",NA,NA,"No","No",4.75,4.4,"high_verbal",71,65,96.9339000005722,"add",1,1,1
"330","A1M64R8HPYNNZA","uncued",963,2189189,2022-05-19 01:28:11,"same_different-task_switching-phon_sim-rhyme",1909.60000014305,"task_switching",66,63,1,"subtract",NA,NA,"No","No",4.75,4.4,"high_verbal",69,63,96.9339000005722,"subtract",1,1,1
"331","A1M64R8HPYNNZA","uncued",964,2191860,2022-05-19 01:28:11,"same_different-task_switching-phon_sim-rhyme",2669.20000004768,"task_switching",18,21,1,"add",NA,NA,"No","No",4.75,4.4,"high_verbal",21,15,96.9339000005722,"add",1,1,1
"332","A1M64R8HPYNNZA","uncued",965,2194068,2022-05-19 01:28:11,"same_different-task_switching-phon_sim-rhyme",2205.70000004768,"task_switching",13,10,1,"subtract",NA,NA,"No","No",4.75,4.4,"high_verbal",16,10,96.9339000005722,"subtract",1,1,1
"333","A1M64R8HPYNNZA","uncued",966,2196005,2022-05-19 01:28:11,"same_different-task_switching-phon_sim-rhyme",1933.90000009537,"task_switching",20,23,1,"add",NA,NA,"No","No",4.75,4.4,"high_verbal",23,17,96.9339000005722,"add",1,1,1
"334","A1M64R8HPYNNZA","uncued",967,2198125,2022-05-19 01:28:11,"same_different-task_switching-phon_sim-rhyme",2117.5,"task_switching",25,22,1,"subtract",NA,NA,"No","No",4.75,4.4,"high_verbal",28,22,96.9339000005722,"subtract",1,1,1
"335","A1M64R8HPYNNZA","uncued",968,2200692,2022-05-19 01:28:11,"same_different-task_switching-phon_sim-rhyme",2564.79999995232,"task_switching",17,20,1,"add",NA,NA,"No","No",4.75,4.4,"high_verbal",20,14,96.9339000005722,"add",1,1,1
"336","A1M64R8HPYNNZA","uncued",969,2203236,2022-05-19 01:28:11,"same_different-task_switching-phon_sim-rhyme",2540.79999995232,"task_switching",92,89,1,"subtract",NA,NA,"No","No",4.75,4.4,"high_verbal",95,89,96.9339000005722,"subtract",1,1,1
"337","A1O4Q0QVPVBF8M","uncued",182,506387,2022-05-19 02:22:38,"task_switching-phon_sim-same_different-rhyme",3118.5,"task_switching",23,26,1,"add",NA,NA,"Yes","Just serious concentration!",5,4.4,"high_verbal",26,20,97.9344000000358,"add",1,1,1
"338","A1O4Q0QVPVBF8M","uncued",183,509253,2022-05-19 02:22:38,"task_switching-phon_sim-same_different-rhyme",2864.40000000596,"task_switching",71,68,1,"subtract",NA,NA,"Yes","Just serious concentration!",5,4.4,"high_verbal",74,68,97.9344000000358,"subtract",1,1,1
"339","A1O4Q0QVPVBF8M","uncued",184,512533,2022-05-19 02:22:38,"task_switching-phon_sim-same_different-rhyme",3277.5,"task_switching",36,39,1,"add",NA,NA,"Yes","Just serious concentration!",5,4.4,"high_verbal",39,33,97.9344000000358,"add",1,1,1
"340","A1O4Q0QVPVBF8M","uncued",185,515607,2022-05-19 02:22:38,"task_switching-phon_sim-same_different-rhyme",3073.20000000298,"task_switching",89,86,1,"subtract",NA,NA,"Yes","Just serious concentration!",5,4.4,"high_verbal",92,86,97.9344000000358,"subtract",1,1,1
"341","A1O4Q0QVPVBF8M","uncued",186,518443,2022-05-19 02:22:38,"task_switching-phon_sim-same_different-rhyme",2834.29999999702,"task_switching",34,37,1,"add",NA,NA,"Yes","Just serious concentration!",5,4.4,"high_verbal",37,31,97.9344000000358,"add",1,1,1
"342","A1O4Q0QVPVBF8M","uncued",187,521509,2022-05-19 02:22:38,"task_switching-phon_sim-same_different-rhyme",3064.19999998808,"task_switching",75,72,1,"subtract",NA,NA,"Yes","Just serious concentration!",5,4.4,"high_verbal",78,72,97.9344000000358,"subtract",1,1,1
"343","A1O4Q0QVPVBF8M","uncued",188,525341,2022-05-19 02:22:38,"task_switching-phon_sim-same_different-rhyme",3830,"task_switching",88,91,1,"add",NA,NA,"Yes","Just serious concentration!",5,4.4,"high_verbal",91,85,97.9344000000358,"add",1,1,1
"344","A1O4Q0QVPVBF8M","uncued",189,528051,2022-05-19 02:22:38,"task_switching-phon_sim-same_different-rhyme",2708,"task_switching",44,41,1,"subtract",NA,NA,"Yes","Just serious concentration!",5,4.4,"high_verbal",47,41,97.9344000000358,"subtract",1,1,1
"345","A1O4Q0QVPVBF8M","uncued",190,530299,2022-05-19 02:22:38,"task_switching-phon_sim-same_different-rhyme",2246.20000000298,"task_switching",13,16,1,"add",NA,NA,"Yes","Just serious concentration!",5,4.4,"high_verbal",16,10,97.9344000000358,"add",1,1,1
"346","A1O4Q0QVPVBF8M","uncued",191,533817,2022-05-19 02:22:38,"task_switching-phon_sim-same_different-rhyme",3516.5,"task_switching",46,43,1,"subtract",NA,NA,"Yes","Just serious concentration!",5,4.4,"high_verbal",49,43,97.9344000000358,"subtract",1,1,1
"347","A1O4Q0QVPVBF8M","uncued",192,536149,2022-05-19 02:22:38,"task_switching-phon_sim-same_different-rhyme",2330.39999999106,"task_switching",87,90,1,"add",NA,NA,"Yes","Just serious concentration!",5,4.4,"high_verbal",90,84,97.9344000000358,"add",1,1,1
"348","A1O4Q0QVPVBF8M","uncued",193,538840,2022-05-19 02:22:38,"task_switching-phon_sim-same_different-rhyme",2689.70000000298,"task_switching",93,90,1,"subtract",NA,NA,"Yes","Just serious concentration!",5,4.4,"high_verbal",96,90,97.9344000000358,"subtract",1,1,1
"349","A1O4Q0QVPVBF8M","uncued",194,547273,2022-05-19 02:22:38,"task_switching-phon_sim-same_different-rhyme",8431.29999999702,"task_switching",49,52,1,"add",NA,NA,"Yes","Just serious concentration!",5,4.4,"high_verbal",52,46,97.9344000000358,"add",1,1,1
"350","A1O4Q0QVPVBF8M","uncued",195,550543,2022-05-19 02:22:38,"task_switching-phon_sim-same_different-rhyme",3268.5,"task_switching",18,15,1,"subtract",NA,NA,"Yes","Just serious concentration!",5,4.4,"high_verbal",21,15,97.9344000000358,"subtract",1,1,1
"351","A1O4Q0QVPVBF8M","uncued",196,556532,2022-05-19 02:22:38,"task_switching-phon_sim-same_different-rhyme",5987.59999999404,"task_switching",63,66,1,"add",NA,NA,"Yes","Just serious concentration!",5,4.4,"high_verbal",66,60,97.9344000000358,"add",1,1,1
"352","A1O4Q0QVPVBF8M","uncued",197,559422,2022-05-19 02:22:38,"task_switching-phon_sim-same_different-rhyme",2888.5,"task_switching",83,80,1,"subtract",NA,NA,"Yes","Just serious concentration!",5,4.4,"high_verbal",86,80,97.9344000000358,"subtract",1,1,1
"353","A1O4Q0QVPVBF8M","uncued",198,563601,2022-05-19 02:22:38,"task_switching-phon_sim-same_different-rhyme",4177.30000001192,"task_switching",37,34,0,"add",NA,NA,"Yes","Just serious concentration!",5,4.4,"high_verbal",40,34,97.9344000000358,"subtract",0,1,0
"354","A1O4Q0QVPVBF8M","uncued",199,565589,2022-05-19 02:22:38,"task_switching-phon_sim-same_different-rhyme",1986.20000000298,"task_switching",22,25,0,"subtract",NA,NA,"Yes","Just serious concentration!",5,4.4,"high_verbal",25,19,97.9344000000358,"add",0,1,1
"355","A1O4Q0QVPVBF8M","uncued",200,568045,2022-05-19 02:22:38,"task_switching-phon_sim-same_different-rhyme",2454.20000000298,"task_switching",82,79,0,"add",NA,NA,"Yes","Just serious concentration!",5,4.4,"high_verbal",85,79,97.9344000000358,"subtract",0,1,1
"356","A1O4Q0QVPVBF8M","uncued",201,570651,2022-05-19 02:22:38,"task_switching-phon_sim-same_different-rhyme",2604.90000000596,"task_switching",30,33,0,"subtract",NA,NA,"Yes","Just serious concentration!",5,4.4,"high_verbal",33,27,97.9344000000358,"add",0,1,1
"357","A1O4Q0QVPVBF8M","uncued",202,573853,2022-05-19 02:22:38,"task_switching-phon_sim-same_different-rhyme",3200.40000000596,"task_switching",39,36,0,"add",NA,NA,"Yes","Just serious concentration!",5,4.4,"high_verbal",42,36,97.9344000000358,"subtract",0,1,1
"358","A1O4Q0QVPVBF8M","uncued",203,577115,2022-05-19 02:22:38,"task_switching-phon_sim-same_different-rhyme",3260.40000000596,"task_switching",65,68,0,"subtract",NA,NA,"Yes","Just serious concentration!",5,4.4,"high_verbal",68,62,97.9344000000358,"add",0,1,1
"359","A1O4Q0QVPVBF8M","uncued",204,580195,2022-05-19 02:22:38,"task_switching-phon_sim-same_different-rhyme",3078.5,"task_switching",51,48,0,"add",NA,NA,"Yes","Just serious concentration!",5,4.4,"high_verbal",54,48,97.9344000000358,"subtract",0,1,1
"360","A1O4Q0QVPVBF8M","uncued",205,582996,2022-05-19 02:22:38,"task_switching-phon_sim-same_different-rhyme",2799.79999999702,"task_switching",57,60,0,"subtract",NA,NA,"Yes","Just serious concentration!",5,4.4,"high_verbal",60,54,97.9344000000358,"add",0,1,1
"361","A1O4Q0QVPVBF8M","uncued",206,585693,2022-05-19 02:22:38,"task_switching-phon_sim-same_different-rhyme",2695.40000000596,"task_switching",48,45,0,"add",NA,NA,"Yes","Just serious concentration!",5,4.4,"high_verbal",51,45,97.9344000000358,"subtract",0,1,1
"362","A1O4Q0QVPVBF8M","uncued",207,588867,2022-05-19 02:22:38,"task_switching-phon_sim-same_different-rhyme",3172.40000000596,"task_switching",86,89,0,"subtract",NA,NA,"Yes","Just serious concentration!",5,4.4,"high_verbal",89,83,97.9344000000358,"add",0,1,1
"363","A1O4Q0QVPVBF8M","uncued",208,592449,2022-05-19 02:22:38,"task_switching-phon_sim-same_different-rhyme",3580.40000000596,"task_switching",17,14,0,"add",NA,NA,"Yes","Just serious concentration!",5,4.4,"high_verbal",20,14,97.9344000000358,"subtract",0,1,1
"364","A1O4Q0QVPVBF8M","uncued",209,595902,2022-05-19 02:22:38,"task_switching-phon_sim-same_different-rhyme",3451.70000000298,"task_switching",31,34,0,"subtract",NA,NA,"Yes","Just serious concentration!",5,4.4,"high_verbal",34,28,97.9344000000358,"add",0,1,1
"365","A1O4Q0QVPVBF8M","uncued",210,598149,2022-05-19 02:22:38,"task_switching-phon_sim-same_different-rhyme",2245,"task_switching",53,50,0,"add",NA,NA,"Yes","Just serious concentration!",5,4.4,"high_verbal",56,50,97.9344000000358,"subtract",0,1,1
"366","A1O4Q0QVPVBF8M","uncued",211,601249,2022-05-19 02:22:38,"task_switching-phon_sim-same_different-rhyme",3099,"task_switching",56,59,0,"subtract",NA,NA,"Yes","Just serious concentration!",5,4.4,"high_verbal",59,53,97.9344000000358,"add",0,1,1
"367","A1PUSSRD8P5HHH","uncued",1137,1617895,2022-05-27 03:39:06,"rhyme-same_different-task_switching-phon_sim",3237,"task_switching",76,79,1,"add",NA,NA,"No","no",2.67,3,"low_verbal",79,73,100.173600000858,"add",1,1,1
"368","A1PUSSRD8P5HHH","uncued",1138,1622739,2022-05-27 03:39:06,"rhyme-same_different-task_switching-phon_sim",4832.59999990463,"task_switching",71,68,1,"subtract",NA,NA,"No","no",2.67,3,"low_verbal",74,68,100.173600000858,"subtract",1,1,1
"369","A1PUSSRD8P5HHH","uncued",1139,1626046,2022-05-27 03:39:06,"rhyme-same_different-task_switching-phon_sim",3292.7999997139,"task_switching",91,94,1,"add",NA,NA,"No","no",2.67,3,"low_verbal",94,88,100.173600000858,"add",1,1,1
"370","A1PUSSRD8P5HHH","uncued",1140,1629189,2022-05-27 03:39:06,"rhyme-same_different-task_switching-phon_sim",3134.39999961853,"task_switching",68,65,1,"subtract",NA,NA,"No","no",2.67,3,"low_verbal",71,65,100.173600000858,"subtract",1,1,1
"371","A1PUSSRD8P5HHH","uncued",1141,1633460,2022-05-27 03:39:06,"rhyme-same_different-task_switching-phon_sim",4260.80000019073,"task_switching",94,97,1,"add",NA,NA,"No","no",2.67,3,"low_verbal",97,91,100.173600000858,"add",1,1,1
"372","A1PUSSRD8P5HHH","uncued",1142,1636467,2022-05-27 03:39:06,"rhyme-same_different-task_switching-phon_sim",2998.7000002861,"task_switching",62,59,1,"subtract",NA,NA,"No","no",2.67,3,"low_verbal",65,59,100.173600000858,"subtract",1,1,1
"373","A1PUSSRD8P5HHH","uncued",1143,1639286,2022-05-27 03:39:06,"rhyme-same_different-task_switching-phon_sim",2813.19999980927,"task_switching",70,73,1,"add",NA,NA,"No","no",2.67,3,"low_verbal",73,67,100.173600000858,"add",1,1,1
"374","A1PUSSRD8P5HHH","uncued",1144,1643002,2022-05-27 03:39:06,"rhyme-same_different-task_switching-phon_sim",3707.90000009537,"task_switching",69,66,1,"subtract",NA,NA,"No","no",2.67,3,"low_verbal",72,66,100.173600000858,"subtract",1,1,1
