"","worker_id","condition","trial_index","time_elapsed","start_time","experiment_order","rt","experiment","phase","stimulus","answer","correct","operation","symbol_cue","trial_no","color_cue","talk_out_loud","strategy_free_ans","VerbalScored","VisualScored","high_low_verbal","correct_if_add","correct_if_subtract","trial_no_ptcpt","list_completion","operation_used","correct_operation","correct_arithmetic","switching_is_correct"
"1","77543","uncued",234,672130,2022-10-01 21:53:37,"task_switching-rhyme-phon_sim-same_different",3465.39999997616,"task_switching","experiment",77,80,1,"add",NA,0,NA,"No","remember both the other numbers",4.58333333333333,3.8,"high_verbal",80,74,121,92.3538999999762,"add",1,1,1
"2","77543","uncued",235,674467,2022-10-01 21:53:37,"task_switching-rhyme-phon_sim-same_different",2331.60000002384,"task_switching","experiment",88,85,1,"subtract",NA,1,NA,"No","remember both the other numbers",4.58333333333333,3.8,"high_verbal",91,85,122,92.3538999999762,"subtract",1,1,1
"3","77543","uncued",236,677014,2022-10-01 21:53:37,"task_switching-rhyme-phon_sim-same_different",2542.70000004768,"task_switching","experiment",60,63,1,"add",NA,2,NA,"No","remember both the other numbers",4.58333333333333,3.8,"high_verbal",63,57,123,92.3538999999762,"add",1,1,1
"4","77543","uncued",237,678594,2022-10-01 21:53:37,"task_switching-rhyme-phon_sim-same_different",1573.60000002384,"task_switching","experiment",45,52,0,"subtract",NA,3,NA,"No","remember both the other numbers",4.58333333333333,3.8,"high_verbal",48,42,124,92.3538999999762,"add",0,0,0
"5","77543","uncued",238,679925,2022-10-01 21:53:37,"task_switching-rhyme-phon_sim-same_different",1326.89999997616,"task_switching","experiment",54,57,1,"add",NA,4,NA,"No","remember both the other numbers",4.58333333333333,3.8,"high_verbal",57,51,125,92.3538999999762,"add",1,1,0
"6","77543","uncued",239,681748,2022-10-01 21:53:37,"task_switching-rhyme-phon_sim-same_different",1817.89999997616,"task_switching","experiment",26,23,1,"subtract",NA,5,NA,"No","remember both the other numbers",4.58333333333333,3.8,"high_verbal",29,23,126,92.3538999999762,"subtract",1,1,1
"7","77543","uncued",240,683429,2022-10-01 21:53:37,"task_switching-rhyme-phon_sim-same_different",1675.29999995232,"task_switching","experiment",79,82,1,"add",NA,6,NA,"No","remember both the other numbers",4.58333333333333,3.8,"high_verbal",82,76,127,92.3538999999762,"add",1,1,1
"8","77543","uncued",241,689810,2022-10-01 21:53:37,"task_switching-rhyme-phon_sim-same_different",6376.79999995232,"task_switching","experiment",91,88,1,"subtract",NA,7,NA,"No","remember both the other numbers",4.58333333333333,3.8,"high_verbal",94,88,128,92.3538999999762,"subtract",1,1,1
"9","77543","uncued",242,691737,2022-10-01 21:53:37,"task_switching-rhyme-phon_sim-same_different",1920.89999997616,"task_switching","experiment",19,22,1,"add",NA,8,NA,"No","remember both the other numbers",4.58333333333333,3.8,"high_verbal",22,16,129,92.3538999999762,"add",1,1,1
"10","77543","uncued",243,695164,2022-10-01 21:53:37,"task_switching-rhyme-phon_sim-same_different",3422.89999997616,"task_switching","experiment",63,60,1,"subtract",NA,9,NA,"No","remember both the other numbers",4.58333333333333,3.8,"high_verbal",66,60,130,92.3538999999762,"subtract",1,1,1
"11","77543","uncued",244,696960,2022-10-01 21:53:37,"task_switching-rhyme-phon_sim-same_different",1790.39999997616,"task_switching","experiment",47,50,1,"add",NA,10,NA,"No","remember both the other numbers",4.58333333333333,3.8,"high_verbal",50,44,131,92.3538999999762,"add",1,1,1
"12","77543","uncued",245,702353,2022-10-01 21:53:37,"task_switching-rhyme-phon_sim-same_different",5389.20000004768,"task_switching","experiment",39,36,1,"subtract",NA,11,NA,"No","remember both the other numbers",4.58333333333333,3.8,"high_verbal",42,36,132,92.3538999999762,"subtract",1,1,1
"13","77543","uncued",246,709714,2022-10-01 21:53:37,"task_switching-rhyme-phon_sim-same_different",7357.29999995232,"task_switching","experiment",83,80,0,"add",NA,12,NA,"No","remember both the other numbers",4.58333333333333,3.8,"high_verbal",86,80,133,92.3538999999762,"subtract",0,1,0
"14","77543","uncued",247,714222,2022-10-01 21:53:37,"task_switching-rhyme-phon_sim-same_different",4502.89999997616,"task_switching","experiment",94,97,0,"subtract",NA,13,NA,"No","remember both the other numbers",4.58333333333333,3.8,"high_verbal",97,91,134,92.3538999999762,"add",0,1,1
"15","77543","uncued",248,718100,2022-10-01 21:53:37,"task_switching-rhyme-phon_sim-same_different",3872.70000004768,"task_switching","experiment",69,66,0,"add",NA,14,NA,"No","remember both the other numbers",4.58333333333333,3.8,"high_verbal",72,66,135,92.3538999999762,"subtract",0,1,1
"16","77543","uncued",249,719846,2022-10-01 21:53:37,"task_switching-rhyme-phon_sim-same_different",1741.39999997616,"task_switching","experiment",32,35,0,"subtract",NA,15,NA,"No","remember both the other numbers",4.58333333333333,3.8,"high_verbal",35,29,136,92.3538999999762,"add",0,1,1
"17","77543","uncued",250,724868,2022-10-01 21:53:37,"task_switching-rhyme-phon_sim-same_different",5017.39999997616,"task_switching","experiment",42,39,0,"add",NA,16,NA,"No","remember both the other numbers",4.58333333333333,3.8,"high_verbal",45,39,137,92.3538999999762,"subtract",0,1,1
"18","77543","uncued",251,727136,2022-10-01 21:53:37,"task_switching-rhyme-phon_sim-same_different",2263.20000004768,"task_switching","experiment",81,84,0,"subtract",NA,17,NA,"No","remember both the other numbers",4.58333333333333,3.8,"high_verbal",84,78,138,92.3538999999762,"add",0,1,1
"19","77543","uncued",252,728923,2022-10-01 21:53:37,"task_switching-rhyme-phon_sim-same_different",1782.10000002384,"task_switching","experiment",35,32,0,"add",NA,18,NA,"No","remember both the other numbers",4.58333333333333,3.8,"high_verbal",38,32,139,92.3538999999762,"subtract",0,1,1
"20","77543","uncued",253,732072,2022-10-01 21:53:37,"task_switching-rhyme-phon_sim-same_different",3144.20000004768,"task_switching","experiment",90,93,0,"subtract",NA,19,NA,"No","remember both the other numbers",4.58333333333333,3.8,"high_verbal",93,87,140,92.3538999999762,"add",0,1,1
"21","77543","uncued",254,736204,2022-10-01 21:53:37,"task_switching-rhyme-phon_sim-same_different",4126.70000004768,"task_switching","experiment",71,68,0,"add",NA,20,NA,"No","remember both the other numbers",4.58333333333333,3.8,"high_verbal",74,68,141,92.3538999999762,"subtract",0,1,1
"22","77543","uncued",255,741281,2022-10-01 21:53:37,"task_switching-rhyme-phon_sim-same_different",5071.5,"task_switching","experiment",22,25,0,"subtract",NA,21,NA,"No","remember both the other numbers",4.58333333333333,3.8,"high_verbal",25,19,142,92.3538999999762,"add",0,1,1
"23","77543","uncued",256,744612,2022-10-01 21:53:37,"task_switching-rhyme-phon_sim-same_different",3327.39999997616,"task_switching","experiment",73,70,0,"add",NA,22,NA,"No","remember both the other numbers",4.58333333333333,3.8,"high_verbal",76,70,143,92.3538999999762,"subtract",0,1,1
"24","77543","uncued",257,747873,2022-10-01 21:53:37,"task_switching-rhyme-phon_sim-same_different",3256.5,"task_switching","experiment",82,79,1,"subtract",NA,23,NA,"No","remember both the other numbers",4.58333333333333,3.8,"high_verbal",85,79,144,92.3538999999762,"subtract",1,1,0
"25","77543","uncued",258,749264,2022-10-01 21:53:37,"task_switching-rhyme-phon_sim-same_different",1387,"task_switching","experiment",41,44,1,"add",NA,24,NA,"No","remember both the other numbers",4.58333333333333,3.8,"high_verbal",44,38,145,92.3538999999762,"add",1,1,1
"26","77543","uncued",259,751684,2022-10-01 21:53:37,"task_switching-rhyme-phon_sim-same_different",2415,"task_switching","experiment",50,47,1,"subtract",NA,25,NA,"No","remember both the other numbers",4.58333333333333,3.8,"high_verbal",53,47,146,92.3538999999762,"subtract",1,1,1
"27","77543","uncued",260,753363,2022-10-01 21:53:37,"task_switching-rhyme-phon_sim-same_different",1674.20000004768,"task_switching","experiment",86,89,1,"add",NA,26,NA,"No","remember both the other numbers",4.58333333333333,3.8,"high_verbal",89,83,147,92.3538999999762,"add",1,1,1
"28","77543","uncued",261,755758,2022-10-01 21:53:37,"task_switching-rhyme-phon_sim-same_different",2391.89999997616,"task_switching","experiment",53,50,1,"subtract",NA,27,NA,"No","remember both the other numbers",4.58333333333333,3.8,"high_verbal",56,50,148,92.3538999999762,"subtract",1,1,1
"29","77543","uncued",262,757662,2022-10-01 21:53:37,"task_switching-rhyme-phon_sim-same_different",1899,"task_switching","experiment",67,70,1,"add",NA,28,NA,"No","remember both the other numbers",4.58333333333333,3.8,"high_verbal",70,64,149,92.3538999999762,"add",1,1,1
"30","77543","uncued",263,761157,2022-10-01 21:53:37,"task_switching-rhyme-phon_sim-same_different",3489.89999997616,"task_switching","experiment",13,10,1,"subtract",NA,29,NA,"No","remember both the other numbers",4.58333333333333,3.8,"high_verbal",16,10,150,92.3538999999762,"subtract",1,1,1
"31","77593","uncued",182,633071,2022-09-30 23:42:52,"task_switching-rhyme-phon_sim-same_different",1401.80000019073,"task_switching","experiment",72,75,1,"add",NA,0,NA,"No","In my head I said ""Add"" or ""subtract"" to keep track of which operation to perform.",4.75,4.4,"high_verbal",75,69,91,59.9343999977112,"add",1,1,1
"32","77593","uncued",183,634495,2022-09-30 23:42:52,"task_switching-rhyme-phon_sim-same_different",1422.80000019073,"task_switching","experiment",37,34,1,"subtract",NA,1,NA,"No","In my head I said ""Add"" or ""subtract"" to keep track of which operation to perform.",4.75,4.4,"high_verbal",40,34,92,59.9343999977112,"subtract",1,1,1
"33","77593","uncued",184,635947,2022-09-30 23:42:52,"task_switching-rhyme-phon_sim-same_different",1450.39999961853,"task_switching","experiment",87,90,1,"add",NA,2,NA,"No","In my head I said ""Add"" or ""subtract"" to keep track of which operation to perform.",4.75,4.4,"high_verbal",90,84,93,59.9343999977112,"add",1,1,1
"34","77593","uncued",185,637625,2022-09-30 23:42:52,"task_switching-rhyme-phon_sim-same_different",1676.39999961853,"task_switching","experiment",43,40,1,"subtract",NA,3,NA,"No","In my head I said ""Add"" or ""subtract"" to keep track of which operation to perform.",4.75,4.4,"high_verbal",46,40,94,59.9343999977112,"subtract",1,1,1
"35","77593","uncued",186,639515,2022-09-30 23:42:52,"task_switching-rhyme-phon_sim-same_different",1888.19999980927,"task_switching","experiment",86,89,1,"add",NA,4,NA,"No","In my head I said ""Add"" or ""subtract"" to keep track of which operation to perform.",4.75,4.4,"high_verbal",89,83,95,59.9343999977112,"add",1,1,1
"36","77593","uncued",187,641346,2022-09-30 23:42:52,"task_switching-rhyme-phon_sim-same_different",1828.89999961853,"task_switching","experiment",65,62,1,"subtract",NA,5,NA,"No","In my head I said ""Add"" or ""subtract"" to keep track of which operation to perform.",4.75,4.4,"high_verbal",68,62,96,59.9343999977112,"subtract",1,1,1
"37","77593","uncued",188,642600,2022-09-30 23:42:52,"task_switching-rhyme-phon_sim-same_different",1252.5,"task_switching","experiment",52,55,1,"add",NA,6,NA,"No","In my head I said ""Add"" or ""subtract"" to keep track of which operation to perform.",4.75,4.4,"high_verbal",55,49,97,59.9343999977112,"add",1,1,1
"38","77593","uncued",189,643984,2022-09-30 23:42:52,"task_switching-rhyme-phon_sim-same_different",1381.70000076294,"task_switching","experiment",29,26,1,"subtract",NA,7,NA,"No","In my head I said ""Add"" or ""subtract"" to keep track of which operation to perform.",4.75,4.4,"high_verbal",32,26,98,59.9343999977112,"subtract",1,1,1
"39","77593","uncued",190,646618,2022-09-30 23:42:52,"task_switching-rhyme-phon_sim-same_different",2632.69999980927,"task_switching","experiment",26,29,1,"add",NA,8,NA,"No","In my head I said ""Add"" or ""subtract"" to keep track of which operation to perform.",4.75,4.4,"high_verbal",29,23,99,59.9343999977112,"add",1,1,1
"40","77593","uncued",191,649584,2022-09-30 23:42:52,"task_switching-rhyme-phon_sim-same_different",2964.80000019073,"task_switching","experiment",51,48,1,"subtract",NA,9,NA,"No","In my head I said ""Add"" or ""subtract"" to keep track of which operation to perform.",4.75,4.4,"high_verbal",54,48,100,59.9343999977112,"subtract",1,1,1
"41","77593","uncued",192,651430,2022-09-30 23:42:52,"task_switching-rhyme-phon_sim-same_different",1843.5999994278,"task_switching","experiment",62,65,1,"add",NA,10,NA,"No","In my head I said ""Add"" or ""subtract"" to keep track of which operation to perform.",4.75,4.4,"high_verbal",65,59,101,59.9343999977112,"add",1,1,1
"42","77593","uncued",193,653475,2022-09-30 23:42:52,"task_switching-rhyme-phon_sim-same_different",2043.30000019073,"task_switching","experiment",84,81,1,"subtract",NA,11,NA,"No","In my head I said ""Add"" or ""subtract"" to keep track of which operation to perform.",4.75,4.4,"high_verbal",87,81,102,59.9343999977112,"subtract",1,1,1
"43","77593","uncued",194,655094,2022-09-30 23:42:52,"task_switching-rhyme-phon_sim-same_different",1617,"task_switching","experiment",19,22,1,"add",NA,12,NA,"No","In my head I said ""Add"" or ""subtract"" to keep track of which operation to perform.",4.75,4.4,"high_verbal",22,16,103,59.9343999977112,"add",1,1,1
"44","77593","uncued",195,659819,2022-09-30 23:42:52,"task_switching-rhyme-phon_sim-same_different",4723.5,"task_switching","experiment",41,38,1,"subtract",NA,13,NA,"No","In my head I said ""Add"" or ""subtract"" to keep track of which operation to perform.",4.75,4.4,"high_verbal",44,38,104,59.9343999977112,"subtract",1,1,1
"45","77593","uncued",196,662217,2022-09-30 23:42:52,"task_switching-rhyme-phon_sim-same_different",2396.0999994278,"task_switching","experiment",56,59,1,"add",NA,14,NA,"No","In my head I said ""Add"" or ""subtract"" to keep track of which operation to perform.",4.75,4.4,"high_verbal",59,53,105,59.9343999977112,"add",1,1,1
"46","77593","uncued",197,664490,2022-09-30 23:42:52,"task_switching-rhyme-phon_sim-same_different",2272,"task_switching","experiment",81,78,1,"subtract",NA,15,NA,"No","In my head I said ""Add"" or ""subtract"" to keep track of which operation to perform.",4.75,4.4,"high_verbal",84,78,106,59.9343999977112,"subtract",1,1,1
"47","77593","uncued",198,666022,2022-09-30 23:42:52,"task_switching-rhyme-phon_sim-same_different",1530.39999961853,"task_switching","experiment",42,45,1,"add",NA,16,NA,"No","In my head I said ""Add"" or ""subtract"" to keep track of which operation to perform.",4.75,4.4,"high_verbal",45,39,107,59.9343999977112,"add",1,1,1
"48","77593","uncued",199,667837,2022-09-30 23:42:52,"task_switching-rhyme-phon_sim-same_different",1813.19999980927,"task_switching","experiment",50,47,1,"subtract",NA,17,NA,"No","In my head I said ""Add"" or ""subtract"" to keep track of which operation to perform.",4.75,4.4,"high_verbal",53,47,108,59.9343999977112,"subtract",1,1,1
"49","77593","uncued",200,669524,2022-09-30 23:42:52,"task_switching-rhyme-phon_sim-same_different",1684.5,"task_switching","experiment",90,93,1,"add",NA,18,NA,"No","In my head I said ""Add"" or ""subtract"" to keep track of which operation to perform.",4.75,4.4,"high_verbal",93,87,109,59.9343999977112,"add",1,1,1
"50","77593","uncued",201,671374,2022-09-30 23:42:52,"task_switching-rhyme-phon_sim-same_different",1849.19999980927,"task_switching","experiment",75,72,1,"subtract",NA,19,NA,"No","In my head I said ""Add"" or ""subtract"" to keep track of which operation to perform.",4.75,4.4,"high_verbal",78,72,110,59.9343999977112,"subtract",1,1,1
"51","77593","uncued",202,673712,2022-09-30 23:42:52,"task_switching-rhyme-phon_sim-same_different",2335.5999994278,"task_switching","experiment",83,86,1,"add",NA,20,NA,"No","In my head I said ""Add"" or ""subtract"" to keep track of which operation to perform.",4.75,4.4,"high_verbal",86,80,111,59.9343999977112,"add",1,1,1
"52","77593","uncued",203,675035,2022-09-30 23:42:52,"task_switching-rhyme-phon_sim-same_different",1321.5,"task_switching","experiment",18,15,1,"subtract",NA,21,NA,"No","In my head I said ""Add"" or ""subtract"" to keep track of which operation to perform.",4.75,4.4,"high_verbal",21,15,112,59.9343999977112,"subtract",1,1,1
"53","77593","uncued",204,677937,2022-09-30 23:42:52,"task_switching-rhyme-phon_sim-same_different",2900,"task_switching","experiment",59,62,1,"add",NA,22,NA,"No","In my head I said ""Add"" or ""subtract"" to keep track of which operation to perform.",4.75,4.4,"high_verbal",62,56,113,59.9343999977112,"add",1,1,1
"54","77593","uncued",205,679440,2022-09-30 23:42:52,"task_switching-rhyme-phon_sim-same_different",1500.9000005722,"task_switching","experiment",93,90,1,"subtract",NA,23,NA,"No","In my head I said ""Add"" or ""subtract"" to keep track of which operation to perform.",4.75,4.4,"high_verbal",96,90,114,59.9343999977112,"subtract",1,1,1
"55","77593","uncued",206,681572,2022-09-30 23:42:52,"task_switching-rhyme-phon_sim-same_different",2130.5,"task_switching","experiment",35,38,1,"add",NA,24,NA,"No","In my head I said ""Add"" or ""subtract"" to keep track of which operation to perform.",4.75,4.4,"high_verbal",38,32,115,59.9343999977112,"add",1,1,1
"56","77593","uncued",207,684108,2022-09-30 23:42:52,"task_switching-rhyme-phon_sim-same_different",2534.29999923706,"task_switching","experiment",63,60,1,"subtract",NA,25,NA,"No","In my head I said ""Add"" or ""subtract"" to keep track of which operation to perform.",4.75,4.4,"high_verbal",66,60,116,59.9343999977112,"subtract",1,1,1
"57","77593","uncued",208,686347,2022-09-30 23:42:52,"task_switching-rhyme-phon_sim-same_different",2237.9000005722,"task_switching","experiment",58,61,1,"add",NA,26,NA,"No","In my head I said ""Add"" or ""subtract"" to keep track of which operation to perform.",4.75,4.4,"high_verbal",61,55,117,59.9343999977112,"add",1,1,1
"58","77593","uncued",209,687538,2022-09-30 23:42:52,"task_switching-rhyme-phon_sim-same_different",1189.19999980927,"task_switching","experiment",17,14,1,"subtract",NA,27,NA,"No","In my head I said ""Add"" or ""subtract"" to keep track of which operation to perform.",4.75,4.4,"high_verbal",20,14,118,59.9343999977112,"subtract",1,1,1
"59","77593","uncued",210,690029,2022-09-30 23:42:52,"task_switching-rhyme-phon_sim-same_different",2489,"task_switching","experiment",27,30,1,"add",NA,28,NA,"No","In my head I said ""Add"" or ""subtract"" to keep track of which operation to perform.",4.75,4.4,"high_verbal",30,24,119,59.9343999977112,"add",1,1,1
"60","77593","uncued",211,691653,2022-09-30 23:42:52,"task_switching-rhyme-phon_sim-same_different",1622.5,"task_switching","experiment",23,20,1,"subtract",NA,29,NA,"No","In my head I said ""Add"" or ""subtract"" to keep track of which operation to perform.",4.75,4.4,"high_verbal",26,20,120,59.9343999977112,"subtract",1,1,1
"61","77763","uncued",327,667897,2022-10-01 21:54:26,"rhyme-task_switching-same_different-phon_sim",2153.90000000596,"task_switching","experiment",56,59,1,"add",NA,0,NA,"No","N/A",3,3.8,"low_verbal",59,53,61,75.5204999999851,"add",1,1,1
"62","77763","uncued",328,672360,2022-10-01 21:54:26,"rhyme-task_switching-same_different-phon_sim",4459.89999999106,"task_switching","experiment",60,57,1,"subtract",NA,1,NA,"No","N/A",3,3.8,"low_verbal",63,57,62,75.5204999999851,"subtract",1,1,1
"63","77763","uncued",329,674346,2022-10-01 21:54:26,"rhyme-task_switching-same_different-phon_sim",1981.79999999702,"task_switching","experiment",50,53,1,"add",NA,2,NA,"No","N/A",3,3.8,"low_verbal",53,47,63,75.5204999999851,"add",1,1,1
"64","77763","uncued",330,676901,2022-10-01 21:54:26,"rhyme-task_switching-same_different-phon_sim",2552.10000000894,"task_switching","experiment",47,44,1,"subtract",NA,3,NA,"No","N/A",3,3.8,"low_verbal",50,44,64,75.5204999999851,"subtract",1,1,1
"65","77763","uncued",331,678877,2022-10-01 21:54:26,"rhyme-task_switching-same_different-phon_sim",1972.5,"task_switching","experiment",95,98,1,"add",NA,4,NA,"No","N/A",3,3.8,"low_verbal",98,92,65,75.5204999999851,"add",1,1,1
"66","77763","uncued",332,681316,2022-10-01 21:54:26,"rhyme-task_switching-same_different-phon_sim",2436.29999999702,"task_switching","experiment",76,73,1,"subtract",NA,5,NA,"No","N/A",3,3.8,"low_verbal",79,73,66,75.5204999999851,"subtract",1,1,1
"67","77763","uncued",333,684658,2022-10-01 21:54:26,"rhyme-task_switching-same_different-phon_sim",3339.79999999702,"task_switching","experiment",55,58,1,"add",NA,6,NA,"No","N/A",3,3.8,"low_verbal",58,52,67,75.5204999999851,"add",1,1,1
"68","77763","uncued",334,688718,2022-10-01 21:54:26,"rhyme-task_switching-same_different-phon_sim",4056.40000000596,"task_switching","experiment",61,58,1,"subtract",NA,7,NA,"No","N/A",3,3.8,"low_verbal",64,58,68,75.5204999999851,"subtract",1,1,1
"69","77763","uncued",335,690626,2022-10-01 21:54:26,"rhyme-task_switching-same_different-phon_sim",1903.29999999702,"task_switching","experiment",45,48,1,"add",NA,8,NA,"No","N/A",3,3.8,"low_verbal",48,42,69,75.5204999999851,"add",1,1,1
"70","77763","uncued",336,692925,2022-10-01 21:54:26,"rhyme-task_switching-same_different-phon_sim",2296.40000000596,"task_switching","experiment",77,74,1,"subtract",NA,9,NA,"No","N/A",3,3.8,"low_verbal",80,74,70,75.5204999999851,"subtract",1,1,1
"71","77763","uncued",337,695143,2022-10-01 21:54:26,"rhyme-task_switching-same_different-phon_sim",2214.5,"task_switching","experiment",82,85,1,"add",NA,10,NA,"No","N/A",3,3.8,"low_verbal",85,79,71,75.5204999999851,"add",1,1,1
"72","77763","uncued",338,696716,2022-10-01 21:54:26,"rhyme-task_switching-same_different-phon_sim",1569.59999999404,"task_switching","experiment",36,33,1,"subtract",NA,11,NA,"No","N/A",3,3.8,"low_verbal",39,33,72,75.5204999999851,"subtract",1,1,1
"73","77763","uncued",339,698525,2022-10-01 21:54:26,"rhyme-task_switching-same_different-phon_sim",1805.90000000596,"task_switching","experiment",44,47,1,"add",NA,12,NA,"No","N/A",3,3.8,"low_verbal",47,41,73,75.5204999999851,"add",1,1,1
"74","77763","uncued",340,701821,2022-10-01 21:54:26,"rhyme-task_switching-same_different-phon_sim",3293,"task_switching","experiment",78,75,1,"subtract",NA,13,NA,"No","N/A",3,3.8,"low_verbal",81,75,74,75.5204999999851,"subtract",1,1,1
"75","77763","uncued",341,703655,2022-10-01 21:54:26,"rhyme-task_switching-same_different-phon_sim",1831,"task_switching","experiment",46,49,1,"add",NA,14,NA,"No","N/A",3,3.8,"low_verbal",49,43,75,75.5204999999851,"add",1,1,1
"76","77763","uncued",342,705935,2022-10-01 21:54:26,"rhyme-task_switching-same_different-phon_sim",2277.39999999106,"task_switching","experiment",33,30,1,"subtract",NA,15,NA,"No","N/A",3,3.8,"low_verbal",36,30,76,75.5204999999851,"subtract",1,1,1
"77","77763","uncued",343,708473,2022-10-01 21:54:26,"rhyme-task_switching-same_different-phon_sim",2535,"task_switching","experiment",72,75,1,"add",NA,16,NA,"No","N/A",3,3.8,"low_verbal",75,69,77,75.5204999999851,"add",1,1,1
"78","77763","uncued",344,710157,2022-10-01 21:54:26,"rhyme-task_switching-same_different-phon_sim",1680.5,"task_switching","experiment",66,63,1,"subtract",NA,17,NA,"No","N/A",3,3.8,"low_verbal",69,63,78,75.5204999999851,"subtract",1,1,1
"79","77763","uncued",345,711957,2022-10-01 21:54:26,"rhyme-task_switching-same_different-phon_sim",1796.79999999702,"task_switching","experiment",87,90,1,"add",NA,18,NA,"No","N/A",3,3.8,"low_verbal",90,84,79,75.5204999999851,"add",1,1,1
"80","77763","uncued",346,714800,2022-10-01 21:54:26,"rhyme-task_switching-same_different-phon_sim",2839.5,"task_switching","experiment",93,90,1,"subtract",NA,19,NA,"No","N/A",3,3.8,"low_verbal",96,90,80,75.5204999999851,"subtract",1,1,1
"81","77763","uncued",347,717716,2022-10-01 21:54:26,"rhyme-task_switching-same_different-phon_sim",2912.70000000298,"task_switching","experiment",67,80,0,"add",NA,20,NA,"No","N/A",3,3.8,"low_verbal",70,64,81,75.5204999999851,"add",1,0,0
"82","77763","uncued",348,721356,2022-10-01 21:54:26,"rhyme-task_switching-same_different-phon_sim",3636.20000000298,"task_switching","experiment",85,82,1,"subtract",NA,21,NA,"No","N/A",3,3.8,"low_verbal",88,82,82,75.5204999999851,"subtract",1,1,1
"83","77763","uncued",349,723744,2022-10-01 21:54:26,"rhyme-task_switching-same_different-phon_sim",2384.39999999106,"task_switching","experiment",59,62,1,"add",NA,22,NA,"No","N/A",3,3.8,"low_verbal",62,56,83,75.5204999999851,"add",1,1,1
"84","77763","uncued",350,726327,2022-10-01 21:54:26,"rhyme-task_switching-same_different-phon_sim",2579.20000000298,"task_switching","experiment",65,62,1,"subtract",NA,23,NA,"No","N/A",3,3.8,"low_verbal",68,62,84,75.5204999999851,"subtract",1,1,1
"85","77763","uncued",351,727961,2022-10-01 21:54:26,"rhyme-task_switching-same_different-phon_sim",1630.79999999702,"task_switching","experiment",23,26,1,"add",NA,24,NA,"No","N/A",3,3.8,"low_verbal",26,20,85,75.5204999999851,"add",1,1,1
"86","77763","uncued",352,729960,2022-10-01 21:54:26,"rhyme-task_switching-same_different-phon_sim",1996.70000000298,"task_switching","experiment",26,23,1,"subtract",NA,25,NA,"No","N/A",3,3.8,"low_verbal",29,23,86,75.5204999999851,"subtract",1,1,1
"87","77763","uncued",353,733601,2022-10-01 21:54:26,"rhyme-task_switching-same_different-phon_sim",3637.79999999702,"task_switching","experiment",91,94,1,"add",NA,26,NA,"No","N/A",3,3.8,"low_verbal",94,88,87,75.5204999999851,"add",1,1,1
"88","77763","uncued",354,735915,2022-10-01 21:54:26,"rhyme-task_switching-same_different-phon_sim",2310.40000000596,"task_switching","experiment",29,26,1,"subtract",NA,27,NA,"No","N/A",3,3.8,"low_verbal",32,26,88,75.5204999999851,"subtract",1,1,1
"89","77763","uncued",355,737753,2022-10-01 21:54:26,"rhyme-task_switching-same_different-phon_sim",1834.89999999106,"task_switching","experiment",43,46,1,"add",NA,28,NA,"No","N/A",3,3.8,"low_verbal",46,40,89,75.5204999999851,"add",1,1,1
"90","77763","uncued",356,741357,2022-10-01 21:54:26,"rhyme-task_switching-same_different-phon_sim",3601.79999999702,"task_switching","experiment",89,86,1,"subtract",NA,29,NA,"No","N/A",3,3.8,"low_verbal",92,86,90,75.5204999999851,"subtract",1,1,1
"91","77815","uncued",234,678761,2022-10-02 13:54:54,"task_switching-rhyme-phon_sim-same_different",1735.80000000075,"task_switching","experiment",13,16,1,"add",NA,0,NA,"Yes","N/A",4.83333333333333,4.6,"high_verbal",16,10,121,81.8407000000011,"add",1,1,1
"92","77815","uncued",235,680728,2022-10-02 13:54:54,"task_switching-rhyme-phon_sim-same_different",1964.69999999925,"task_switching","experiment",15,12,1,"subtract",NA,1,NA,"Yes","N/A",4.83333333333333,4.6,"high_verbal",18,12,122,81.8407000000011,"subtract",1,1,1
"93","77815","uncued",236,682400,2022-10-02 13:54:54,"task_switching-rhyme-phon_sim-same_different",1670,"task_switching","experiment",23,26,1,"add",NA,2,NA,"Yes","N/A",4.83333333333333,4.6,"high_verbal",26,20,123,81.8407000000011,"add",1,1,1
"94","77815","uncued",237,687162,2022-10-02 13:54:54,"task_switching-rhyme-phon_sim-same_different",4760.10000000149,"task_switching","experiment",62,59,1,"subtract",NA,3,NA,"Yes","N/A",4.83333333333333,4.6,"high_verbal",65,59,124,81.8407000000011,"subtract",1,1,1
"95","77815","uncued",238,689683,2022-10-02 13:54:54,"task_switching-rhyme-phon_sim-same_different",2518.09999999963,"task_switching","experiment",76,79,1,"add",NA,4,NA,"Yes","N/A",4.83333333333333,4.6,"high_verbal",79,73,125,81.8407000000011,"add",1,1,1
"96","77815","uncued",239,691312,2022-10-02 13:54:54,"task_switching-rhyme-phon_sim-same_different",1626.79999999888,"task_switching","experiment",36,33,1,"subtract",NA,5,NA,"Yes","N/A",4.83333333333333,4.6,"high_verbal",39,33,126,81.8407000000011,"subtract",1,1,1
"97","77815","uncued",240,692873,2022-10-02 13:54:54,"task_switching-rhyme-phon_sim-same_different",1559.80000000075,"task_switching","experiment",20,23,1,"add",NA,6,NA,"Yes","N/A",4.83333333333333,4.6,"high_verbal",23,17,127,81.8407000000011,"add",1,1,1
"98","77815","uncued",241,696023,2022-10-02 13:54:54,"task_switching-rhyme-phon_sim-same_different",3147.5,"task_switching","experiment",77,74,1,"subtract",NA,7,NA,"Yes","N/A",4.83333333333333,4.6,"high_verbal",80,74,128,81.8407000000011,"subtract",1,1,1
"99","77815","uncued",242,699398,2022-10-02 13:54:54,"task_switching-rhyme-phon_sim-same_different",3372.90000000037,"task_switching","experiment",68,71,1,"add",NA,8,NA,"Yes","N/A",4.83333333333333,4.6,"high_verbal",71,65,129,81.8407000000011,"add",1,1,1
"100","77815","uncued",243,701439,2022-10-02 13:54:54,"task_switching-rhyme-phon_sim-same_different",2038.69999999925,"task_switching","experiment",74,71,1,"subtract",NA,9,NA,"Yes","N/A",4.83333333333333,4.6,"high_verbal",77,71,130,81.8407000000011,"subtract",1,1,1
"101","77815","uncued",244,705362,2022-10-02 13:54:54,"task_switching-rhyme-phon_sim-same_different",3921.40000000037,"task_switching","experiment",48,51,1,"add",NA,10,NA,"Yes","N/A",4.83333333333333,4.6,"high_verbal",51,45,131,81.8407000000011,"add",1,1,1
"102","77815","uncued",245,708186,2022-10-02 13:54:54,"task_switching-rhyme-phon_sim-same_different",2821.69999999925,"task_switching","experiment",22,19,1,"subtract",NA,11,NA,"Yes","N/A",4.83333333333333,4.6,"high_verbal",25,19,132,81.8407000000011,"subtract",1,1,1
"103","77815","uncued",246,710642,2022-10-02 13:54:54,"task_switching-rhyme-phon_sim-same_different",2453.70000000112,"task_switching","experiment",87,90,1,"add",NA,12,NA,"Yes","N/A",4.83333333333333,4.6,"high_verbal",90,84,133,81.8407000000011,"add",1,1,1
"104","77815","uncued",247,714081,2022-10-02 13:54:54,"task_switching-rhyme-phon_sim-same_different",3437.39999999851,"task_switching","experiment",72,69,1,"subtract",NA,13,NA,"Yes","N/A",4.83333333333333,4.6,"high_verbal",75,69,134,81.8407000000011,"subtract",1,1,1
"105","77815","uncued",248,716332,2022-10-02 13:54:54,"task_switching-rhyme-phon_sim-same_different",2249.29999999888,"task_switching","experiment",32,35,1,"add",NA,14,NA,"Yes","N/A",4.83333333333333,4.6,"high_verbal",35,29,135,81.8407000000011,"add",1,1,1
"106","77815","uncued",249,718436,2022-10-02 13:54:54,"task_switching-rhyme-phon_sim-same_different",2101.5,"task_switching","experiment",63,60,1,"subtract",NA,15,NA,"Yes","N/A",4.83333333333333,4.6,"high_verbal",66,60,136,81.8407000000011,"subtract",1,1,1
"107","77815","uncued",250,720207,2022-10-02 13:54:54,"task_switching-rhyme-phon_sim-same_different",1768.80000000075,"task_switching","experiment",34,37,1,"add",NA,16,NA,"Yes","N/A",4.83333333333333,4.6,"high_verbal",37,31,137,81.8407000000011,"add",1,1,1
"108","77815","uncued",251,723799,2022-10-02 13:54:54,"task_switching-rhyme-phon_sim-same_different",3589.80000000075,"task_switching","experiment",38,35,1,"subtract",NA,17,NA,"Yes","N/A",4.83333333333333,4.6,"high_verbal",41,35,138,81.8407000000011,"subtract",1,1,1
"109","77815","uncued",252,725790,2022-10-02 13:54:54,"task_switching-rhyme-phon_sim-same_different",1989,"task_switching","experiment",67,70,1,"add",NA,18,NA,"Yes","N/A",4.83333333333333,4.6,"high_verbal",70,64,139,81.8407000000011,"add",1,1,1
"110","77815","uncued",253,728480,2022-10-02 13:54:54,"task_switching-rhyme-phon_sim-same_different",2687.90000000037,"task_switching","experiment",65,62,1,"subtract",NA,19,NA,"Yes","N/A",4.83333333333333,4.6,"high_verbal",68,62,140,81.8407000000011,"subtract",1,1,1
"111","77815","uncued",254,730919,2022-10-02 13:54:54,"task_switching-rhyme-phon_sim-same_different",2437.59999999963,"task_switching","experiment",50,52,0,"add",NA,20,NA,"Yes","N/A",4.83333333333333,4.6,"high_verbal",53,47,141,81.8407000000011,"add",1,0,0
"112","77815","uncued",255,734686,2022-10-02 13:54:54,"task_switching-rhyme-phon_sim-same_different",3765,"task_switching","experiment",18,15,1,"subtract",NA,21,NA,"Yes","N/A",4.83333333333333,4.6,"high_verbal",21,15,142,81.8407000000011,"subtract",1,1,1
"113","77815","uncued",256,737951,2022-10-02 13:54:54,"task_switching-rhyme-phon_sim-same_different",3262,"task_switching","experiment",64,67,1,"add",NA,22,NA,"Yes","N/A",4.83333333333333,4.6,"high_verbal",67,61,143,81.8407000000011,"add",1,1,1
"114","77815","uncued",257,740455,2022-10-02 13:54:54,"task_switching-rhyme-phon_sim-same_different",2502.20000000112,"task_switching","experiment",70,67,1,"subtract",NA,23,NA,"Yes","N/A",4.83333333333333,4.6,"high_verbal",73,67,144,81.8407000000011,"subtract",1,1,1
"115","77815","uncued",258,742787,2022-10-02 13:54:54,"task_switching-rhyme-phon_sim-same_different",2330.5,"task_switching","experiment",47,50,1,"add",NA,24,NA,"Yes","N/A",4.83333333333333,4.6,"high_verbal",50,44,145,81.8407000000011,"add",1,1,1
"116","77815","uncued",259,745753,2022-10-02 13:54:54,"task_switching-rhyme-phon_sim-same_different",2963.69999999925,"task_switching","experiment",42,39,1,"subtract",NA,25,NA,"Yes","N/A",4.83333333333333,4.6,"high_verbal",45,39,146,81.8407000000011,"subtract",1,1,1
"117","77815","uncued",260,748614,2022-10-02 13:54:54,"task_switching-rhyme-phon_sim-same_different",2859.09999999963,"task_switching","experiment",83,86,1,"add",NA,26,NA,"Yes","N/A",4.83333333333333,4.6,"high_verbal",86,80,147,81.8407000000011,"add",1,1,1
"118","77815","uncued",261,752724,2022-10-02 13:54:54,"task_switching-rhyme-phon_sim-same_different",4107.80000000075,"task_switching","experiment",92,89,1,"subtract",NA,27,NA,"Yes","N/A",4.83333333333333,4.6,"high_verbal",95,89,148,81.8407000000011,"subtract",1,1,1
"119","77815","uncued",262,755074,2022-10-02 13:54:54,"task_switching-rhyme-phon_sim-same_different",2347.80000000075,"task_switching","experiment",61,64,1,"add",NA,28,NA,"Yes","N/A",4.83333333333333,4.6,"high_verbal",64,58,149,81.8407000000011,"add",1,1,1
"120","77815","uncued",263,758926,2022-10-02 13:54:54,"task_switching-rhyme-phon_sim-same_different",3850.09999999963,"task_switching","experiment",27,24,1,"subtract",NA,29,NA,"Yes","N/A",4.83333333333333,4.6,"high_verbal",30,24,150,81.8407000000011,"subtract",1,1,1
"121","77837","uncued",1248,1692966,2022-10-04 16:23:33,"phon_sim-rhyme-same_different-task_switching",1222.5,"task_switching","experiment",96,99,1,"add",NA,0,NA,"No","I talked out loud the numbers but not add or subtract",4.58333333333333,3.5,"high_verbal",99,93,91,44.0208999999762,"add",1,1,1
"122","77837","uncued",1249,1694313,2022-10-04 16:23:33,"phon_sim-rhyme-same_different-task_switching",1341.39999997616,"task_switching","experiment",68,65,1,"subtract",NA,1,NA,"No","I talked out loud the numbers but not add or subtract",4.58333333333333,3.5,"high_verbal",71,65,92,44.0208999999762,"subtract",1,1,1
"123","77837","uncued",1250,1695658,2022-10-04 16:23:33,"phon_sim-rhyme-same_different-task_switching",1341.90000000596,"task_switching","experiment",77,80,1,"add",NA,2,NA,"No","I talked out loud the numbers but not add or subtract",4.58333333333333,3.5,"high_verbal",80,74,93,44.0208999999762,"add",1,1,1
"124","77837","uncued",1251,1698250,2022-10-04 16:23:33,"phon_sim-rhyme-same_different-task_switching",2587.70000001788,"task_switching","experiment",32,29,1,"subtract",NA,3,NA,"No","I talked out loud the numbers but not add or subtract",4.58333333333333,3.5,"high_verbal",35,29,94,44.0208999999762,"subtract",1,1,1
"125","77837","uncued",1252,1699277,2022-10-04 16:23:33,"phon_sim-rhyme-same_different-task_switching",1023.19999998808,"task_switching","experiment",52,55,1,"add",NA,4,NA,"No","I talked out loud the numbers but not add or subtract",4.58333333333333,3.5,"high_verbal",55,49,95,44.0208999999762,"add",1,1,1
"126","77837","uncued",1253,1700676,2022-10-04 16:23:33,"phon_sim-rhyme-same_different-task_switching",1395.20000001788,"task_switching","experiment",20,17,1,"subtract",NA,5,NA,"No","I talked out loud the numbers but not add or subtract",4.58333333333333,3.5,"high_verbal",23,17,96,44.0208999999762,"subtract",1,1,1
"127","77837","uncued",1254,1702379,2022-10-04 16:23:33,"phon_sim-rhyme-same_different-task_switching",1699.5,"task_switching","experiment",66,69,1,"add",NA,6,NA,"No","I talked out loud the numbers but not add or subtract",4.58333333333333,3.5,"high_verbal",69,63,97,44.0208999999762,"add",1,1,1
"128","77837","uncued",1255,1704414,2022-10-04 16:23:33,"phon_sim-rhyme-same_different-task_switching",2030.90000000596,"task_switching","experiment",42,39,1,"subtract",NA,7,NA,"No","I talked out loud the numbers but not add or subtract",4.58333333333333,3.5,"high_verbal",45,39,98,44.0208999999762,"subtract",1,1,1
"129","77837","uncued",1256,1705532,2022-10-04 16:23:33,"phon_sim-rhyme-same_different-task_switching",1113.70000001788,"task_switching","experiment",92,95,1,"add",NA,8,NA,"No","I talked out loud the numbers but not add or subtract",4.58333333333333,3.5,"high_verbal",95,89,99,44.0208999999762,"add",1,1,1
"130","77837","uncued",1257,1707065,2022-10-04 16:23:33,"phon_sim-rhyme-same_different-task_switching",1528.19999998808,"task_switching","experiment",82,79,1,"subtract",NA,9,NA,"No","I talked out loud the numbers but not add or subtract",4.58333333333333,3.5,"high_verbal",85,79,100,44.0208999999762,"subtract",1,1,1
"131","77837","uncued",1258,1710283,2022-10-04 16:23:33,"phon_sim-rhyme-same_different-task_switching",3214.19999998808,"task_switching","experiment",39,42,1,"add",NA,10,NA,"No","I talked out loud the numbers but not add or subtract",4.58333333333333,3.5,"high_verbal",42,36,101,44.0208999999762,"add",1,1,1
"132","77837","uncued",1259,1711406,2022-10-04 16:23:33,"phon_sim-rhyme-same_different-task_switching",1117.5,"task_switching","experiment",44,41,1,"subtract",NA,11,NA,"No","I talked out loud the numbers but not add or subtract",4.58333333333333,3.5,"high_verbal",47,41,102,44.0208999999762,"subtract",1,1,1
"133","77837","uncued",1260,1712532,2022-10-04 16:23:33,"phon_sim-rhyme-same_different-task_switching",1121.79999998212,"task_switching","experiment",56,59,1,"add",NA,12,NA,"No","I talked out loud the numbers but not add or subtract",4.58333333333333,3.5,"high_verbal",59,53,103,44.0208999999762,"add",1,1,1
"134","77837","uncued",1261,1713580,2022-10-04 16:23:33,"phon_sim-rhyme-same_different-task_switching",1043.39999997616,"task_switching","experiment",23,20,1,"subtract",NA,13,NA,"No","I talked out loud the numbers but not add or subtract",4.58333333333333,3.5,"high_verbal",26,20,104,44.0208999999762,"subtract",1,1,1
"135","77837","uncued",1262,1714565,2022-10-04 16:23:33,"phon_sim-rhyme-same_different-task_switching",982.199999988079,"task_switching","experiment",30,33,1,"add",NA,14,NA,"No","I talked out loud the numbers but not add or subtract",4.58333333333333,3.5,"high_verbal",33,27,105,44.0208999999762,"add",1,1,1
"136","77837","uncued",1263,1715642,2022-10-04 16:23:33,"phon_sim-rhyme-same_different-task_switching",1072.69999998808,"task_switching","experiment",88,85,1,"subtract",NA,15,NA,"No","I talked out loud the numbers but not add or subtract",4.58333333333333,3.5,"high_verbal",91,85,106,44.0208999999762,"subtract",1,1,1
"137","77837","uncued",1264,1716992,2022-10-04 16:23:33,"phon_sim-rhyme-same_different-task_switching",1345.19999998808,"task_switching","experiment",65,68,1,"add",NA,16,NA,"No","I talked out loud the numbers but not add or subtract",4.58333333333333,3.5,"high_verbal",68,62,107,44.0208999999762,"add",1,1,1
"138","77837","uncued",1265,1718116,2022-10-04 16:23:33,"phon_sim-rhyme-same_different-task_switching",1119.69999998808,"task_switching","experiment",34,31,1,"subtract",NA,17,NA,"No","I talked out loud the numbers but not add or subtract",4.58333333333333,3.5,"high_verbal",37,31,108,44.0208999999762,"subtract",1,1,1
"139","77837","uncued",1266,1719459,2022-10-04 16:23:33,"phon_sim-rhyme-same_different-task_switching",1338.20000001788,"task_switching","experiment",54,57,1,"add",NA,18,NA,"No","I talked out loud the numbers but not add or subtract",4.58333333333333,3.5,"high_verbal",57,51,109,44.0208999999762,"add",1,1,1
"140","77837","uncued",1267,1720824,2022-10-04 16:23:33,"phon_sim-rhyme-same_different-task_switching",1360.40000000596,"task_switching","experiment",91,88,1,"subtract",NA,19,NA,"No","I talked out loud the numbers but not add or subtract",4.58333333333333,3.5,"high_verbal",94,88,110,44.0208999999762,"subtract",1,1,1
"141","77837","uncued",1268,1722410,2022-10-04 16:23:33,"phon_sim-rhyme-same_different-task_switching",1582.80000001192,"task_switching","experiment",81,84,1,"add",NA,20,NA,"No","I talked out loud the numbers but not add or subtract",4.58333333333333,3.5,"high_verbal",84,78,111,44.0208999999762,"add",1,1,1
"142","77837","uncued",1269,1723550,2022-10-04 16:23:33,"phon_sim-rhyme-same_different-task_switching",1136,"task_switching","experiment",46,43,1,"subtract",NA,21,NA,"No","I talked out loud the numbers but not add or subtract",4.58333333333333,3.5,"high_verbal",49,43,112,44.0208999999762,"subtract",1,1,1
"143","77837","uncued",1270,1724748,2022-10-04 16:23:33,"phon_sim-rhyme-same_different-task_switching",1193.69999998808,"task_switching","experiment",24,27,1,"add",NA,22,NA,"No","I talked out loud the numbers but not add or subtract",4.58333333333333,3.5,"high_verbal",27,21,113,44.0208999999762,"add",1,1,1
"144","77837","uncued",1271,1725704,2022-10-04 16:23:33,"phon_sim-rhyme-same_different-task_switching",952.600000023842,"task_switching","experiment",37,34,1,"subtract",NA,23,NA,"No","I talked out loud the numbers but not add or subtract",4.58333333333333,3.5,"high_verbal",40,34,114,44.0208999999762,"subtract",1,1,1
"145","77837","uncued",1272,1727229,2022-10-04 16:23:33,"phon_sim-rhyme-same_different-task_switching",1519.40000000596,"task_switching","experiment",70,73,1,"add",NA,24,NA,"No","I talked out loud the numbers but not add or subtract",4.58333333333333,3.5,"high_verbal",73,67,115,44.0208999999762,"add",1,1,1
"146","77837","uncued",1273,1729193,2022-10-04 16:23:33,"phon_sim-rhyme-same_different-task_switching",1960.09999999404,"task_switching","experiment",53,50,1,"subtract",NA,25,NA,"No","I talked out loud the numbers but not add or subtract",4.58333333333333,3.5,"high_verbal",56,50,116,44.0208999999762,"subtract",1,1,1
"147","77837","uncued",1274,1731334,2022-10-04 16:23:33,"phon_sim-rhyme-same_different-task_switching",2136.90000000596,"task_switching","experiment",38,41,1,"add",NA,26,NA,"No","I talked out loud the numbers but not add or subtract",4.58333333333333,3.5,"high_verbal",41,35,117,44.0208999999762,"add",1,1,1
"148","77837","uncued",1275,1732326,2022-10-04 16:23:33,"phon_sim-rhyme-same_different-task_switching",987.199999988079,"task_switching","experiment",47,44,1,"subtract",NA,27,NA,"No","I talked out loud the numbers but not add or subtract",4.58333333333333,3.5,"high_verbal",50,44,118,44.0208999999762,"subtract",1,1,1
"149","77837","uncued",1276,1734734,2022-10-04 16:23:33,"phon_sim-rhyme-same_different-task_switching",2403.90000000596,"task_switching","experiment",62,65,1,"add",NA,28,NA,"No","I talked out loud the numbers but not add or subtract",4.58333333333333,3.5,"high_verbal",65,59,119,44.0208999999762,"add",1,1,1
"150","77837","uncued",1277,1735887,2022-10-04 16:23:33,"phon_sim-rhyme-same_different-task_switching",1148.80000001192,"task_switching","experiment",17,14,1,"subtract",NA,29,NA,"No","I talked out loud the numbers but not add or subtract",4.58333333333333,3.5,"high_verbal",20,14,120,44.0208999999762,"subtract",1,1,1
"151","77866","uncued",234,562466,2022-10-05 15:28:53,"task_switching-phon_sim-same_different-rhyme",1697,"task_switching","experiment",68,71,1,"add",NA,0,NA,"Yes","no",2.91666666666667,3.2,"low_verbal",71,65,121,69.001,"add",1,1,1
"152","77866","uncued",235,564070,2022-10-05 15:28:53,"task_switching-phon_sim-same_different-rhyme",1601,"task_switching","experiment",54,51,1,"subtract",NA,1,NA,"Yes","no",2.91666666666667,3.2,"low_verbal",57,51,122,69.001,"subtract",1,1,1
"153","77866","uncued",236,566127,2022-10-05 15:28:53,"task_switching-phon_sim-same_different-rhyme",2053,"task_switching","experiment",59,62,1,"add",NA,2,NA,"Yes","no",2.91666666666667,3.2,"low_verbal",62,56,123,69.001,"add",1,1,1
"154","77866","uncued",237,570022,2022-10-05 15:28:53,"task_switching-phon_sim-same_different-rhyme",3888,"task_switching","experiment",73,70,1,"subtract",NA,3,NA,"Yes","no",2.91666666666667,3.2,"low_verbal",76,70,124,69.001,"subtract",1,1,1
"155","77866","uncued",238,572738,2022-10-05 15:28:53,"task_switching-phon_sim-same_different-rhyme",2711,"task_switching","experiment",79,82,1,"add",NA,4,NA,"Yes","no",2.91666666666667,3.2,"low_verbal",82,76,125,69.001,"add",1,1,1
"156","77866","uncued",239,574589,2022-10-05 15:28:53,"task_switching-phon_sim-same_different-rhyme",1846,"task_switching","experiment",44,41,1,"subtract",NA,5,NA,"Yes","no",2.91666666666667,3.2,"low_verbal",47,41,126,69.001,"subtract",1,1,1
"157","77866","uncued",240,576010,2022-10-05 15:28:53,"task_switching-phon_sim-same_different-rhyme",1416,"task_switching","experiment",75,78,1,"add",NA,6,NA,"Yes","no",2.91666666666667,3.2,"low_verbal",78,72,127,69.001,"add",1,1,1
"158","77866","uncued",241,578117,2022-10-05 15:28:53,"task_switching-phon_sim-same_different-rhyme",2103,"task_switching","experiment",35,32,1,"subtract",NA,7,NA,"Yes","no",2.91666666666667,3.2,"low_verbal",38,32,128,69.001,"subtract",1,1,1
"159","77866","uncued",242,581126,2022-10-05 15:28:53,"task_switching-phon_sim-same_different-rhyme",3003,"task_switching","experiment",78,81,1,"add",NA,8,NA,"Yes","no",2.91666666666667,3.2,"low_verbal",81,75,129,69.001,"add",1,1,1
"160","77866","uncued",243,582719,2022-10-05 15:28:53,"task_switching-phon_sim-same_different-rhyme",1589,"task_switching","experiment",36,33,1,"subtract",NA,9,NA,"Yes","no",2.91666666666667,3.2,"low_verbal",39,33,130,69.001,"subtract",1,1,1
"161","77866","uncued",244,584331,2022-10-05 15:28:53,"task_switching-phon_sim-same_different-rhyme",1607,"task_switching","experiment",47,50,1,"add",NA,10,NA,"Yes","no",2.91666666666667,3.2,"low_verbal",50,44,131,69.001,"add",1,1,1
"162","77866","uncued",245,585927,2022-10-05 15:28:53,"task_switching-phon_sim-same_different-rhyme",1591,"task_switching","experiment",93,90,1,"subtract",NA,11,NA,"Yes","no",2.91666666666667,3.2,"low_verbal",96,90,132,69.001,"subtract",1,1,1
"163","77866","uncued",246,587417,2022-10-05 15:28:53,"task_switching-phon_sim-same_different-rhyme",1485,"task_switching","experiment",60,63,1,"add",NA,12,NA,"Yes","no",2.91666666666667,3.2,"low_verbal",63,57,133,69.001,"add",1,1,1
"164","77866","uncued",247,589662,2022-10-05 15:28:53,"task_switching-phon_sim-same_different-rhyme",2240,"task_switching","experiment",18,15,1,"subtract",NA,13,NA,"Yes","no",2.91666666666667,3.2,"low_verbal",21,15,134,69.001,"subtract",1,1,1
"165","77866","uncued",248,591195,2022-10-05 15:28:53,"task_switching-phon_sim-same_different-rhyme",1528,"task_switching","experiment",77,80,1,"add",NA,14,NA,"Yes","no",2.91666666666667,3.2,"low_verbal",80,74,135,69.001,"add",1,1,1
"166","77866","uncued",249,594501,2022-10-05 15:28:53,"task_switching-phon_sim-same_different-rhyme",3301,"task_switching","experiment",32,29,1,"subtract",NA,15,NA,"Yes","no",2.91666666666667,3.2,"low_verbal",35,29,136,69.001,"subtract",1,1,1
"167","77866","uncued",250,596279,2022-10-05 15:28:53,"task_switching-phon_sim-same_different-rhyme",1774,"task_switching","experiment",70,73,1,"add",NA,16,NA,"Yes","no",2.91666666666667,3.2,"low_verbal",73,67,137,69.001,"add",1,1,1
"168","77866","uncued",251,599624,2022-10-05 15:28:53,"task_switching-phon_sim-same_different-rhyme",3340,"task_switching","experiment",61,58,1,"subtract",NA,17,NA,"Yes","no",2.91666666666667,3.2,"low_verbal",64,58,138,69.001,"subtract",1,1,1
"169","77866","uncued",252,603314,2022-10-05 15:28:53,"task_switching-phon_sim-same_different-rhyme",3685,"task_switching","experiment",38,41,1,"add",NA,18,NA,"Yes","no",2.91666666666667,3.2,"low_verbal",41,35,139,69.001,"add",1,1,1
"170","77866","uncued",253,604777,2022-10-05 15:28:53,"task_switching-phon_sim-same_different-rhyme",1455,"task_switching","experiment",58,55,1,"subtract",NA,19,NA,"Yes","no",2.91666666666667,3.2,"low_verbal",61,55,140,69.001,"subtract",1,1,1
"171","77866","uncued",254,606699,2022-10-05 15:28:53,"task_switching-phon_sim-same_different-rhyme",1917,"task_switching","experiment",13,16,1,"add",NA,20,NA,"Yes","no",2.91666666666667,3.2,"low_verbal",16,10,141,69.001,"add",1,1,1
"172","77866","uncued",255,608313,2022-10-05 15:28:53,"task_switching-phon_sim-same_different-rhyme",1609,"task_switching","experiment",50,53,0,"subtract",NA,21,NA,"Yes","no",2.91666666666667,3.2,"low_verbal",53,47,142,69.001,"add",0,1,0
"173","77866","uncued",256,609957,2022-10-05 15:28:53,"task_switching-phon_sim-same_different-rhyme",1638,"task_switching","experiment",31,34,1,"add",NA,22,NA,"Yes","no",2.91666666666667,3.2,"low_verbal",34,28,143,69.001,"add",1,1,0
"174","77866","uncued",257,613096,2022-10-05 15:28:53,"task_switching-phon_sim-same_different-rhyme",3133,"task_switching","experiment",89,86,1,"subtract",NA,23,NA,"Yes","no",2.91666666666667,3.2,"low_verbal",92,86,144,69.001,"subtract",1,1,1
"175","77866","uncued",258,614471,2022-10-05 15:28:53,"task_switching-phon_sim-same_different-rhyme",1370,"task_switching","experiment",65,68,1,"add",NA,24,NA,"Yes","no",2.91666666666667,3.2,"low_verbal",68,62,145,69.001,"add",1,1,1
"176","77866","uncued",259,618681,2022-10-05 15:28:53,"task_switching-phon_sim-same_different-rhyme",4206,"task_switching","experiment",86,83,1,"subtract",NA,25,NA,"Yes","no",2.91666666666667,3.2,"low_verbal",89,83,146,69.001,"subtract",1,1,1
"177","77866","uncued",260,621406,2022-10-05 15:28:53,"task_switching-phon_sim-same_different-rhyme",2720,"task_switching","experiment",15,18,1,"add",NA,26,NA,"Yes","no",2.91666666666667,3.2,"low_verbal",18,12,147,69.001,"add",1,1,1
"178","77866","uncued",261,623136,2022-10-05 15:28:53,"task_switching-phon_sim-same_different-rhyme",1726,"task_switching","experiment",63,60,1,"subtract",NA,27,NA,"Yes","no",2.91666666666667,3.2,"low_verbal",66,60,148,69.001,"subtract",1,1,1
"179","77866","uncued",262,625042,2022-10-05 15:28:53,"task_switching-phon_sim-same_different-rhyme",1901,"task_switching","experiment",80,83,1,"add",NA,28,NA,"Yes","no",2.91666666666667,3.2,"low_verbal",83,77,149,69.001,"add",1,1,1
"180","77866","uncued",263,629914,2022-10-05 15:28:53,"task_switching-phon_sim-same_different-rhyme",4868,"task_switching","experiment",29,26,1,"subtract",NA,29,NA,"Yes","no",2.91666666666667,3.2,"low_verbal",32,26,150,69.001,"subtract",1,1,1
"181","78010","uncued",1196,2518660,2022-10-03 00:58:13,"same_different-rhyme-phon_sim-task_switching",5849.99999999953,"task_switching","experiment",36,39,1,"add",NA,0,NA,"No","no",2.83333333333333,3.1,"low_verbal",39,33,61,81.0150000000005,"add",1,1,1
"182","78010","uncued",1197,2521978,2022-10-03 00:58:13,"same_different-rhyme-phon_sim-task_switching",3312,"task_switching","experiment",77,74,1,"subtract",NA,1,NA,"No","no",2.83333333333333,3.1,"low_verbal",80,74,62,81.0150000000005,"subtract",1,1,1
"183","78010","uncued",1198,2529291,2022-10-03 00:58:13,"same_different-rhyme-phon_sim-task_switching",7308,"task_switching","experiment",94,97,1,"add",NA,2,NA,"No","no",2.83333333333333,3.1,"low_verbal",97,91,63,81.0150000000005,"add",1,1,1
"184","78010","uncued",1199,2531276,2022-10-03 00:58:13,"same_different-rhyme-phon_sim-task_switching",1980,"task_switching","experiment",73,70,1,"subtract",NA,3,NA,"No","no",2.83333333333333,3.1,"low_verbal",76,70,64,81.0150000000005,"subtract",1,1,1
"185","78010","uncued",1200,2532964,2022-10-03 00:58:13,"same_different-rhyme-phon_sim-task_switching",1684.00000000047,"task_switching","experiment",23,26,1,"add",NA,4,NA,"No","no",2.83333333333333,3.1,"low_verbal",26,20,65,81.0150000000005,"add",1,1,1
"186","78010","uncued",1201,2535302,2022-10-03 00:58:13,"same_different-rhyme-phon_sim-task_switching",2333,"task_switching","experiment",72,69,1,"subtract",NA,5,NA,"No","no",2.83333333333333,3.1,"low_verbal",75,69,66,81.0150000000005,"subtract",1,1,1
"187","78010","uncued",1202,2537678,2022-10-03 00:58:13,"same_different-rhyme-phon_sim-task_switching",2370,"task_switching","experiment",65,68,1,"add",NA,6,NA,"No","no",2.83333333333333,3.1,"low_verbal",68,62,67,81.0150000000005,"add",1,1,1
"188","78010","uncued",1203,2539630,2022-10-03 00:58:13,"same_different-rhyme-phon_sim-task_switching",1947,"task_switching","experiment",15,12,1,"subtract",NA,7,NA,"No","no",2.83333333333333,3.1,"low_verbal",18,12,68,81.0150000000005,"subtract",1,1,1
"189","78010","uncued",1204,2541891,2022-10-03 00:58:13,"same_different-rhyme-phon_sim-task_switching",2257,"task_switching","experiment",17,20,1,"add",NA,8,NA,"No","no",2.83333333333333,3.1,"low_verbal",20,14,69,81.0150000000005,"add",1,1,1
"190","78010","uncued",1205,2544491,2022-10-03 00:58:13,"same_different-rhyme-phon_sim-task_switching",2595.00000000047,"task_switching","experiment",69,66,1,"subtract",NA,9,NA,"No","no",2.83333333333333,3.1,"low_verbal",72,66,70,81.0150000000005,"subtract",1,1,1
"191","78010","uncued",1206,2546597,2022-10-03 00:58:13,"same_different-rhyme-phon_sim-task_switching",2101,"task_switching","experiment",67,70,1,"add",NA,10,NA,"No","no",2.83333333333333,3.1,"low_verbal",70,64,71,81.0150000000005,"add",1,1,1
"192","78010","uncued",1207,2549988,2022-10-03 00:58:13,"same_different-rhyme-phon_sim-task_switching",3387,"task_switching","experiment",90,87,1,"subtract",NA,11,NA,"No","no",2.83333333333333,3.1,"low_verbal",93,87,72,81.0150000000005,"subtract",1,1,1
"193","78010","uncued",1208,2552264,2022-10-03 00:58:13,"same_different-rhyme-phon_sim-task_switching",2271,"task_switching","experiment",21,24,1,"add",NA,12,NA,"No","no",2.83333333333333,3.1,"low_verbal",24,18,73,81.0150000000005,"add",1,1,1
"194","78010","uncued",1209,2554548,2022-10-03 00:58:13,"same_different-rhyme-phon_sim-task_switching",2280,"task_switching","experiment",30,27,1,"subtract",NA,13,NA,"No","no",2.83333333333333,3.1,"low_verbal",33,27,74,81.0150000000005,"subtract",1,1,1
"195","78010","uncued",1210,2557155,2022-10-03 00:58:13,"same_different-rhyme-phon_sim-task_switching",2601,"task_switching","experiment",87,91,0,"add",NA,14,NA,"No","no",2.83333333333333,3.1,"low_verbal",90,84,75,81.0150000000005,"add",1,0,0
"196","78010","uncued",1211,2560258,2022-10-03 00:58:13,"same_different-rhyme-phon_sim-task_switching",3098,"task_switching","experiment",88,85,1,"subtract",NA,15,NA,"No","no",2.83333333333333,3.1,"low_verbal",91,85,76,81.0150000000005,"subtract",1,1,1
"197","78010","uncued",1212,2563404,2022-10-03 00:58:13,"same_different-rhyme-phon_sim-task_switching",3141,"task_switching","experiment",64,67,1,"add",NA,16,NA,"No","no",2.83333333333333,3.1,"low_verbal",67,61,77,81.0150000000005,"add",1,1,1
"198","78010","uncued",1213,2566337,2022-10-03 00:58:13,"same_different-rhyme-phon_sim-task_switching",2927,"task_switching","experiment",76,73,1,"subtract",NA,17,NA,"No","no",2.83333333333333,3.1,"low_verbal",79,73,78,81.0150000000005,"subtract",1,1,1
"199","78010","uncued",1214,2570066,2022-10-03 00:58:13,"same_different-rhyme-phon_sim-task_switching",3724,"task_switching","experiment",37,40,1,"add",NA,18,NA,"No","no",2.83333333333333,3.1,"low_verbal",40,34,79,81.0150000000005,"add",1,1,1
"200","78010","uncued",1215,2572188,2022-10-03 00:58:13,"same_different-rhyme-phon_sim-task_switching",2115,"task_switching","experiment",39,36,1,"subtract",NA,19,NA,"No","no",2.83333333333333,3.1,"low_verbal",42,36,80,81.0150000000005,"subtract",1,1,1
"201","78010","uncued",1216,2574056,2022-10-03 00:58:13,"same_different-rhyme-phon_sim-task_switching",1864,"task_switching","experiment",22,25,1,"add",NA,20,NA,"No","no",2.83333333333333,3.1,"low_verbal",25,19,81,81.0150000000005,"add",1,1,1
"202","78010","uncued",1217,2575856,2022-10-03 00:58:13,"same_different-rhyme-phon_sim-task_switching",1794,"task_switching","experiment",66,63,1,"subtract",NA,21,NA,"No","no",2.83333333333333,3.1,"low_verbal",69,63,82,81.0150000000005,"subtract",1,1,1
"203","78010","uncued",1218,2577899,2022-10-03 00:58:13,"same_different-rhyme-phon_sim-task_switching",2037,"task_switching","experiment",75,78,1,"add",NA,22,NA,"No","no",2.83333333333333,3.1,"low_verbal",78,72,83,81.0150000000005,"add",1,1,1
"204","78010","uncued",1219,2579393,2022-10-03 00:58:13,"same_different-rhyme-phon_sim-task_switching",1489,"task_switching","experiment",33,30,1,"subtract",NA,23,NA,"No","no",2.83333333333333,3.1,"low_verbal",36,30,84,81.0150000000005,"subtract",1,1,1
"205","78010","uncued",1220,2580807,2022-10-03 00:58:13,"same_different-rhyme-phon_sim-task_switching",1410,"task_switching","experiment",82,85,1,"add",NA,24,NA,"No","no",2.83333333333333,3.1,"low_verbal",85,79,85,81.0150000000005,"add",1,1,1
"206","78010","uncued",1221,2583373,2022-10-03 00:58:13,"same_different-rhyme-phon_sim-task_switching",2561,"task_switching","experiment",70,67,1,"subtract",NA,25,NA,"No","no",2.83333333333333,3.1,"low_verbal",73,67,86,81.0150000000005,"subtract",1,1,1
"207","78010","uncued",1222,2585133,2022-10-03 00:58:13,"same_different-rhyme-phon_sim-task_switching",1754,"task_switching","experiment",61,64,1,"add",NA,26,NA,"No","no",2.83333333333333,3.1,"low_verbal",64,58,87,81.0150000000005,"add",1,1,1
"208","78010","uncued",1223,2587587,2022-10-03 00:58:13,"same_different-rhyme-phon_sim-task_switching",2449,"task_switching","experiment",52,49,1,"subtract",NA,27,NA,"No","no",2.83333333333333,3.1,"low_verbal",55,49,88,81.0150000000005,"subtract",1,1,1
"209","78010","uncued",1224,2590873,2022-10-03 00:58:13,"same_different-rhyme-phon_sim-task_switching",3280,"task_switching","experiment",31,34,1,"add",NA,28,NA,"No","no",2.83333333333333,3.1,"low_verbal",34,28,89,81.0150000000005,"add",1,1,1
"210","78010","uncued",1225,2593973,2022-10-03 00:58:13,"same_different-rhyme-phon_sim-task_switching",3096,"task_switching","experiment",81,78,1,"subtract",NA,29,NA,"No","no",2.83333333333333,3.1,"low_verbal",84,78,90,81.0150000000005,"subtract",1,1,1
"211","78099","uncued",234,1217919,2022-10-04 18:40:28,"task_switching-same_different-phon_sim-rhyme",3496.20000000298,"task_switching","experiment",82,85,1,"add",NA,0,NA,"Yes","no",4.75,4.5,"high_verbal",85,79,119,65.942299999997,"add",1,1,1
"212","78099","uncued",235,1219949,2022-10-04 18:40:28,"task_switching-same_different-phon_sim-rhyme",2026.09999999404,"task_switching","experiment",67,64,1,"subtract",NA,1,NA,"Yes","no",4.75,4.5,"high_verbal",70,64,120,65.942299999997,"subtract",1,1,1
"213","78099","uncued",236,1222091,2022-10-04 18:40:28,"task_switching-same_different-phon_sim-rhyme",2138.59999999404,"task_switching","experiment",89,86,0,"add",NA,2,NA,"Yes","no",4.75,4.5,"high_verbal",92,86,121,65.942299999997,"subtract",0,1,0
"214","78099","uncued",237,1224142,2022-10-04 18:40:28,"task_switching-same_different-phon_sim-rhyme",2048.70000000298,"task_switching","experiment",63,68,0,"subtract",NA,3,NA,"Yes","no",4.75,4.5,"high_verbal",66,60,122,65.942299999997,"add",0,0,0
"215","78099","uncued",238,1226644,2022-10-04 18:40:28,"task_switching-same_different-phon_sim-rhyme",2499.09999999404,"task_switching","experiment",59,56,0,"add",NA,4,NA,"Yes","no",4.75,4.5,"high_verbal",62,56,123,65.942299999997,"subtract",0,1,1
"216","78099","uncued",239,1228129,2022-10-04 18:40:28,"task_switching-same_different-phon_sim-rhyme",1482,"task_switching","experiment",80,83,0,"subtract",NA,5,NA,"Yes","no",4.75,4.5,"high_verbal",83,77,124,65.942299999997,"add",0,1,1
"217","78099","uncued",240,1233903,2022-10-04 18:40:28,"task_switching-same_different-phon_sim-rhyme",5771.39999999106,"task_switching","experiment",41,38,0,"add",NA,6,NA,"Yes","no",4.75,4.5,"high_verbal",44,38,125,65.942299999997,"subtract",0,1,1
"218","78099","uncued",241,1235383,2022-10-04 18:40:28,"task_switching-same_different-phon_sim-rhyme",1476.79999999702,"task_switching","experiment",40,43,0,"subtract",NA,7,NA,"Yes","no",4.75,4.5,"high_verbal",43,37,126,65.942299999997,"add",0,1,1
"219","78099","uncued",242,1236930,2022-10-04 18:40:28,"task_switching-same_different-phon_sim-rhyme",1544.70000000298,"task_switching","experiment",65,62,0,"add",NA,8,NA,"Yes","no",4.75,4.5,"high_verbal",68,62,127,65.942299999997,"subtract",0,1,1
"220","78099","uncued",243,1239219,2022-10-04 18:40:28,"task_switching-same_different-phon_sim-rhyme",2285.5,"task_switching","experiment",61,64,0,"subtract",NA,9,NA,"Yes","no",4.75,4.5,"high_verbal",64,58,128,65.942299999997,"add",0,1,1
"221","78099","uncued",244,1240896,2022-10-04 18:40:28,"task_switching-same_different-phon_sim-rhyme",1674.20000000298,"task_switching","experiment",77,74,0,"add",NA,10,NA,"Yes","no",4.75,4.5,"high_verbal",80,74,129,65.942299999997,"subtract",0,1,1
"222","78099","uncued",245,1242406,2022-10-04 18:40:28,"task_switching-same_different-phon_sim-rhyme",1507.80000001192,"task_switching","experiment",44,47,0,"subtract",NA,11,NA,"Yes","no",4.75,4.5,"high_verbal",47,41,130,65.942299999997,"add",0,1,1
"223","78099","uncued",246,1243886,2022-10-04 18:40:28,"task_switching-same_different-phon_sim-rhyme",1476.39999999106,"task_switching","experiment",94,91,0,"add",NA,12,NA,"Yes","no",4.75,4.5,"high_verbal",97,91,131,65.942299999997,"subtract",0,1,1
"224","78099","uncued",247,1246481,2022-10-04 18:40:28,"task_switching-same_different-phon_sim-rhyme",2592.90000000596,"task_switching","experiment",28,31,0,"subtract",NA,13,NA,"Yes","no",4.75,4.5,"high_verbal",31,25,132,65.942299999997,"add",0,1,1
"225","78099","uncued",248,1248294,2022-10-04 18:40:28,"task_switching-same_different-phon_sim-rhyme",1808.90000000596,"task_switching","experiment",86,83,0,"add",NA,14,NA,"Yes","no",4.75,4.5,"high_verbal",89,83,133,65.942299999997,"subtract",0,1,1
"226","78099","uncued",249,1251002,2022-10-04 18:40:28,"task_switching-same_different-phon_sim-rhyme",2704.59999999404,"task_switching","experiment",76,79,0,"subtract",NA,15,NA,"Yes","no",4.75,4.5,"high_verbal",79,73,134,65.942299999997,"add",0,1,1
"227","78099","uncued",250,1252350,2022-10-04 18:40:28,"task_switching-same_different-phon_sim-rhyme",1344.5,"task_switching","experiment",23,20,0,"add",NA,16,NA,"Yes","no",4.75,4.5,"high_verbal",26,20,135,65.942299999997,"subtract",0,1,1
"228","78099","uncued",251,1254354,2022-10-04 18:40:28,"task_switching-same_different-phon_sim-rhyme",2000.79999999702,"task_switching","experiment",35,38,0,"subtract",NA,17,NA,"Yes","no",4.75,4.5,"high_verbal",38,32,136,65.942299999997,"add",0,1,1
"229","78099","uncued",252,1256070,2022-10-04 18:40:28,"task_switching-same_different-phon_sim-rhyme",1711.90000000596,"task_switching","experiment",17,14,0,"add",NA,18,NA,"Yes","no",4.75,4.5,"high_verbal",20,14,137,65.942299999997,"subtract",0,1,1
"230","78099","uncued",253,1259833,2022-10-04 18:40:28,"task_switching-same_different-phon_sim-rhyme",3760,"task_switching","experiment",96,99,0,"subtract",NA,19,NA,"Yes","no",4.75,4.5,"high_verbal",99,93,138,65.942299999997,"add",0,1,1
"231","78099","uncued",254,1261945,2022-10-04 18:40:28,"task_switching-same_different-phon_sim-rhyme",2109.10000000894,"task_switching","experiment",18,15,0,"add",NA,20,NA,"Yes","no",4.75,4.5,"high_verbal",21,15,139,65.942299999997,"subtract",0,1,1
"232","78099","uncued",255,1264635,2022-10-04 18:40:28,"task_switching-same_different-phon_sim-rhyme",2687.59999999404,"task_switching","experiment",79,82,0,"subtract",NA,21,NA,"Yes","no",4.75,4.5,"high_verbal",82,76,140,65.942299999997,"add",0,1,1
"233","78099","uncued",256,1266336,2022-10-04 18:40:28,"task_switching-same_different-phon_sim-rhyme",1697.20000000298,"task_switching","experiment",46,43,0,"add",NA,22,NA,"Yes","no",4.75,4.5,"high_verbal",49,43,141,65.942299999997,"subtract",0,1,1
"234","78099","uncued",257,1269726,2022-10-04 18:40:28,"task_switching-same_different-phon_sim-rhyme",3387,"task_switching","experiment",58,61,0,"subtract",NA,23,NA,"Yes","no",4.75,4.5,"high_verbal",61,55,142,65.942299999997,"add",0,1,1
"235","78099","uncued",258,1272684,2022-10-04 18:40:28,"task_switching-same_different-phon_sim-rhyme",2957.20000000298,"task_switching","experiment",71,68,0,"add",NA,24,NA,"Yes","no",4.75,4.5,"high_verbal",74,68,143,65.942299999997,"subtract",0,1,1
"236","78099","uncued",259,1273878,2022-10-04 18:40:28,"task_switching-same_different-phon_sim-rhyme",1189.5,"task_switching","experiment",20,23,0,"subtract",NA,25,NA,"Yes","no",4.75,4.5,"high_verbal",23,17,144,65.942299999997,"add",0,1,1
"237","78099","uncued",260,1275408,2022-10-04 18:40:28,"task_switching-same_different-phon_sim-rhyme",1527.29999999702,"task_switching","experiment",83,80,0,"add",NA,26,NA,"Yes","no",4.75,4.5,"high_verbal",86,80,145,65.942299999997,"subtract",0,1,1
"238","78099","uncued",261,1276986,2022-10-04 18:40:28,"task_switching-same_different-phon_sim-rhyme",1574.20000000298,"task_switching","experiment",24,27,0,"subtract",NA,27,NA,"Yes","no",4.75,4.5,"high_verbal",27,21,146,65.942299999997,"add",0,1,1
"239","78099","uncued",262,1278980,2022-10-04 18:40:28,"task_switching-same_different-phon_sim-rhyme",1991.89999999106,"task_switching","experiment",37,34,0,"add",NA,28,NA,"Yes","no",4.75,4.5,"high_verbal",40,34,147,65.942299999997,"subtract",0,1,1
"240","78099","uncued",263,1280454,2022-10-04 18:40:28,"task_switching-same_different-phon_sim-rhyme",1470.20000000298,"task_switching","experiment",93,90,1,"subtract",NA,29,NA,"Yes","no",4.75,4.5,"high_verbal",96,90,148,65.942299999997,"subtract",1,1,0
"241","78304","uncued",1196,2073787,2022-10-04 17:25:00,"rhyme-phon_sim-same_different-task_switching",2187.00000000023,"task_switching","experiment",93,96,1,"add",NA,0,NA,"No","no",4.83333333333333,4,"high_verbal",96,90,61,74.8809999999991,"add",1,1,1
"242","78304","uncued",1197,2075585,2022-10-04 17:25:00,"rhyme-phon_sim-same_different-task_switching",1792.00000000047,"task_switching","experiment",65,62,1,"subtract",NA,1,NA,"No","no",4.83333333333333,4,"high_verbal",68,62,62,74.8809999999991,"subtract",1,1,1
"243","78304","uncued",1198,2077213,2022-10-04 17:25:00,"rhyme-phon_sim-same_different-task_switching",1621.00000000023,"task_switching","experiment",38,41,1,"add",NA,2,NA,"No","no",4.83333333333333,4,"high_verbal",41,35,63,74.8809999999991,"add",1,1,1
"244","78304","uncued",1199,2079384,2022-10-04 17:25:00,"rhyme-phon_sim-same_different-task_switching",2161.99999999977,"task_switching","experiment",95,92,1,"subtract",NA,3,NA,"No","no",4.83333333333333,4,"high_verbal",98,92,64,74.8809999999991,"subtract",1,1,1
"245","78304","uncued",1200,2081092,2022-10-04 17:25:00,"rhyme-phon_sim-same_different-task_switching",1699.99999999977,"task_switching","experiment",16,19,1,"add",NA,4,NA,"No","no",4.83333333333333,4,"high_verbal",19,13,65,74.8809999999991,"add",1,1,1
"246","78304","uncued",1201,2082430,2022-10-04 17:25:00,"rhyme-phon_sim-same_different-task_switching",1333,"task_switching","experiment",13,10,1,"subtract",NA,5,NA,"No","no",4.83333333333333,4,"high_verbal",16,10,66,74.8809999999991,"subtract",1,1,1
"247","78304","uncued",1202,2085552,2022-10-04 17:25:00,"rhyme-phon_sim-same_different-task_switching",3115.99999999977,"task_switching","experiment",82,85,1,"add",NA,6,NA,"No","no",4.83333333333333,4,"high_verbal",85,79,67,74.8809999999991,"add",1,1,1
"248","78304","uncued",1203,2087213,2022-10-04 17:25:00,"rhyme-phon_sim-same_different-task_switching",1656,"task_switching","experiment",69,66,1,"subtract",NA,7,NA,"No","no",4.83333333333333,4,"high_verbal",72,66,68,74.8809999999991,"subtract",1,1,1
"249","78304","uncued",1204,2089394,2022-10-04 17:25:00,"rhyme-phon_sim-same_different-task_switching",2172,"task_switching","experiment",76,79,1,"add",NA,8,NA,"No","no",4.83333333333333,4,"high_verbal",79,73,69,74.8809999999991,"add",1,1,1
"250","78304","uncued",1205,2091433,2022-10-04 17:25:00,"rhyme-phon_sim-same_different-task_switching",2031,"task_switching","experiment",80,77,1,"subtract",NA,9,NA,"No","no",4.83333333333333,4,"high_verbal",83,77,70,74.8809999999991,"subtract",1,1,1
"251","78304","uncued",1206,2095917,2022-10-04 17:25:00,"rhyme-phon_sim-same_different-task_switching",4475.99999999977,"task_switching","experiment",46,49,1,"add",NA,10,NA,"No","no",4.83333333333333,4,"high_verbal",49,43,71,74.8809999999991,"add",1,1,1
"252","78304","uncued",1207,2097613,2022-10-04 17:25:00,"rhyme-phon_sim-same_different-task_switching",1687.00000000047,"task_switching","experiment",19,16,1,"subtract",NA,11,NA,"No","no",4.83333333333333,4,"high_verbal",22,16,72,74.8809999999991,"subtract",1,1,1
"253","78304","uncued",1208,2099202,2022-10-04 17:25:00,"rhyme-phon_sim-same_different-task_switching",1584,"task_switching","experiment",22,25,1,"add",NA,12,NA,"No","no",4.83333333333333,4,"high_verbal",25,19,73,74.8809999999991,"add",1,1,1
"254","78304","uncued",1209,2101294,2022-10-04 17:25:00,"rhyme-phon_sim-same_different-task_switching",2086,"task_switching","experiment",27,24,1,"subtract",NA,13,NA,"No","no",4.83333333333333,4,"high_verbal",30,24,74,74.8809999999991,"subtract",1,1,1
"255","78304","uncued",1210,2103629,2022-10-04 17:25:00,"rhyme-phon_sim-same_different-task_switching",2327,"task_switching","experiment",78,81,1,"add",NA,14,NA,"No","no",4.83333333333333,4,"high_verbal",81,75,75,74.8809999999991,"add",1,1,1
"256","78304","uncued",1211,2106195,2022-10-04 17:25:00,"rhyme-phon_sim-same_different-task_switching",2560,"task_switching","experiment",87,84,1,"subtract",NA,15,NA,"No","no",4.83333333333333,4,"high_verbal",90,84,76,74.8809999999991,"subtract",1,1,1
"257","78304","uncued",1212,2108789,2022-10-04 17:25:00,"rhyme-phon_sim-same_different-task_switching",2587,"task_switching","experiment",31,34,1,"add",NA,16,NA,"No","no",4.83333333333333,4,"high_verbal",34,28,77,74.8809999999991,"add",1,1,1
"258","78304","uncued",1213,2112431,2022-10-04 17:25:00,"rhyme-phon_sim-same_different-task_switching",3634,"task_switching","experiment",37,34,1,"subtract",NA,17,NA,"No","no",4.83333333333333,4,"high_verbal",40,34,78,74.8809999999991,"subtract",1,1,1
"259","78304","uncued",1214,2117685,2022-10-04 17:25:00,"rhyme-phon_sim-same_different-task_switching",5248,"task_switching","experiment",18,21,1,"add",NA,18,NA,"No","no",4.83333333333333,4,"high_verbal",21,15,79,74.8809999999991,"add",1,1,1
"260","78304","uncued",1215,2122188,2022-10-04 17:25:00,"rhyme-phon_sim-same_different-task_switching",4495,"task_switching","experiment",79,76,1,"subtract",NA,19,NA,"No","no",4.83333333333333,4,"high_verbal",82,76,80,74.8809999999991,"subtract",1,1,1
"261","78304","uncued",1216,2123973,2022-10-04 17:25:00,"rhyme-phon_sim-same_different-task_switching",1780,"task_switching","experiment",72,75,1,"add",NA,20,NA,"No","no",4.83333333333333,4,"high_verbal",75,69,81,74.8809999999991,"add",1,1,1
"262","78304","uncued",1217,2128793,2022-10-04 17:25:00,"rhyme-phon_sim-same_different-task_switching",4812.99999999953,"task_switching","experiment",83,80,1,"subtract",NA,21,NA,"No","no",4.83333333333333,4,"high_verbal",86,80,82,74.8809999999991,"subtract",1,1,1
"263","78304","uncued",1218,2130612,2022-10-04 17:25:00,"rhyme-phon_sim-same_different-task_switching",1814.99999999953,"task_switching","experiment",41,44,1,"add",NA,22,NA,"No","no",4.83333333333333,4,"high_verbal",44,38,83,74.8809999999991,"add",1,1,1
"264","78304","uncued",1219,2133950,2022-10-04 17:25:00,"rhyme-phon_sim-same_different-task_switching",3331,"task_switching","experiment",91,88,1,"subtract",NA,23,NA,"No","no",4.83333333333333,4,"high_verbal",94,88,84,74.8809999999991,"subtract",1,1,1
"265","78304","uncued",1220,2135378,2022-10-04 17:25:00,"rhyme-phon_sim-same_different-task_switching",1421,"task_switching","experiment",20,23,1,"add",NA,24,NA,"No","no",4.83333333333333,4,"high_verbal",23,17,85,74.8809999999991,"add",1,1,1
"266","78304","uncued",1221,2137081,2022-10-04 17:25:00,"rhyme-phon_sim-same_different-task_switching",1696.99999999953,"task_switching","experiment",84,81,1,"subtract",NA,25,NA,"No","no",4.83333333333333,4,"high_verbal",87,81,86,74.8809999999991,"subtract",1,1,1
"267","78304","uncued",1222,2139994,2022-10-04 17:25:00,"rhyme-phon_sim-same_different-task_switching",2905,"task_switching","experiment",29,32,1,"add",NA,26,NA,"No","no",4.83333333333333,4,"high_verbal",32,26,87,74.8809999999991,"add",1,1,1
"268","78304","uncued",1223,2141376,2022-10-04 17:25:00,"rhyme-phon_sim-same_different-task_switching",1376,"task_switching","experiment",36,33,1,"subtract",NA,27,NA,"No","no",4.83333333333333,4,"high_verbal",39,33,88,74.8809999999991,"subtract",1,1,1
"269","78304","uncued",1224,2143913,2022-10-04 17:25:00,"rhyme-phon_sim-same_different-task_switching",2532,"task_switching","experiment",44,47,1,"add",NA,28,NA,"No","no",4.83333333333333,4,"high_verbal",47,41,89,74.8809999999991,"add",1,1,1
"270","78304","uncued",1225,2146676,2022-10-04 17:25:00,"rhyme-phon_sim-same_different-task_switching",2757,"task_switching","experiment",48,45,1,"subtract",NA,29,NA,"No","no",4.83333333333333,4,"high_verbal",51,45,90,74.8809999999991,"subtract",1,1,1
"271","78315","uncued",189,1087490,2022-09-30 19:27:27,"phon_sim-task_switching-rhyme-same_different",2169,"task_switching","experiment",96,99,1,"add",NA,0,NA,"No","Internally thought about it and would tell myself add or stubtract for the colors and for the every other rounds.",2.66666666666667,3.1,"low_verbal",99,93,61,58.3779999999993,"add",1,1,1
"272","78315","uncued",190,1089153,2022-09-30 19:27:27,"phon_sim-task_switching-rhyme-same_different",1662,"task_switching","experiment",57,54,1,"subtract",NA,1,NA,"No","Internally thought about it and would tell myself add or stubtract for the colors and for the every other rounds.",2.66666666666667,3.1,"low_verbal",60,54,62,58.3779999999993,"subtract",1,1,1
"273","78315","uncued",191,1091015,2022-09-30 19:27:27,"phon_sim-task_switching-rhyme-same_different",1857,"task_switching","experiment",50,53,1,"add",NA,2,NA,"No","Internally thought about it and would tell myself add or stubtract for the colors and for the every other rounds.",2.66666666666667,3.1,"low_verbal",53,47,63,58.3779999999993,"add",1,1,1
"274","78315","uncued",192,1093849,2022-09-30 19:27:27,"phon_sim-task_switching-rhyme-same_different",2827,"task_switching","experiment",85,82,1,"subtract",NA,3,NA,"No","Internally thought about it and would tell myself add or stubtract for the colors and for the every other rounds.",2.66666666666667,3.1,"low_verbal",88,82,64,58.3779999999993,"subtract",1,1,1
"275","78315","uncued",193,1095533,2022-09-30 19:27:27,"phon_sim-task_switching-rhyme-same_different",1679,"task_switching","experiment",55,58,1,"add",NA,4,NA,"No","Internally thought about it and would tell myself add or stubtract for the colors and for the every other rounds.",2.66666666666667,3.1,"low_verbal",58,52,65,58.3779999999993,"add",1,1,1
"276","78315","uncued",194,1097133,2022-09-30 19:27:27,"phon_sim-task_switching-rhyme-same_different",1594,"task_switching","experiment",16,13,1,"subtract",NA,5,NA,"No","Internally thought about it and would tell myself add or stubtract for the colors and for the every other rounds.",2.66666666666667,3.1,"low_verbal",19,13,66,58.3779999999993,"subtract",1,1,1
"277","78315","uncued",195,1098933,2022-09-30 19:27:27,"phon_sim-task_switching-rhyme-same_different",1795,"task_switching","experiment",71,74,1,"add",NA,6,NA,"No","Internally thought about it and would tell myself add or stubtract for the colors and for the every other rounds.",2.66666666666667,3.1,"low_verbal",74,68,67,58.3779999999993,"add",1,1,1
"278","78315","uncued",196,1100816,2022-09-30 19:27:27,"phon_sim-task_switching-rhyme-same_different",1877,"task_switching","experiment",18,15,1,"subtract",NA,7,NA,"No","Internally thought about it and would tell myself add or stubtract for the colors and for the every other rounds.",2.66666666666667,3.1,"low_verbal",21,15,68,58.3779999999993,"subtract",1,1,1
"279","78315","uncued",197,1102567,2022-09-30 19:27:27,"phon_sim-task_switching-rhyme-same_different",1730,"task_switching","experiment",86,89,1,"add",NA,8,NA,"No","Internally thought about it and would tell myself add or stubtract for the colors and for the every other rounds.",2.66666666666667,3.1,"low_verbal",89,83,69,58.3779999999993,"add",1,1,1
"280","78315","uncued",198,1104118,2022-09-30 19:27:27,"phon_sim-task_switching-rhyme-same_different",1544,"task_switching","experiment",76,73,1,"subtract",NA,9,NA,"No","Internally thought about it and would tell myself add or stubtract for the colors and for the every other rounds.",2.66666666666667,3.1,"low_verbal",79,73,70,58.3779999999993,"subtract",1,1,1
"281","78315","uncued",199,1106098,2022-09-30 19:27:27,"phon_sim-task_switching-rhyme-same_different",1974,"task_switching","experiment",54,57,1,"add",NA,10,NA,"No","Internally thought about it and would tell myself add or stubtract for the colors and for the every other rounds.",2.66666666666667,3.1,"low_verbal",57,51,71,58.3779999999993,"add",1,1,1
"282","78315","uncued",200,1107730,2022-09-30 19:27:27,"phon_sim-task_switching-rhyme-same_different",1627,"task_switching","experiment",88,85,1,"subtract",NA,11,NA,"No","Internally thought about it and would tell myself add or stubtract for the colors and for the every other rounds.",2.66666666666667,3.1,"low_verbal",91,85,72,58.3779999999993,"subtract",1,1,1
"283","78315","uncued",201,1110422,2022-09-30 19:27:27,"phon_sim-task_switching-rhyme-same_different",2686,"task_switching","experiment",81,84,1,"add",NA,12,NA,"No","Internally thought about it and would tell myself add or stubtract for the colors and for the every other rounds.",2.66666666666667,3.1,"low_verbal",84,78,73,58.3779999999993,"add",1,1,1
"284","78315","uncued",202,1113263,2022-09-30 19:27:27,"phon_sim-task_switching-rhyme-same_different",2839,"task_switching","experiment",73,70,1,"subtract",NA,13,NA,"No","Internally thought about it and would tell myself add or stubtract for the colors and for the every other rounds.",2.66666666666667,3.1,"low_verbal",76,70,74,58.3779999999993,"subtract",1,1,1
"285","78315","uncued",203,1114782,2022-09-30 19:27:27,"phon_sim-task_switching-rhyme-same_different",1512,"task_switching","experiment",80,83,1,"add",NA,14,NA,"No","Internally thought about it and would tell myself add or stubtract for the colors and for the every other rounds.",2.66666666666667,3.1,"low_verbal",83,77,75,58.3779999999993,"add",1,1,1
"286","78315","uncued",204,1116697,2022-09-30 19:27:27,"phon_sim-task_switching-rhyme-same_different",1910,"task_switching","experiment",22,19,1,"subtract",NA,15,NA,"No","Internally thought about it and would tell myself add or stubtract for the colors and for the every other rounds.",2.66666666666667,3.1,"low_verbal",25,19,76,58.3779999999993,"subtract",1,1,1
"287","78315","uncued",205,1118217,2022-09-30 19:27:27,"phon_sim-task_switching-rhyme-same_different",1514,"task_switching","experiment",61,64,1,"add",NA,16,NA,"No","Internally thought about it and would tell myself add or stubtract for the colors and for the every other rounds.",2.66666666666667,3.1,"low_verbal",64,58,77,58.3779999999993,"add",1,1,1
"288","78315","uncued",206,1119881,2022-09-30 19:27:27,"phon_sim-task_switching-rhyme-same_different",1657,"task_switching","experiment",21,18,1,"subtract",NA,17,NA,"No","Internally thought about it and would tell myself add or stubtract for the colors and for the every other rounds.",2.66666666666667,3.1,"low_verbal",24,18,78,58.3779999999993,"subtract",1,1,1
"289","78315","uncued",207,1121665,2022-09-30 19:27:27,"phon_sim-task_switching-rhyme-same_different",1777,"task_switching","experiment",47,50,1,"add",NA,18,NA,"No","Internally thought about it and would tell myself add or stubtract for the colors and for the every other rounds.",2.66666666666667,3.1,"low_verbal",50,44,79,58.3779999999993,"add",1,1,1
"290","78315","uncued",208,1123433,2022-09-30 19:27:27,"phon_sim-task_switching-rhyme-same_different",1761.99999999977,"task_switching","experiment",23,20,1,"subtract",NA,19,NA,"No","Internally thought about it and would tell myself add or stubtract for the colors and for the every other rounds.",2.66666666666667,3.1,"low_verbal",26,20,80,58.3779999999993,"subtract",1,1,1
"291","78315","uncued",209,1124981,2022-09-30 19:27:27,"phon_sim-task_switching-rhyme-same_different",1542,"task_switching","experiment",36,39,1,"add",NA,20,NA,"No","Internally thought about it and would tell myself add or stubtract for the colors and for the every other rounds.",2.66666666666667,3.1,"low_verbal",39,33,81,58.3779999999993,"add",1,1,1
"292","78315","uncued",210,1126529,2022-09-30 19:27:27,"phon_sim-task_switching-rhyme-same_different",1543,"task_switching","experiment",64,61,1,"subtract",NA,21,NA,"No","Internally thought about it and would tell myself add or stubtract for the colors and for the every other rounds.",2.66666666666667,3.1,"low_verbal",67,61,82,58.3779999999993,"subtract",1,1,1
"293","78315","uncued",211,1128346,2022-09-30 19:27:27,"phon_sim-task_switching-rhyme-same_different",1810.99999999977,"task_switching","experiment",29,32,1,"add",NA,22,NA,"No","Internally thought about it and would tell myself add or stubtract for the colors and for the every other rounds.",2.66666666666667,3.1,"low_verbal",32,26,83,58.3779999999993,"add",1,1,1
"294","78315","uncued",212,1130179,2022-09-30 19:27:27,"phon_sim-task_switching-rhyme-same_different",1825.99999999977,"task_switching","experiment",93,90,1,"subtract",NA,23,NA,"No","Internally thought about it and would tell myself add or stubtract for the colors and for the every other rounds.",2.66666666666667,3.1,"low_verbal",96,90,84,58.3779999999993,"subtract",1,1,1
"295","78315","uncued",213,1131829,2022-09-30 19:27:27,"phon_sim-task_switching-rhyme-same_different",1643,"task_switching","experiment",95,98,1,"add",NA,24,NA,"No","Internally thought about it and would tell myself add or stubtract for the colors and for the every other rounds.",2.66666666666667,3.1,"low_verbal",98,92,85,58.3779999999993,"add",1,1,1
"296","78315","uncued",214,1134562,2022-09-30 19:27:27,"phon_sim-task_switching-rhyme-same_different",2728,"task_switching","experiment",14,11,1,"subtract",NA,25,NA,"No","Internally thought about it and would tell myself add or stubtract for the colors and for the every other rounds.",2.66666666666667,3.1,"low_verbal",17,11,86,58.3779999999993,"subtract",1,1,1
"297","78315","uncued",215,1138466,2022-09-30 19:27:27,"phon_sim-task_switching-rhyme-same_different",3898,"task_switching","experiment",58,61,1,"add",NA,26,NA,"No","Internally thought about it and would tell myself add or stubtract for the colors and for the every other rounds.",2.66666666666667,3.1,"low_verbal",61,55,87,58.3779999999993,"add",1,1,1
"298","78315","uncued",216,1140396,2022-09-30 19:27:27,"phon_sim-task_switching-rhyme-same_different",1924,"task_switching","experiment",53,50,1,"subtract",NA,27,NA,"No","Internally thought about it and would tell myself add or stubtract for the colors and for the every other rounds.",2.66666666666667,3.1,"low_verbal",56,50,88,58.3779999999993,"subtract",1,1,1
"299","78315","uncued",217,1142195,2022-09-30 19:27:27,"phon_sim-task_switching-rhyme-same_different",1793,"task_switching","experiment",27,30,1,"add",NA,28,NA,"No","Internally thought about it and would tell myself add or stubtract for the colors and for the every other rounds.",2.66666666666667,3.1,"low_verbal",30,24,89,58.3779999999993,"add",1,1,1
"300","78315","uncued",218,1143879,2022-09-30 19:27:27,"phon_sim-task_switching-rhyme-same_different",1678,"task_switching","experiment",48,45,1,"subtract",NA,29,NA,"No","Internally thought about it and would tell myself add or stubtract for the colors and for the every other rounds.",2.66666666666667,3.1,"low_verbal",51,45,90,58.3779999999993,"subtract",1,1,1
"301","78391","uncued",1300,2274035,2022-10-01 21:04:28,"rhyme-same_different-phon_sim-task_switching",3041.39999985695,"task_switching","experiment",24,27,1,"add",NA,0,NA,"Yes","I used my thumb to keep track",3.08333333333333,3.9,"low_verbal",27,21,121,78.8908000001907,"add",1,1,1
"302","78391","uncued",1301,2275946,2022-10-01 21:04:28,"rhyme-same_different-phon_sim-task_switching",1907.20000004768,"task_switching","experiment",64,61,1,"subtract",NA,1,NA,"Yes","I used my thumb to keep track",3.08333333333333,3.9,"low_verbal",67,61,122,78.8908000001907,"subtract",1,1,1
"303","78391","uncued",1302,2277946,2022-10-01 21:04:28,"rhyme-same_different-phon_sim-task_switching",1997.40000009537,"task_switching","experiment",69,72,1,"add",NA,2,NA,"Yes","I used my thumb to keep track",3.08333333333333,3.9,"low_verbal",72,66,123,78.8908000001907,"add",1,1,1
"304","78391","uncued",1303,2280094,2022-10-01 21:04:28,"rhyme-same_different-phon_sim-task_switching",2144.5,"task_switching","experiment",25,22,1,"subtract",NA,3,NA,"Yes","I used my thumb to keep track",3.08333333333333,3.9,"low_verbal",28,22,124,78.8908000001907,"subtract",1,1,1
"305","78391","uncued",1304,2281878,2022-10-01 21:04:28,"rhyme-same_different-phon_sim-task_switching",1780.5,"task_switching","experiment",47,50,1,"add",NA,4,NA,"Yes","I used my thumb to keep track",3.08333333333333,3.9,"low_verbal",50,44,125,78.8908000001907,"add",1,1,1
"306","78391","uncued",1305,2284257,2022-10-01 21:04:28,"rhyme-same_different-phon_sim-task_switching",2374.20000004768,"task_switching","experiment",82,79,1,"subtract",NA,5,NA,"Yes","I used my thumb to keep track",3.08333333333333,3.9,"low_verbal",85,79,126,78.8908000001907,"subtract",1,1,1
"307","78391","uncued",1306,2286864,2022-10-01 21:04:28,"rhyme-same_different-phon_sim-task_switching",2604,"task_switching","experiment",27,30,1,"add",NA,6,NA,"Yes","I used my thumb to keep track",3.08333333333333,3.9,"low_verbal",30,24,127,78.8908000001907,"add",1,1,1
"308","78391","uncued",1307,2289308,2022-10-01 21:04:28,"rhyme-same_different-phon_sim-task_switching",2440.09999990463,"task_switching","experiment",50,47,1,"subtract",NA,7,NA,"Yes","I used my thumb to keep track",3.08333333333333,3.9,"low_verbal",53,47,128,78.8908000001907,"subtract",1,1,1
"309","78391","uncued",1308,2292130,2022-10-01 21:04:28,"rhyme-same_different-phon_sim-task_switching",2819,"task_switching","experiment",45,48,1,"add",NA,8,NA,"Yes","I used my thumb to keep track",3.08333333333333,3.9,"low_verbal",48,42,129,78.8908000001907,"add",1,1,1
"310","78391","uncued",1309,2295977,2022-10-01 21:04:28,"rhyme-same_different-phon_sim-task_switching",3842.79999995232,"task_switching","experiment",87,84,1,"subtract",NA,9,NA,"Yes","I used my thumb to keep track",3.08333333333333,3.9,"low_verbal",90,84,130,78.8908000001907,"subtract",1,1,1
"311","78391","uncued",1310,2297992,2022-10-01 21:04:28,"rhyme-same_different-phon_sim-task_switching",2012.09999990463,"task_switching","experiment",67,70,1,"add",NA,10,NA,"Yes","I used my thumb to keep track",3.08333333333333,3.9,"low_verbal",70,64,131,78.8908000001907,"add",1,1,1
"312","78391","uncued",1311,2301126,2022-10-01 21:04:28,"rhyme-same_different-phon_sim-task_switching",3131,"task_switching","experiment",40,37,1,"subtract",NA,11,NA,"Yes","I used my thumb to keep track",3.08333333333333,3.9,"low_verbal",43,37,132,78.8908000001907,"subtract",1,1,1
"313","78391","uncued",1312,2303676,2022-10-01 21:04:28,"rhyme-same_different-phon_sim-task_switching",2546.59999990463,"task_switching","experiment",28,31,1,"add",NA,12,NA,"Yes","I used my thumb to keep track",3.08333333333333,3.9,"low_verbal",31,25,133,78.8908000001907,"add",1,1,1
"314","78391","uncued",1313,2306900,2022-10-01 21:04:28,"rhyme-same_different-phon_sim-task_switching",3219.80000019073,"task_switching","experiment",96,93,1,"subtract",NA,13,NA,"Yes","I used my thumb to keep track",3.08333333333333,3.9,"low_verbal",99,93,134,78.8908000001907,"subtract",1,1,1
"315","78391","uncued",1314,2309375,2022-10-01 21:04:28,"rhyme-same_different-phon_sim-task_switching",2471.79999995232,"task_switching","experiment",54,57,1,"add",NA,14,NA,"Yes","I used my thumb to keep track",3.08333333333333,3.9,"low_verbal",57,51,135,78.8908000001907,"add",1,1,1
"316","78391","uncued",1315,2313670,2022-10-01 21:04:28,"rhyme-same_different-phon_sim-task_switching",4290.29999995232,"task_switching","experiment",59,56,1,"subtract",NA,15,NA,"Yes","I used my thumb to keep track",3.08333333333333,3.9,"low_verbal",62,56,136,78.8908000001907,"subtract",1,1,1
"317","78391","uncued",1316,2317176,2022-10-01 21:04:28,"rhyme-same_different-phon_sim-task_switching",3501.5,"task_switching","experiment",73,76,1,"add",NA,16,NA,"Yes","I used my thumb to keep track",3.08333333333333,3.9,"low_verbal",76,70,137,78.8908000001907,"add",1,1,1
"318","78391","uncued",1317,2321578,2022-10-01 21:04:28,"rhyme-same_different-phon_sim-task_switching",4398.90000009537,"task_switching","experiment",71,68,1,"subtract",NA,17,NA,"Yes","I used my thumb to keep track",3.08333333333333,3.9,"low_verbal",74,68,138,78.8908000001907,"subtract",1,1,1
"319","78391","uncued",1318,2323589,2022-10-01 21:04:28,"rhyme-same_different-phon_sim-task_switching",2007.40000009537,"task_switching","experiment",49,52,1,"add",NA,18,NA,"Yes","I used my thumb to keep track",3.08333333333333,3.9,"low_verbal",52,46,139,78.8908000001907,"add",1,1,1
"320","78391","uncued",1319,2325827,2022-10-01 21:04:28,"rhyme-same_different-phon_sim-task_switching",2234.5,"task_switching","experiment",17,13,0,"subtract",NA,19,NA,"Yes","I used my thumb to keep track",3.08333333333333,3.9,"low_verbal",20,14,140,78.8908000001907,"subtract",1,0,0
"321","78391","uncued",1320,2327710,2022-10-01 21:04:28,"rhyme-same_different-phon_sim-task_switching",1877.89999985695,"task_switching","experiment",61,64,1,"add",NA,20,NA,"Yes","I used my thumb to keep track",3.08333333333333,3.9,"low_verbal",64,58,141,78.8908000001907,"add",1,1,1
"322","78391","uncued",1321,2331215,2022-10-01 21:04:28,"rhyme-same_different-phon_sim-task_switching",3502.20000004768,"task_switching","experiment",95,92,1,"subtract",NA,21,NA,"Yes","I used my thumb to keep track",3.08333333333333,3.9,"low_verbal",98,92,142,78.8908000001907,"subtract",1,1,1
"323","78391","uncued",1322,2333656,2022-10-01 21:04:28,"rhyme-same_different-phon_sim-task_switching",2436.5,"task_switching","experiment",38,41,1,"add",NA,22,NA,"Yes","I used my thumb to keep track",3.08333333333333,3.9,"low_verbal",41,35,143,78.8908000001907,"add",1,1,1
"324","78391","uncued",1323,2337399,2022-10-01 21:04:28,"rhyme-same_different-phon_sim-task_switching",3740.10000014305,"task_switching","experiment",43,40,1,"subtract",NA,23,NA,"Yes","I used my thumb to keep track",3.08333333333333,3.9,"low_verbal",46,40,144,78.8908000001907,"subtract",1,1,1
"325","78391","uncued",1324,2339482,2022-10-01 21:04:28,"rhyme-same_different-phon_sim-task_switching",2079,"task_switching","experiment",88,91,1,"add",NA,24,NA,"Yes","I used my thumb to keep track",3.08333333333333,3.9,"low_verbal",91,85,145,78.8908000001907,"add",1,1,1
"326","78391","uncued",1325,2341291,2022-10-01 21:04:28,"rhyme-same_different-phon_sim-task_switching",1804.90000009537,"task_switching","experiment",65,62,1,"subtract",NA,25,NA,"Yes","I used my thumb to keep track",3.08333333333333,3.9,"low_verbal",68,62,146,78.8908000001907,"subtract",1,1,1
"327","78391","uncued",1326,2343227,2022-10-01 21:04:28,"rhyme-same_different-phon_sim-task_switching",1932.30000019073,"task_switching","experiment",33,36,1,"add",NA,26,NA,"Yes","I used my thumb to keep track",3.08333333333333,3.9,"low_verbal",36,30,147,78.8908000001907,"add",1,1,1
"328","78391","uncued",1327,2344955,2022-10-01 21:04:28,"rhyme-same_different-phon_sim-task_switching",1724,"task_switching","experiment",44,41,1,"subtract",NA,27,NA,"Yes","I used my thumb to keep track",3.08333333333333,3.9,"low_verbal",47,41,148,78.8908000001907,"subtract",1,1,1
"329","78391","uncued",1328,2348683,2022-10-01 21:04:28,"rhyme-same_different-phon_sim-task_switching",3724.09999990463,"task_switching","experiment",74,77,1,"add",NA,28,NA,"Yes","I used my thumb to keep track",3.08333333333333,3.9,"low_verbal",77,71,149,78.8908000001907,"add",1,1,1
"330","78391","uncued",1329,2349991,2022-10-01 21:04:28,"rhyme-same_different-phon_sim-task_switching",1304.79999995232,"task_switching","experiment",23,20,1,"subtract",NA,29,NA,"Yes","I used my thumb to keep track",3.08333333333333,3.9,"low_verbal",26,20,150,78.8908000001907,"subtract",1,1,1
"331","78422","uncued",234,705526,2022-10-03 00:50:07,"task_switching-same_different-phon_sim-rhyme",3313,"task_switching","experiment",13,16,1,"add",NA,0,NA,"No","I used my thumb to keep track",4.75,3.9,"high_verbal",16,10,119,80.7121999988556,"add",1,1,1
"332","78422","uncued",235,707508,2022-10-03 00:50:07,"task_switching-same_different-phon_sim-rhyme",1979.60000038147,"task_switching","experiment",96,93,1,"subtract",NA,1,NA,"No","I used my thumb to keep track",4.75,3.9,"high_verbal",99,93,120,80.7121999988556,"subtract",1,1,1
"333","78422","uncued",236,709877,2022-10-03 00:50:07,"task_switching-same_different-phon_sim-rhyme",2366.80000114441,"task_switching","experiment",46,49,1,"add",NA,2,NA,"No","I used my thumb to keep track",4.75,3.9,"high_verbal",49,43,121,80.7121999988556,"add",1,1,1
"334","78422","uncued",237,712414,2022-10-03 00:50:07,"task_switching-same_different-phon_sim-rhyme",2533.10000038147,"task_switching","experiment",32,29,1,"subtract",NA,3,NA,"No","I used my thumb to keep track",4.75,3.9,"high_verbal",35,29,122,80.7121999988556,"subtract",1,1,1
"335","78422","uncued",238,715105,2022-10-03 00:50:07,"task_switching-same_different-phon_sim-rhyme",2688.29999923706,"task_switching","experiment",26,29,1,"add",NA,4,NA,"No","I used my thumb to keep track",4.75,3.9,"high_verbal",29,23,123,80.7121999988556,"add",1,1,1
"336","78422","uncued",239,717993,2022-10-03 00:50:07,"task_switching-same_different-phon_sim-rhyme",2885,"task_switching","experiment",64,61,1,"subtract",NA,5,NA,"No","I used my thumb to keep track",4.75,3.9,"high_verbal",67,61,124,80.7121999988556,"subtract",1,1,1
"337","78422","uncued",240,719961,2022-10-03 00:50:07,"task_switching-same_different-phon_sim-rhyme",1966,"task_switching","experiment",83,86,1,"add",NA,6,NA,"No","I used my thumb to keep track",4.75,3.9,"high_verbal",86,80,125,80.7121999988556,"add",1,1,1
"338","78422","uncued",241,722409,2022-10-03 00:50:07,"task_switching-same_different-phon_sim-rhyme",2445.39999961853,"task_switching","experiment",86,83,1,"subtract",NA,7,NA,"No","I used my thumb to keep track",4.75,3.9,"high_verbal",89,83,126,80.7121999988556,"subtract",1,1,1
"339","78422","uncued",242,724270,2022-10-03 00:50:07,"task_switching-same_different-phon_sim-rhyme",1859,"task_switching","experiment",44,47,1,"add",NA,8,NA,"No","I used my thumb to keep track",4.75,3.9,"high_verbal",47,41,127,80.7121999988556,"add",1,1,1
"340","78422","uncued",243,727259,2022-10-03 00:50:07,"task_switching-same_different-phon_sim-rhyme",2985.70000076294,"task_switching","experiment",66,63,1,"subtract",NA,9,NA,"No","I used my thumb to keep track",4.75,3.9,"high_verbal",69,63,128,80.7121999988556,"subtract",1,1,1
"341","78422","uncued",257,794727,2022-10-03 00:50:07,"task_switching-same_different-phon_sim-rhyme",2013.70000076294,"task_switching","experiment",25,22,1,"subtract",NA,23,NA,"No","I used my thumb to keep track",4.75,3.9,"high_verbal",28,22,140,80.7121999988556,"subtract",1,1,0
"342","78422","uncued",258,797265,2022-10-03 00:50:07,"task_switching-same_different-phon_sim-rhyme",2534.89999961853,"task_switching","experiment",24,21,0,"add",NA,24,NA,"No","I used my thumb to keep track",4.75,3.9,"high_verbal",27,21,141,80.7121999988556,"subtract",0,1,0
"343","78422","uncued",259,800291,2022-10-03 00:50:07,"task_switching-same_different-phon_sim-rhyme",3023.10000038147,"task_switching","experiment",47,50,0,"subtract",NA,25,NA,"No","I used my thumb to keep track",4.75,3.9,"high_verbal",50,44,142,80.7121999988556,"add",0,1,1
"344","78422","uncued",262,840153,2022-10-03 00:50:07,"task_switching-same_different-phon_sim-rhyme",4025.20000076294,"task_switching","experiment",31,28,0,"subtract",NA,28,NA,"No","I used my thumb to keep track",4.75,3.9,"high_verbal",34,28,144,80.7121999988556,"subtract",1,1,0
"345","78422","uncued",263,842306,2022-10-03 00:50:07,"task_switching-same_different-phon_sim-rhyme",2150.5,"task_switching","experiment",91,94,0,"add",NA,29,NA,"No","I used my thumb to keep track",4.75,3.9,"high_verbal",94,88,145,80.7121999988556,"add",1,1,1
"346","78471","uncued",940,926922,2022-10-05 21:54:18,"same_different-task_switching-phon_sim-rhyme",1796.39999997616,"task_switching","experiment",16,19,1,"add",NA,0,NA,"Yes","i say the number then add or subtract",4.83333333333333,3.2,"high_verbal",19,13,61,88.1381000000238,"add",1,1,1
"347","78471","uncued",941,929972,2022-10-05 21:54:18,"same_different-task_switching-phon_sim-rhyme",3048,"task_switching","experiment",25,22,1,"subtract",NA,1,NA,"Yes","i say the number then add or subtract",4.83333333333333,3.2,"high_verbal",28,22,62,88.1381000000238,"subtract",1,1,1
"348","78471","uncued",942,932014,2022-10-05 21:54:18,"same_different-task_switching-phon_sim-rhyme",2040.19999998808,"task_switching","experiment",44,47,1,"add",NA,2,NA,"Yes","i say the number then add or subtract",4.83333333333333,3.2,"high_verbal",47,41,63,88.1381000000238,"add",1,1,1
"349","78471","uncued",943,934486,2022-10-05 21:54:18,"same_different-task_switching-phon_sim-rhyme",2469.5,"task_switching","experiment",60,57,1,"subtract",NA,3,NA,"Yes","i say the number then add or subtract",4.83333333333333,3.2,"high_verbal",63,57,64,88.1381000000238,"subtract",1,1,1
"350","78471","uncued",944,936727,2022-10-05 21:54:18,"same_different-task_switching-phon_sim-rhyme",2239.60000002384,"task_switching","experiment",39,42,1,"add",NA,4,NA,"Yes","i say the number then add or subtract",4.83333333333333,3.2,"high_verbal",42,36,65,88.1381000000238,"add",1,1,1
"351","78471","uncued",945,940239,2022-10-05 21:54:18,"same_different-task_switching-phon_sim-rhyme",3509.79999995232,"task_switching","experiment",69,66,1,"subtract",NA,5,NA,"Yes","i say the number then add or subtract",4.83333333333333,3.2,"high_verbal",72,66,66,88.1381000000238,"subtract",1,1,1
"352","78471","uncued",946,942693,2022-10-05 21:54:18,"same_different-task_switching-phon_sim-rhyme",2451.39999997616,"task_switching","experiment",43,46,1,"add",NA,6,NA,"Yes","i say the number then add or subtract",4.83333333333333,3.2,"high_verbal",46,40,67,88.1381000000238,"add",1,1,1
"353","78471","uncued",947,945275,2022-10-05 21:54:18,"same_different-task_switching-phon_sim-rhyme",2579.69999998808,"task_switching","experiment",79,76,1,"subtract",NA,7,NA,"Yes","i say the number then add or subtract",4.83333333333333,3.2,"high_verbal",82,76,68,88.1381000000238,"subtract",1,1,1
"354","78471","uncued",948,946826,2022-10-05 21:54:18,"same_different-task_switching-phon_sim-rhyme",1548.5,"task_switching","experiment",14,17,1,"add",NA,8,NA,"Yes","i say the number then add or subtract",4.83333333333333,3.2,"high_verbal",17,11,69,88.1381000000238,"add",1,1,1
"355","78471","uncued",949,948645,2022-10-05 21:54:18,"same_different-task_switching-phon_sim-rhyme",1817.10000002384,"task_switching","experiment",30,27,1,"subtract",NA,9,NA,"Yes","i say the number then add or subtract",4.83333333333333,3.2,"high_verbal",33,27,70,88.1381000000238,"subtract",1,1,1
"356","78471","uncued",950,950690,2022-10-05 21:54:18,"same_different-task_switching-phon_sim-rhyme",2042.80000001192,"task_switching","experiment",20,23,1,"add",NA,10,NA,"Yes","i say the number then add or subtract",4.83333333333333,3.2,"high_verbal",23,17,71,88.1381000000238,"add",1,1,1
"357","78471","uncued",951,952237,2022-10-05 21:54:18,"same_different-task_switching-phon_sim-rhyme",1545.30000001192,"task_switching","experiment",24,21,1,"subtract",NA,11,NA,"Yes","i say the number then add or subtract",4.83333333333333,3.2,"high_verbal",27,21,72,88.1381000000238,"subtract",1,1,1
"358","78471","uncued",952,955389,2022-10-05 21:54:18,"same_different-task_switching-phon_sim-rhyme",3150.5,"task_switching","experiment",77,80,1,"add",NA,12,NA,"Yes","i say the number then add or subtract",4.83333333333333,3.2,"high_verbal",80,74,73,88.1381000000238,"add",1,1,1
