"","image_2","image_1","trial_index","time_elapsed","experiment_order","rt","experiment","response","phase","stimulus","correct","question_order","talk_out_loud","strategy_free_ans","cor_key","type","VerbalScored","VisualScored","high_low_verbal","worker_id","name_agreement_img1","name_agreement_img2","trial_no_ptcp"
"1","visual/beer.png","visual/claw.png",19,152751,"rhyme-same_different-task_switching-phon_sim",2192.40000009537,"rhyme","arrowdown","experiment","<div style=""border: 3px solid #000000; position: fixed;left:14%;top:30%""><img src=""visual/claw.png"" width=""300""></div><div style=""border: 3px solid #000000; position: fixed;left:64%;top:30%""><img src=""visual/beer.png"" width=""300""></div>",1,NA,"No","some were hard to tell what they were supposed to be","arrowdown","NR",1.42,2.7,"low_verbal","fX6rWWkd",0.55,0.75,1
"2","visual/beer.png","visual/deer.png",19,89914,"rhyme-task_switching-same_different-phon_sim",2007.4,"rhyme","arrowup","experiment","<div style=""border: 3px solid #000000; position: fixed;left:14%;top:30%""><img src=""visual/deer.png"" width=""300""></div><div style=""border: 3px solid #000000; position: fixed;left:64%;top:30%""><img src=""visual/beer.png"" width=""300""></div>",1,NA,"No","I said the pictures in my head before choosing.","arrowup","ortho",1.75,3.9,"low_verbal","Xa9ISMwC",0.65,0.75,1
"3","visual/bell.png","visual/well.png",19,49754,"rhyme-task_switching-same_different-phon_sim",2392.19999999553,"rhyme","arrowup","experiment","<div style=""border: 3px solid #000000; position: fixed;left:14%;top:30%""><img src=""visual/well.png"" width=""300""></div><div style=""border: 3px solid #000000; position: fixed;left:64%;top:30%""><img src=""visual/bell.png"" width=""300""></div>",1,NA,"No","No, I just said it in my head rather than out loud.","arrowup","ortho",4.75,4.5,"high_verbal","XWkUpOyp",0.95,0.9,1
"4","visual/bread.png","visual/bed.png",19,279830,"rhyme-phon_sim-same_different-task_switching",2482.69999999925,"rhyme","arrowup","experiment","<div style=""border: 3px solid #000000; position: fixed;left:14%;top:30%""><img src=""visual/bed.png"" width=""300""></div><div style=""border: 3px solid #000000; position: fixed;left:64%;top:30%""><img src=""visual/bread.png"" width=""300""></div>",1,NA,"No","I said it in my head ""aloud"".","arrowup","non-ortho",2.42,4.6,"low_verbal","HPiIXyO1",0.95,0.9,1
"5","visual/chair.png","visual/drawer.png",19,78350,"rhyme-task_switching-phon_sim-same_different",4610.79999995232,"rhyme","arrowdown","experiment","<div style=""border: 3px solid #000000; position: fixed;left:14%;top:30%""><img src=""visual/drawer.png"" width=""300""></div><div style=""border: 3px solid #000000; position: fixed;left:64%;top:30%""><img src=""visual/chair.png"" width=""300""></div>",1,NA,"No","I always viewed the picture on the left first","arrowdown","NR",3,3.5,"low_verbal","qkCSFiGm",0.8,0.95,1
"6","visual/clock.png","visual/brain.png",19,86236,"rhyme-task_switching-same_different-phon_sim",2578.89999999851,"rhyme","arrowdown","experiment","<div style=""border: 3px solid #000000; position: fixed;left:14%;top:30%""><img src=""visual/brain.png"" width=""300""></div><div style=""border: 3px solid #000000; position: fixed;left:64%;top:30%""><img src=""visual/clock.png"" width=""300""></div>",1,NA,"Yes","no_answer","arrowdown","NR",3,3.8,"low_verbal","xa4C6HC1",0.95,0.95,1
"7","visual/cone.png","visual/bone.png",19,44800,"rhyme-same_different-phon_sim-task_switching",1231.5,"rhyme","arrowup","experiment","<div style=""border: 3px solid #000000; position: fixed;left:14%;top:30%""><img src=""visual/bone.png"" width=""300""></div><div style=""border: 3px solid #000000; position: fixed;left:64%;top:30%""><img src=""visual/cone.png"" width=""300""></div>",1,NA,"No","I said the words in my head.","arrowup","ortho",4.67,4.4,"high_verbal","2Ie4vXKm",0.95,0.7,1
"8","visual/cone.png","visual/bone.png",19,95732,"rhyme-phon_sim-same_different-task_switching",1980.90000009537,"rhyme","arrowup","experiment","<div style=""border: 3px solid #000000; position: fixed;left:14%;top:30%""><img src=""visual/bone.png"" width=""300""></div><div style=""border: 3px solid #000000; position: fixed;left:64%;top:30%""><img src=""visual/cone.png"" width=""300""></div>",1,NA,"Yes","no_answer","arrowup","ortho",3.08333333333333,3.2,"low_verbal","4KFmznfv",0.95,0.7,1
"9","visual/crab.png","visual/spoon.png",19,201447,"rhyme-same_different-task_switching-phon_sim",1365,"rhyme","arrowdown","experiment","<div style=""border: 3px solid #000000; position: fixed;left:14%;top:30%""><img src=""visual/spoon.png"" width=""300""></div><div style=""border: 3px solid #000000; position: fixed;left:64%;top:30%""><img src=""visual/crab.png"" width=""300""></div>",1,NA,"Yes","I tried to quickly reference in my mind if I had heard the two words referenced together in rhyme before. I also tried to think ahead about what rhymed with certain words.","arrowdown","NR",5,4.8,"high_verbal","m6nAacjH",1,0.95,1
"10","visual/door.png","visual/tree.png",19,59525,"rhyme-task_switching-phon_sim-same_different",1935.20000004768,"rhyme","arrowdown","experiment","<div style=""border: 3px solid #000000; position: fixed;left:14%;top:30%""><img src=""visual/tree.png"" width=""300""></div><div style=""border: 3px solid #000000; position: fixed;left:64%;top:30%""><img src=""visual/door.png"" width=""300""></div>",1,NA,"Yes","no","arrowdown","NR",4.166667,4.1,"high_verbal","c8Txd3Z5",0.85,0.95,1
"11","visual/fox.png","visual/socks.png",19,76001,"rhyme-task_switching-same_different-phon_sim",1265.70000000298,"rhyme","arrowup","experiment","<div style=""border: 3px solid #000000; position: fixed;left:14%;top:30%""><img src=""visual/socks.png"" width=""300""></div><div style=""border: 3px solid #000000; position: fixed;left:64%;top:30%""><img src=""visual/fox.png"" width=""300""></div>",1,NA,"No","I mentally ""stated"" the words as a pair.","arrowup","non-ortho",1.67,3.3,"low_verbal","UhCBWnbb",0.9,0.85,1
"12","visual/jar.png","visual/star.png",19,53238,"rhyme-task_switching-same_different-phon_sim",1699.89999999106,"rhyme","arrowup","experiment","<div style=""border: 3px solid #000000; position: fixed;left:14%;top:30%""><img src=""visual/star.png"" width=""300""></div><div style=""border: 3px solid #000000; position: fixed;left:64%;top:30%""><img src=""visual/jar.png"" width=""300""></div>",1,NA,"Yes","no_answer","arrowup","ortho",2.83333333333333,3.2,"low_verbal","hRiDYGB2",0.95,0.95,1
"13","visual/leg.png","visual/egg.png",19,2379038,"rhyme-same_different-phon_sim-task_switching",2479.80000001192,"rhyme","arrowup","experiment","<div style=""border: 3px solid #000000; position: fixed;left:14%;top:30%""><img src=""visual/egg.png"" width=""300""></div><div style=""border: 3px solid #000000; position: fixed;left:64%;top:30%""><img src=""visual/leg.png"" width=""300""></div>",1,NA,"Yes","I just went with my gut intuition","arrowup","ortho",4.75,5,"high_verbal","DuDDHkI9",0.95,0.85,1
"14","visual/plane.png","visual/fly.png",19,85992,"rhyme-phon_sim-task_switching-same_different",2180.89999997616,"rhyme","arrowdown","experiment","<div style=""border: 3px solid #000000; position: fixed;left:14%;top:30%""><img src=""visual/fly.png"" width=""300""></div><div style=""border: 3px solid #000000; position: fixed;left:64%;top:30%""><img src=""visual/plane.png"" width=""300""></div>",1,NA,"No","I said the words in my head and made my selection as quickly as possible.","arrowdown","NR",4.416667,4.2,"high_verbal","Qy5J1Mxs",0.95,0.35,1
"15","visual/ring.png","visual/king.png",19,58964,"rhyme-task_switching-same_different-phon_sim",1303.10000000149,"rhyme","arrowup","experiment","<div style=""border: 3px solid #000000; position: fixed;left:14%;top:30%""><img src=""visual/king.png"" width=""300""></div><div style=""border: 3px solid #000000; position: fixed;left:64%;top:30%""><img src=""visual/ring.png"" width=""300""></div>",1,NA,"No","np","arrowup","ortho",2.92,4.2,"low_verbal","7rrmnKSW",0.8,0.9,1
"16","visual/ring.png","visual/king.png",19,154587,"rhyme-same_different-task_switching-phon_sim",2323.69999980927,"rhyme","arrowup","experiment","<div style=""border: 3px solid #000000; position: fixed;left:14%;top:30%""><img src=""visual/king.png"" width=""300""></div><div style=""border: 3px solid #000000; position: fixed;left:64%;top:30%""><img src=""visual/ring.png"" width=""300""></div>",1,NA,"Yes","no","arrowup","ortho",2.67,3,"low_verbal","wDmKNbjb",0.8,0.9,1
"17","visual/ring.png","visual/egg.png",19,74516,"rhyme-task_switching-phon_sim-same_different",1607.5,"rhyme","arrowdown","experiment","<div style=""border: 3px solid #000000; position: fixed;left:14%;top:30%""><img src=""visual/egg.png"" width=""300""></div><div style=""border: 3px solid #000000; position: fixed;left:64%;top:30%""><img src=""visual/ring.png"" width=""300""></div>",1,NA,"No","Some of the pictures weren't clear as to what it was mainly about. I said the words in my head","arrowdown","NR",2.58,2.4,"low_verbal","GJMX4RUC",0.95,0.9,1
"18","visual/rope.png","visual/soap.png",19,86337,"rhyme-phon_sim-task_switching-same_different",1604.69999998808,"rhyme","arrowdown","experiment","<div style=""border: 3px solid #000000; position: fixed;left:14%;top:30%""><img src=""visual/soap.png"" width=""300""></div><div style=""border: 3px solid #000000; position: fixed;left:64%;top:30%""><img src=""visual/rope.png"" width=""300""></div>",0,NA,"Yes","Sometimes it seemed like I was trying to make words rhyme by the way I was saying them.","arrowup","non-ortho",2.91666666666667,3.3,"low_verbal","Ds5BnIYz",0.8,1,1
"19","visual/rope.png","visual/pear.png",19,1296278,"rhyme-phon_sim-same_different-task_switching",1574.09999996424,"rhyme","arrowdown","experiment","<div style=""border: 3px solid #000000; position: fixed;left:14%;top:30%""><img src=""visual/pear.png"" width=""300""></div><div style=""border: 3px solid #000000; position: fixed;left:64%;top:30%""><img src=""visual/rope.png"" width=""300""></div>",1,NA,"Yes","no_answer","arrowdown","NR",2.25,3.7,"low_verbal","05Wo9IGy",0.95,1,1
"20","visual/rose.png","visual/well.png",19,111594,"rhyme-phon_sim-same_different-task_switching",2105,"rhyme","arrowdown","experiment","<div style=""border: 3px solid #000000; position: fixed;left:14%;top:30%""><img src=""visual/well.png"" width=""300""></div><div style=""border: 3px solid #000000; position: fixed;left:64%;top:30%""><img src=""visual/rose.png"" width=""300""></div>",1,NA,"Yes","nothing","arrowdown","NR",4.67,4.7,"high_verbal","lcQfoynH",0.95,0.95,1
"21","visual/tie.png","visual/dart.png",19,43014,"rhyme-phon_sim-same_different-task_switching",1321.89999997616,"rhyme","arrowdown","experiment","<div style=""border: 3px solid #000000; position: fixed;left:14%;top:30%""><img src=""visual/dart.png"" width=""300""></div><div style=""border: 3px solid #000000; position: fixed;left:64%;top:30%""><img src=""visual/tie.png"" width=""300""></div>",1,NA,"No","said mentally","arrowdown","NR",4.166667,3.8,"high_verbal","RHqN8QGm",0.9,0.7,1
"22","visual/tree.png","visual/key.png",19,790471,"rhyme-same_different-task_switching-phon_sim",1347.30000007153,"rhyme","arrowup","experiment","<div style=""border: 3px solid #000000; position: fixed;left:14%;top:30%""><img src=""visual/key.png"" width=""300""></div><div style=""border: 3px solid #000000; position: fixed;left:64%;top:30%""><img src=""visual/tree.png"" width=""300""></div>",1,NA,"No","I had to guess at first for some of these.","arrowup","non-ortho",2.58,3.7,"low_verbal","lAeE5wTL",0.95,0.85,1
"23","visual/whale.png","visual/nail.png",19,108448,"rhyme-task_switching-phon_sim-same_different",1738.19999999925,"rhyme","arrowup","experiment","<div style=""border: 3px solid #000000; position: fixed;left:14%;top:30%""><img src=""visual/nail.png"" width=""300""></div><div style=""border: 3px solid #000000; position: fixed;left:64%;top:30%""><img src=""visual/whale.png"" width=""300""></div>",1,NA,"Yes","It got easier as I knew each picture better.","arrowup","non-ortho",4.75,4.5,"high_verbal","NRFUWLZO",0.95,0.95,1
"24","visual/whale.png","visual/jar.png",19,52467,"rhyme-same_different-task_switching-phon_sim",2428.10000002384,"rhyme","arrowdown","experiment","<div style=""border: 3px solid #000000; position: fixed;left:14%;top:30%""><img src=""visual/jar.png"" width=""300""></div><div style=""border: 3px solid #000000; position: fixed;left:64%;top:30%""><img src=""visual/whale.png"" width=""300""></div>",1,NA,"No","no_answer","arrowdown","NR",2.17,3.9,"low_verbal","vhsbIoXa",0.95,0.95,1
"25","visual/bread.png","visual/bed.png",22,82845,"rhyme-same_different-task_switching-phon_sim",1666.09999999404,"rhyme","arrowup","experiment","<div style=""border: 3px solid #000000; position: fixed;left:14%;top:30%""><img src=""visual/bed.png"" width=""300""></div><div style=""border: 3px solid #000000; position: fixed;left:64%;top:30%""><img src=""visual/bread.png"" width=""300""></div>",1,NA,"Yes","no","arrowup","non-ortho",2.5,3,"low_verbal","OE580Gi8",0.95,0.9,1
"26","visual/chain.png","visual/plane.png",22,73326,"rhyme-same_different-phon_sim-task_switching",1417.90000009537,"rhyme","arrowup","experiment","<div style=""border: 3px solid #000000; position: fixed;left:14%;top:30%""><img src=""visual/plane.png"" width=""300""></div><div style=""border: 3px solid #000000; position: fixed;left:64%;top:30%""><img src=""visual/chain.png"" width=""300""></div>",1,NA,"No","Said in my mind, not vocally","arrowup","non-ortho",3.08333333333333,3.9,"low_verbal","NS1YHcvi",0.35,0.95,1
"27","visual/chain.png","visual/plane.png",22,261373,"rhyme-same_different-phon_sim-task_switching",1748.59999999404,"rhyme","arrowup","experiment","<div style=""border: 3px solid #000000; position: fixed;left:14%;top:30%""><img src=""visual/plane.png"" width=""300""></div><div style=""border: 3px solid #000000; position: fixed;left:64%;top:30%""><img src=""visual/chain.png"" width=""300""></div>",1,NA,"Yes","think of the most simple word for the image","arrowup","non-ortho",4.25,4.1,"high_verbal","sZLRQDIR",0.35,0.95,1
"28","visual/clock.png","visual/sock.png",22,89020,"rhyme-phon_sim-task_switching-same_different",1518.79999998212,"rhyme","arrowup","experiment","<div style=""border: 3px solid #000000; position: fixed;left:14%;top:30%""><img src=""visual/sock.png"" width=""300""></div><div style=""border: 3px solid #000000; position: fixed;left:64%;top:30%""><img src=""visual/clock.png"" width=""300""></div>",1,NA,"No","I said the words in my head and made my selection as quickly as possible.","arrowup","ortho",4.416667,4.2,"high_verbal","Qy5J1Mxs",0.9,0.95,2
"29","visual/clock.png","visual/brain.png",22,283108,"rhyme-phon_sim-same_different-task_switching",1742.30000000075,"rhyme","arrowdown","experiment","<div style=""border: 3px solid #000000; position: fixed;left:14%;top:30%""><img src=""visual/brain.png"" width=""300""></div><div style=""border: 3px solid #000000; position: fixed;left:64%;top:30%""><img src=""visual/clock.png"" width=""300""></div>",1,NA,"No","I said it in my head ""aloud"".","arrowdown","NR",2.42,4.6,"low_verbal","HPiIXyO1",0.95,0.95,2
"30","visual/clock.png","visual/sock.png",22,42512,"rhyme-phon_sim-task_switching-same_different",1538.59999990463,"rhyme","arrowup","experiment","<div style=""border: 3px solid #000000; position: fixed;left:14%;top:30%""><img src=""visual/sock.png"" width=""300""></div><div style=""border: 3px solid #000000; position: fixed;left:64%;top:30%""><img src=""visual/clock.png"" width=""300""></div>",1,NA,"Yes","no","arrowup","ortho",1.33,1.9,"low_verbal","5WF1GwNy",0.9,0.95,1
"31","visual/crane.png","visual/train.png",22,794038,"rhyme-same_different-task_switching-phon_sim",2789.30000007153,"rhyme","arrowup","experiment","<div style=""border: 3px solid #000000; position: fixed;left:14%;top:30%""><img src=""visual/train.png"" width=""300""></div><div style=""border: 3px solid #000000; position: fixed;left:64%;top:30%""><img src=""visual/crane.png"" width=""300""></div>",1,NA,"No","I had to guess at first for some of these.","arrowup","non-ortho",2.58,3.7,"low_verbal","lAeE5wTL",0.95,0.7,2
"32","visual/fly.png","visual/tie.png",22,80987,"rhyme-task_switching-phon_sim-same_different",1359.89999985695,"rhyme","arrowup","experiment","<div style=""border: 3px solid #000000; position: fixed;left:14%;top:30%""><img src=""visual/tie.png"" width=""300""></div><div style=""border: 3px solid #000000; position: fixed;left:64%;top:30%""><img src=""visual/fly.png"" width=""300""></div>",1,NA,"No","I always viewed the picture on the left first","arrowup","non-ortho",3,3.5,"low_verbal","qkCSFiGm",0.7,0.95,2
"33","visual/fly.png","visual/tie.png",22,1299474,"rhyme-phon_sim-same_different-task_switching",1947.10000002384,"rhyme","arrowup","experiment","<div style=""border: 3px solid #000000; position: fixed;left:14%;top:30%""><img src=""visual/tie.png"" width=""300""></div><div style=""border: 3px solid #000000; position: fixed;left:64%;top:30%""><img src=""visual/fly.png"" width=""300""></div>",1,NA,"Yes","no_answer","arrowup","non-ortho",2.25,3.7,"low_verbal","05Wo9IGy",0.7,0.95,2
"34","visual/fox.png","visual/socks.png",22,62200,"rhyme-task_switching-phon_sim-same_different",1649.39999997616,"rhyme","arrowup","experiment","<div style=""border: 3px solid #000000; position: fixed;left:14%;top:30%""><img src=""visual/socks.png"" width=""300""></div><div style=""border: 3px solid #000000; position: fixed;left:64%;top:30%""><img src=""visual/fox.png"" width=""300""></div>",1,NA,"Yes","no","arrowup","non-ortho",4.166667,4.1,"high_verbal","c8Txd3Z5",0.9,0.85,2
"35","visual/fox.png","visual/box.png",22,156887,"rhyme-same_different-task_switching-phon_sim",1025.2999997139,"rhyme","arrowup","experiment","<div style=""border: 3px solid #000000; position: fixed;left:14%;top:30%""><img src=""visual/box.png"" width=""300""></div><div style=""border: 3px solid #000000; position: fixed;left:64%;top:30%""><img src=""visual/fox.png"" width=""300""></div>",1,NA,"Yes","no","arrowup","ortho",2.67,3,"low_verbal","wDmKNbjb",0.95,0.85,2
"36","visual/hat.png","visual/cat.png",22,92905,"rhyme-task_switching-same_different-phon_sim",1483.6,"rhyme","arrowup","experiment","<div style=""border: 3px solid #000000; position: fixed;left:14%;top:30%""><img src=""visual/cat.png"" width=""300""></div><div style=""border: 3px solid #000000; position: fixed;left:64%;top:30%""><img src=""visual/hat.png"" width=""300""></div>",1,NA,"No","I said the pictures in my head before choosing.","arrowup","ortho",1.75,3.9,"low_verbal","Xa9ISMwC",0.9,1,2
"37","visual/heart.png","visual/dart.png",22,56989,"rhyme-task_switching-same_different-phon_sim",2236.40000000596,"rhyme","arrowdown","experiment","<div style=""border: 3px solid #000000; position: fixed;left:14%;top:30%""><img src=""visual/dart.png"" width=""300""></div><div style=""border: 3px solid #000000; position: fixed;left:64%;top:30%""><img src=""visual/heart.png"" width=""300""></div>",0,NA,"Yes","no_answer","arrowup","non-ortho",2.83333333333333,3.2,"low_verbal","hRiDYGB2",0.9,0.9,2
"38","visual/leg.png","visual/egg.png",22,46526,"rhyme-phon_sim-same_different-task_switching",1979.80000001192,"rhyme","arrowup","experiment","<div style=""border: 3px solid #000000; position: fixed;left:14%;top:30%""><img src=""visual/egg.png"" width=""300""></div><div style=""border: 3px solid #000000; position: fixed;left:64%;top:30%""><img src=""visual/leg.png"" width=""300""></div>",1,NA,"No","said mentally","arrowup","ortho",4.166667,3.8,"high_verbal","RHqN8QGm",0.95,0.85,2
"39","visual/moon.png","visual/spoon.png",22,76964,"rhyme-task_switching-phon_sim-same_different",1172.69999999925,"rhyme","arrowup","experiment","<div style=""border: 3px solid #000000; position: fixed;left:14%;top:30%""><img src=""visual/spoon.png"" width=""300""></div><div style=""border: 3px solid #000000; position: fixed;left:64%;top:30%""><img src=""visual/moon.png"" width=""300""></div>",1,NA,"No","Some of the pictures weren't clear as to what it was mainly about. I said the words in my head","arrowup","ortho",2.58,2.4,"low_verbal","GJMX4RUC",1,0.95,2
"40","visual/ring.png","visual/egg.png",22,2381537,"rhyme-same_different-phon_sim-task_switching",1713,"rhyme","arrowdown","experiment","<div style=""border: 3px solid #000000; position: fixed;left:14%;top:30%""><img src=""visual/egg.png"" width=""300""></div><div style=""border: 3px solid #000000; position: fixed;left:64%;top:30%""><img src=""visual/ring.png"" width=""300""></div>",1,NA,"Yes","I just went with my gut intuition","arrowdown","NR",4.75,5,"high_verbal","DuDDHkI9",0.95,0.9,2
"41","visual/rope.png","visual/soap.png",22,61540,"rhyme-task_switching-same_different-phon_sim",1302.5,"rhyme","arrowup","experiment","<div style=""border: 3px solid #000000; position: fixed;left:14%;top:30%""><img src=""visual/soap.png"" width=""300""></div><div style=""border: 3px solid #000000; position: fixed;left:64%;top:30%""><img src=""visual/rope.png"" width=""300""></div>",1,NA,"No","np","arrowup","non-ortho",2.92,4.2,"low_verbal","7rrmnKSW",0.8,1,2
"42","visual/rope.png","visual/soap.png",22,126011,"rhyme-phon_sim-task_switching-same_different",1253.60000000149,"rhyme","arrowup","experiment","<div style=""border: 3px solid #000000; position: fixed;left:14%;top:30%""><img src=""visual/soap.png"" width=""300""></div><div style=""border: 3px solid #000000; position: fixed;left:64%;top:30%""><img src=""visual/rope.png"" width=""300""></div>",1,NA,"Yes","No","arrowup","non-ortho",2.25,1.8,"low_verbal","AZihdj82",0.8,1,1
"43","visual/rose.png","visual/well.png",22,111425,"rhyme-task_switching-phon_sim-same_different",2216.20000000298,"rhyme","arrowdown","experiment","<div style=""border: 3px solid #000000; position: fixed;left:14%;top:30%""><img src=""visual/well.png"" width=""300""></div><div style=""border: 3px solid #000000; position: fixed;left:64%;top:30%""><img src=""visual/rose.png"" width=""300""></div>",1,NA,"Yes","It got easier as I knew each picture better.","arrowdown","NR",4.75,4.5,"high_verbal","NRFUWLZO",0.95,0.95,2
"44","visual/screw.png","visual/train.png",22,114839,"rhyme-phon_sim-same_different-task_switching",2229.29999999702,"rhyme","arrowdown","experiment","<div style=""border: 3px solid #000000; position: fixed;left:14%;top:30%""><img src=""visual/train.png"" width=""300""></div><div style=""border: 3px solid #000000; position: fixed;left:64%;top:30%""><img src=""visual/screw.png"" width=""300""></div>",1,NA,"Yes","nothing","arrowdown","NR",4.67,4.7,"high_verbal","lcQfoynH",0.95,1,2
"45","visual/shoe.png","visual/screw.png",22,46963,"rhyme-same_different-phon_sim-task_switching",1378.10000000894,"rhyme","arrowup","experiment","<div style=""border: 3px solid #000000; position: fixed;left:14%;top:30%""><img src=""visual/screw.png"" width=""300""></div><div style=""border: 3px solid #000000; position: fixed;left:64%;top:30%""><img src=""visual/shoe.png"" width=""300""></div>",1,NA,"No","I said the words in my head.","arrowup","non-ortho",4.67,4.4,"high_verbal","2Ie4vXKm",1,0.85,2
"46","visual/soap.png","visual/pope.png",22,88888,"rhyme-phon_sim-task_switching-same_different",1543.59999999404,"rhyme","arrowup","experiment","<div style=""border: 3px solid #000000; position: fixed;left:14%;top:30%""><img src=""visual/pope.png"" width=""300""></div><div style=""border: 3px solid #000000; position: fixed;left:64%;top:30%""><img src=""visual/soap.png"" width=""300""></div>",1,NA,"Yes","Sometimes it seemed like I was trying to make words rhyme by the way I was saying them.","arrowup","non-ortho",2.91666666666667,3.3,"low_verbal","Ds5BnIYz",0.45,0.8,2
"47","visual/square_rhyme.png","visual/bear.png",22,79976,"rhyme-task_switching-same_different-phon_sim",2465,"rhyme","arrowup","experiment","<div style=""border: 3px solid #000000; position: fixed;left:14%;top:30%""><img src=""visual/bear.png"" width=""300""></div><div style=""border: 3px solid #000000; position: fixed;left:64%;top:30%""><img src=""visual/square_rhyme.png"" width=""300""></div>",1,NA,"No","I mentally ""stated"" the words as a pair.","arrowup","non-ortho",1.67,3.3,"low_verbal","UhCBWnbb",0.95,0.85,2
"48","visual/tie.png","visual/dart.png",22,90048,"rhyme-task_switching-same_different-phon_sim",2305.09999999404,"rhyme","arrowdown","experiment","<div style=""border: 3px solid #000000; position: fixed;left:14%;top:30%""><img src=""visual/dart.png"" width=""300""></div><div style=""border: 3px solid #000000; position: fixed;left:64%;top:30%""><img src=""visual/tie.png"" width=""300""></div>",1,NA,"Yes","no_answer","arrowdown","NR",3,3.8,"low_verbal","xa4C6HC1",0.9,0.7,2
"49","visual/train.png","visual/plane.png",22,155318,"rhyme-same_different-task_switching-phon_sim",1283.60000002384,"rhyme","arrowup","experiment","<div style=""border: 3px solid #000000; position: fixed;left:14%;top:30%""><img src=""visual/plane.png"" width=""300""></div><div style=""border: 3px solid #000000; position: fixed;left:64%;top:30%""><img src=""visual/train.png"" width=""300""></div>",1,NA,"No","some were hard to tell what they were supposed to be","arrowup","non-ortho",1.42,2.7,"low_verbal","fX6rWWkd",0.35,0.95,2
"50","visual/tree.png","visual/key.png",22,80846,"rhyme-phon_sim-same_different-task_switching",1821,"rhyme","arrowdown","experiment","<div style=""border: 3px solid #000000; position: fixed;left:14%;top:30%""><img src=""visual/key.png"" width=""300""></div><div style=""border: 3px solid #000000; position: fixed;left:64%;top:30%""><img src=""visual/tree.png"" width=""300""></div>",0,NA,"Yes","used the pictures after I had seen them a few times","arrowup","non-ortho",4.83333333333333,4,"high_verbal","xnNpmgQR",0.95,0.85,1
"51","visual/whale.png","visual/nail.png",22,64666,"rhyme-task_switching-phon_sim-same_different",2787.09999990463,"rhyme","arrowup","experiment","<div style=""border: 3px solid #000000; position: fixed;left:14%;top:30%""><img src=""visual/nail.png"" width=""300""></div><div style=""border: 3px solid #000000; position: fixed;left:64%;top:30%""><img src=""visual/whale.png"" width=""300""></div>",1,NA,"No","no_answer","arrowup","non-ortho",4.25,3.7,"high_verbal","ts7nbQkN",0.95,0.95,1
"52","visual/whale.png","visual/nail.png",22,205117,"rhyme-same_different-task_switching-phon_sim",2661,"rhyme","arrowup","experiment","<div style=""border: 3px solid #000000; position: fixed;left:14%;top:30%""><img src=""visual/nail.png"" width=""300""></div><div style=""border: 3px solid #000000; position: fixed;left:64%;top:30%""><img src=""visual/whale.png"" width=""300""></div>",1,NA,"Yes","I tried to quickly reference in my mind if I had heard the two words referenced together in rhyme before. I also tried to think ahead about what rhymed with certain words.","arrowup","non-ortho",5,4.8,"high_verbal","m6nAacjH",0.95,0.95,2
"53","visual/whale.png","visual/jar.png",22,55658,"rhyme-task_switching-same_different-phon_sim",4899.19999999553,"rhyme","arrowdown","experiment","<div style=""border: 3px solid #000000; position: fixed;left:14%;top:30%""><img src=""visual/jar.png"" width=""300""></div><div style=""border: 3px solid #000000; position: fixed;left:64%;top:30%""><img src=""visual/whale.png"" width=""300""></div>",1,NA,"No","No, I just said it in my head rather than out loud.","arrowdown","NR",4.75,4.5,"high_verbal","XWkUpOyp",0.95,0.95,2
"54","visual/bag.png","visual/flag.png",25,264538,"rhyme-same_different-phon_sim-task_switching",1654,"rhyme","arrowup","experiment","<div style=""border: 3px solid #000000; position: fixed;left:14%;top:30%""><img src=""visual/flag.png"" width=""300""></div><div style=""border: 3px solid #000000; position: fixed;left:64%;top:30%""><img src=""visual/bag.png"" width=""300""></div>",1,NA,"Yes","think of the most simple word for the image","arrowup","ortho",4.25,4.1,"high_verbal","sZLRQDIR",0.9,0.95,2
"55","visual/bag.png","visual/flag.png",25,128338,"rhyme-phon_sim-task_switching-same_different",1075.60000000149,"rhyme","arrowup","experiment","<div style=""border: 3px solid #000000; position: fixed;left:14%;top:30%""><img src=""visual/flag.png"" width=""300""></div><div style=""border: 3px solid #000000; position: fixed;left:64%;top:30%""><img src=""visual/bag.png"" width=""300""></div>",1,NA,"Yes","No","arrowup","ortho",2.25,1.8,"low_verbal","AZihdj82",0.9,0.95,2
"56","visual/beer.png","visual/claw.png",25,117914,"rhyme-phon_sim-same_different-task_switching",2298.89999999851,"rhyme","arrowdown","experiment","<div style=""border: 3px solid #000000; position: fixed;left:14%;top:30%""><img src=""visual/claw.png"" width=""300""></div><div style=""border: 3px solid #000000; position: fixed;left:64%;top:30%""><img src=""visual/beer.png"" width=""300""></div>",1,NA,"Yes","nothing","arrowdown","NR",4.67,4.7,"high_verbal","lcQfoynH",0.55,0.75,3
"57","visual/bell.png","visual/nose.png",25,157829,"rhyme-same_different-task_switching-phon_sim",1497,"rhyme","arrowdown","experiment","<div style=""border: 3px solid #000000; position: fixed;left:14%;top:30%""><img src=""visual/nose.png"" width=""300""></div><div style=""border: 3px solid #000000; position: fixed;left:64%;top:30%""><img src=""visual/bell.png"" width=""300""></div>",1,NA,"No","some were hard to tell what they were supposed to be","arrowdown","NR",1.42,2.7,"low_verbal","fX6rWWkd",1,0.9,3
"58","visual/bell.png","visual/well.png",25,75967,"rhyme-same_different-phon_sim-task_switching",1872.90000009537,"rhyme","arrowup","experiment","<div style=""border: 3px solid #000000; position: fixed;left:14%;top:30%""><img src=""visual/well.png"" width=""300""></div><div style=""border: 3px solid #000000; position: fixed;left:64%;top:30%""><img src=""visual/bell.png"" width=""300""></div>",1,NA,"No","Said in my mind, not vocally","arrowup","ortho",3.08333333333333,3.9,"low_verbal","NS1YHcvi",0.95,0.9,2
"59","visual/bread.png","visual/bed.png",25,83994,"rhyme-phon_sim-same_different-task_switching",2392,"rhyme","arrowup","experiment","<div style=""border: 3px solid #000000; position: fixed;left:14%;top:30%""><img src=""visual/bed.png"" width=""300""></div><div style=""border: 3px solid #000000; position: fixed;left:64%;top:30%""><img src=""visual/bread.png"" width=""300""></div>",1,NA,"Yes","used the pictures after I had seen them a few times","arrowup","non-ortho",4.83333333333333,4,"high_verbal","xnNpmgQR",0.95,0.9,2
"60","visual/claw.png","visual/saw.png",25,59890,"rhyme-task_switching-same_different-phon_sim",1635.59999999404,"rhyme","arrowup","experiment","<div style=""border: 3px solid #000000; position: fixed;left:14%;top:30%""><img src=""visual/saw.png"" width=""300""></div><div style=""border: 3px solid #000000; position: fixed;left:64%;top:30%""><img src=""visual/claw.png"" width=""300""></div>",1,NA,"Yes","no_answer","arrowup","ortho",2.83333333333333,3.2,"low_verbal","hRiDYGB2",1,0.55,3
"61","visual/cone.png","visual/bone.png",25,1302313,"rhyme-phon_sim-same_different-task_switching",1315.30000001192,"rhyme","arrowup","experiment","<div style=""border: 3px solid #000000; position: fixed;left:14%;top:30%""><img src=""visual/bone.png"" width=""300""></div><div style=""border: 3px solid #000000; position: fixed;left:64%;top:30%""><img src=""visual/cone.png"" width=""300""></div>",1,NA,"Yes","no_answer","arrowup","ortho",2.25,3.7,"low_verbal","05Wo9IGy",0.95,0.7,3
"62","visual/crane.png","visual/bear.png",25,50748,"rhyme-same_different-phon_sim-task_switching",2997.40000000596,"rhyme","arrowdown","experiment","<div style=""border: 3px solid #000000; position: fixed;left:14%;top:30%""><img src=""visual/bear.png"" width=""300""></div><div style=""border: 3px solid #000000; position: fixed;left:64%;top:30%""><img src=""visual/crane.png"" width=""300""></div>",1,NA,"No","I said the words in my head.","arrowdown","NR",4.67,4.4,"high_verbal","2Ie4vXKm",0.95,0.7,3
"63","visual/fly.png","visual/tie.png",25,114280,"rhyme-task_switching-phon_sim-same_different",1324.19999999925,"rhyme","arrowup","experiment","<div style=""border: 3px solid #000000; position: fixed;left:14%;top:30%""><img src=""visual/tie.png"" width=""300""></div><div style=""border: 3px solid #000000; position: fixed;left:64%;top:30%""><img src=""visual/fly.png"" width=""300""></div>",1,NA,"Yes","It got easier as I knew each picture better.","arrowup","non-ortho",4.75,4.5,"high_verbal","NRFUWLZO",0.7,0.95,3
"64","visual/fox.png","visual/socks.png",25,49415,"rhyme-phon_sim-same_different-task_switching",1381.10000002384,"rhyme","arrowup","experiment","<div style=""border: 3px solid #000000; position: fixed;left:14%;top:30%""><img src=""visual/socks.png"" width=""300""></div><div style=""border: 3px solid #000000; position: fixed;left:64%;top:30%""><img src=""visual/fox.png"" width=""300""></div>",1,NA,"No","said mentally","arrowup","non-ortho",4.166667,3.8,"high_verbal","RHqN8QGm",0.9,0.85,3
"65","visual/fox.png","visual/socks.png",25,286334,"rhyme-phon_sim-same_different-task_switching",1939.09999999776,"rhyme","arrowdown","experiment","<div style=""border: 3px solid #000000; position: fixed;left:14%;top:30%""><img src=""visual/socks.png"" width=""300""></div><div style=""border: 3px solid #000000; position: fixed;left:64%;top:30%""><img src=""visual/fox.png"" width=""300""></div>",0,NA,"No","I said it in my head ""aloud"".","arrowup","non-ortho",2.42,4.6,"low_verbal","HPiIXyO1",0.9,0.85,3
"66","visual/heart.png","visual/dart.png",25,797093,"rhyme-same_different-task_switching-phon_sim",1782.79999995232,"rhyme","arrowup","experiment","<div style=""border: 3px solid #000000; position: fixed;left:14%;top:30%""><img src=""visual/dart.png"" width=""300""></div><div style=""border: 3px solid #000000; position: fixed;left:64%;top:30%""><img src=""visual/heart.png"" width=""300""></div>",1,NA,"No","I had to guess at first for some of these.","arrowup","non-ortho",2.58,3.7,"low_verbal","lAeE5wTL",0.9,0.9,3
"67","visual/jar.png","visual/star.png",25,91491,"rhyme-phon_sim-task_switching-same_different",1095.5,"rhyme","arrowup","experiment","<div style=""border: 3px solid #000000; position: fixed;left:14%;top:30%""><img src=""visual/star.png"" width=""300""></div><div style=""border: 3px solid #000000; position: fixed;left:64%;top:30%""><img src=""visual/jar.png"" width=""300""></div>",1,NA,"Yes","Sometimes it seemed like I was trying to make words rhyme by the way I was saying them.","arrowup","ortho",2.91666666666667,3.3,"low_verbal","Ds5BnIYz",0.95,0.95,3
"68","visual/moon.png","visual/spoon.png",25,91637,"rhyme-phon_sim-task_switching-same_different",1356.79999998212,"rhyme","arrowup","experiment","<div style=""border: 3px solid #000000; position: fixed;left:14%;top:30%""><img src=""visual/spoon.png"" width=""300""></div><div style=""border: 3px solid #000000; position: fixed;left:64%;top:30%""><img src=""visual/moon.png"" width=""300""></div>",1,NA,"No","I said the words in my head and made my selection as quickly as possible.","arrowup","ortho",4.416667,4.2,"high_verbal","Qy5J1Mxs",1,0.95,3
"69","visual/moon.png","visual/spoon.png",25,64621,"rhyme-task_switching-phon_sim-same_different",1645.79999995232,"rhyme","arrowup","experiment","<div style=""border: 3px solid #000000; position: fixed;left:14%;top:30%""><img src=""visual/spoon.png"" width=""300""></div><div style=""border: 3px solid #000000; position: fixed;left:64%;top:30%""><img src=""visual/moon.png"" width=""300""></div>",1,NA,"Yes","no","arrowup","ortho",4.166667,4.1,"high_verbal","c8Txd3Z5",1,0.95,3
"70","visual/rope.png","visual/soap.png",25,83191,"rhyme-task_switching-phon_sim-same_different",1441.80000019073,"rhyme","arrowup","experiment","<div style=""border: 3px solid #000000; position: fixed;left:14%;top:30%""><img src=""visual/soap.png"" width=""300""></div><div style=""border: 3px solid #000000; position: fixed;left:64%;top:30%""><img src=""visual/rope.png"" width=""300""></div>",1,NA,"No","I always viewed the picture on the left first","arrowup","non-ortho",3,3.5,"low_verbal","qkCSFiGm",0.8,1,3
"71","visual/rose.png","visual/well.png",25,95478,"rhyme-task_switching-same_different-phon_sim",4172.59999999404,"rhyme","arrowdown","experiment","<div style=""border: 3px solid #000000; position: fixed;left:14%;top:30%""><img src=""visual/well.png"" width=""300""></div><div style=""border: 3px solid #000000; position: fixed;left:64%;top:30%""><img src=""visual/rose.png"" width=""300""></div>",1,NA,"Yes","no_answer","arrowdown","NR",3,3.8,"low_verbal","xa4C6HC1",0.95,0.95,3
"72","visual/seal.png","visual/wheel.png",25,64300,"rhyme-task_switching-same_different-phon_sim",1743.60000000149,"rhyme","arrowdown","experiment","<div style=""border: 3px solid #000000; position: fixed;left:14%;top:30%""><img src=""visual/wheel.png"" width=""300""></div><div style=""border: 3px solid #000000; position: fixed;left:64%;top:30%""><img src=""visual/seal.png"" width=""300""></div>",0,NA,"No","np","arrowup","non-ortho",2.92,4.2,"low_verbal","7rrmnKSW",0.75,0.75,3
"73","visual/snail.png","visual/key.png",25,59388,"rhyme-task_switching-same_different-phon_sim",2224.79999999702,"rhyme","arrowdown","experiment","<div style=""border: 3px solid #000000; position: fixed;left:14%;top:30%""><img src=""visual/key.png"" width=""300""></div><div style=""border: 3px solid #000000; position: fixed;left:64%;top:30%""><img src=""visual/snail.png"" width=""300""></div>",1,NA,"No","No, I just said it in my head rather than out loud.","arrowdown","NR",4.75,4.5,"high_verbal","XWkUpOyp",0.95,0.95,3
"74","visual/sock.png","visual/cat.png",25,46158,"rhyme-phon_sim-task_switching-same_different",2374.90000009537,"rhyme","arrowdown","experiment","<div style=""border: 3px solid #000000; position: fixed;left:14%;top:30%""><img src=""visual/cat.png"" width=""300""></div><div style=""border: 3px solid #000000; position: fixed;left:64%;top:30%""><img src=""visual/sock.png"" width=""300""></div>",1,NA,"Yes","no","arrowdown","NR",1.33,1.9,"low_verbal","5WF1GwNy",0.9,0.9,2
"75","visual/square_rhyme.png","visual/bear.png",25,208326,"rhyme-same_different-task_switching-phon_sim",2202,"rhyme","arrowup","experiment","<div style=""border: 3px solid #000000; position: fixed;left:14%;top:30%""><img src=""visual/bear.png"" width=""300""></div><div style=""border: 3px solid #000000; position: fixed;left:64%;top:30%""><img src=""visual/square_rhyme.png"" width=""300""></div>",1,NA,"Yes","I tried to quickly reference in my mind if I had heard the two words referenced together in rhyme before. I also tried to think ahead about what rhymed with certain words.","arrowup","non-ortho",5,4.8,"high_verbal","m6nAacjH",0.95,0.85,3
"76","visual/square_rhyme.png","visual/bear.png",25,102572,"rhyme-phon_sim-same_different-task_switching",1665.29999995232,"rhyme","arrowup","experiment","<div style=""border: 3px solid #000000; position: fixed;left:14%;top:30%""><img src=""visual/bear.png"" width=""300""></div><div style=""border: 3px solid #000000; position: fixed;left:64%;top:30%""><img src=""visual/square_rhyme.png"" width=""300""></div>",1,NA,"Yes","no_answer","arrowup","non-ortho",3.08333333333333,3.2,"low_verbal","4KFmznfv",0.95,0.85,2
"77","visual/thumb.png","visual/drum.png",25,58698,"rhyme-same_different-task_switching-phon_sim",1109.79999995232,"rhyme","arrowup","experiment","<div style=""border: 3px solid #000000; position: fixed;left:14%;top:30%""><img src=""visual/drum.png"" width=""300""></div><div style=""border: 3px solid #000000; position: fixed;left:64%;top:30%""><img src=""visual/thumb.png"" width=""300""></div>",1,NA,"No","no_answer","arrowup","non-ortho",2.17,3.9,"low_verbal","vhsbIoXa",1,0.9,2
"78","visual/tie.png","visual/eye.png",25,2385508,"rhyme-same_different-phon_sim-task_switching",2429.10000002384,"rhyme","arrowup","experiment","<div style=""border: 3px solid #000000; position: fixed;left:14%;top:30%""><img src=""visual/eye.png"" width=""300""></div><div style=""border: 3px solid #000000; position: fixed;left:64%;top:30%""><img src=""visual/tie.png"" width=""300""></div>",1,NA,"Yes","I just went with my gut intuition","arrowup","non-ortho",4.75,5,"high_verbal","DuDDHkI9",0.95,0.7,3
"79","visual/train.png","visual/plane.png",25,85037,"rhyme-same_different-task_switching-phon_sim",1423.19999999553,"rhyme","arrowdown","experiment","<div style=""border: 3px solid #000000; position: fixed;left:14%;top:30%""><img src=""visual/plane.png"" width=""300""></div><div style=""border: 3px solid #000000; position: fixed;left:64%;top:30%""><img src=""visual/train.png"" width=""300""></div>",0,NA,"Yes","no","arrowup","non-ortho",2.5,3,"low_verbal","OE580Gi8",0.35,0.95,2
"80","visual/whale.png","visual/nail.png",25,79147,"rhyme-task_switching-phon_sim-same_different",1153.90000000224,"rhyme","arrowup","experiment","<div style=""border: 3px solid #000000; position: fixed;left:14%;top:30%""><img src=""visual/nail.png"" width=""300""></div><div style=""border: 3px solid #000000; position: fixed;left:64%;top:30%""><img src=""visual/whale.png"" width=""300""></div>",1,NA,"No","Some of the pictures weren't clear as to what it was mainly about. I said the words in my head","arrowup","non-ortho",2.58,2.4,"low_verbal","GJMX4RUC",0.95,0.95,3
"81","visual/bell.png","visual/well.png",28,160572,"rhyme-same_different-task_switching-phon_sim",1019.40000009537,"rhyme","arrowup","experiment","<div style=""border: 3px solid #000000; position: fixed;left:14%;top:30%""><img src=""visual/well.png"" width=""300""></div><div style=""border: 3px solid #000000; position: fixed;left:64%;top:30%""><img src=""visual/bell.png"" width=""300""></div>",1,NA,"Yes","no","arrowup","ortho",2.67,3,"low_verbal","wDmKNbjb",0.95,0.9,3
"82","visual/bell.png","visual/nose.png",28,81499,"rhyme-task_switching-phon_sim-same_different",1069.60000000149,"rhyme","arrowdown","experiment","<div style=""border: 3px solid #000000; position: fixed;left:14%;top:30%""><img src=""visual/nose.png"" width=""300""></div><div style=""border: 3px solid #000000; position: fixed;left:64%;top:30%""><img src=""visual/bell.png"" width=""300""></div>",1,NA,"No","Some of the pictures weren't clear as to what it was mainly about. I said the words in my head","arrowdown","NR",2.58,2.4,"low_verbal","GJMX4RUC",1,0.9,4
"83","visual/bell.png","visual/well.png",28,51622,"rhyme-phon_sim-same_different-task_switching",1182.59999996424,"rhyme","arrowup","experiment","<div style=""border: 3px solid #000000; position: fixed;left:14%;top:30%""><img src=""visual/well.png"" width=""300""></div><div style=""border: 3px solid #000000; position: fixed;left:64%;top:30%""><img src=""visual/bell.png"" width=""300""></div>",1,NA,"No","said mentally","arrowup","ortho",4.166667,3.8,"high_verbal","RHqN8QGm",0.95,0.9,4
"84","visual/bell.png","visual/nose.png",28,62626,"rhyme-task_switching-same_different-phon_sim",1981.19999999553,"rhyme","arrowdown","experiment","<div style=""border: 3px solid #000000; position: fixed;left:14%;top:30%""><img src=""visual/nose.png"" width=""300""></div><div style=""border: 3px solid #000000; position: fixed;left:64%;top:30%""><img src=""visual/bell.png"" width=""300""></div>",1,NA,"No","No, I just said it in my head rather than out loud.","arrowdown","NR",4.75,4.5,"high_verbal","XWkUpOyp",1,0.9,4
"85","visual/cab.png","visual/king.png",28,121609,"rhyme-phon_sim-same_different-task_switching",2924.80000000447,"rhyme","arrowdown","experiment","<div style=""border: 3px solid #000000; position: fixed;left:14%;top:30%""><img src=""visual/king.png"" width=""300""></div><div style=""border: 3px solid #000000; position: fixed;left:64%;top:30%""><img src=""visual/cab.png"" width=""300""></div>",1,NA,"Yes","nothing","arrowdown","NR",4.67,4.7,"high_verbal","lcQfoynH",0.8,0.05,4
"86","visual/chair.png","visual/drawer.png",28,117624,"rhyme-task_switching-phon_sim-same_different",2313.10000000149,"rhyme","arrowdown","experiment","<div style=""border: 3px solid #000000; position: fixed;left:14%;top:30%""><img src=""visual/drawer.png"" width=""300""></div><div style=""border: 3px solid #000000; position: fixed;left:64%;top:30%""><img src=""visual/chair.png"" width=""300""></div>",1,NA,"Yes","It got easier as I knew each picture better.","arrowdown","NR",4.75,4.5,"high_verbal","NRFUWLZO",0.8,0.95,4
"87","visual/claw.png","visual/saw.png",28,93728,"rhyme-phon_sim-task_switching-same_different",1231.5,"rhyme","arrowup","experiment","<div style=""border: 3px solid #000000; position: fixed;left:14%;top:30%""><img src=""visual/saw.png"" width=""300""></div><div style=""border: 3px solid #000000; position: fixed;left:64%;top:30%""><img src=""visual/claw.png"" width=""300""></div>",1,NA,"Yes","Sometimes it seemed like I was trying to make words rhyme by the way I was saying them.","arrowup","ortho",2.91666666666667,3.3,"low_verbal","Ds5BnIYz",1,0.55,4
"88","visual/clock.png","visual/brain.png",28,212165,"rhyme-same_different-task_switching-phon_sim",3082,"rhyme","arrowdown","experiment","<div style=""border: 3px solid #000000; position: fixed;left:14%;top:30%""><img src=""visual/brain.png"" width=""300""></div><div style=""border: 3px solid #000000; position: fixed;left:64%;top:30%""><img src=""visual/clock.png"" width=""300""></div>",1,NA,"Yes","I tried to quickly reference in my mind if I had heard the two words referenced together in rhyme before. I also tried to think ahead about what rhymed with certain words.","arrowdown","NR",5,4.8,"high_verbal","m6nAacjH",0.95,0.95,4
"89","visual/crab.png","visual/spoon.png",28,79735,"rhyme-same_different-phon_sim-task_switching",2502.79999995232,"rhyme","arrowdown","experiment","<div style=""border: 3px solid #000000; position: fixed;left:14%;top:30%""><img src=""visual/spoon.png"" width=""300""></div><div style=""border: 3px solid #000000; position: fixed;left:64%;top:30%""><img src=""visual/crab.png"" width=""300""></div>",1,NA,"No","Said in my mind, not vocally","arrowdown","NR",3.08333333333333,3.9,"low_verbal","NS1YHcvi",1,0.95,3
"90","visual/door.png","visual/tree.png",28,2388538,"rhyme-same_different-phon_sim-task_switching",2248.5,"rhyme","arrowdown","experiment","<div style=""border: 3px solid #000000; position: fixed;left:14%;top:30%""><img src=""visual/tree.png"" width=""300""></div><div style=""border: 3px solid #000000; position: fixed;left:64%;top:30%""><img src=""visual/door.png"" width=""300""></div>",1,NA,"Yes","I just went with my gut intuition","arrowdown","NR",4.75,5,"high_verbal","DuDDHkI9",0.85,0.95,4
"91","visual/door.png","visual/drawer.png",28,800727,"rhyme-same_different-task_switching-phon_sim",2602.39999997616,"rhyme","arrowup","experiment","<div style=""border: 3px solid #000000; position: fixed;left:14%;top:30%""><img src=""visual/drawer.png"" width=""300""></div><div style=""border: 3px solid #000000; position: fixed;left:64%;top:30%""><img src=""visual/door.png"" width=""300""></div>",1,NA,"No","I had to guess at first for some of these.","arrowup","non-ortho",2.58,3.7,"low_verbal","lAeE5wTL",0.8,0.95,4
"92","visual/door.png","visual/drawer.png",28,61066,"rhyme-same_different-task_switching-phon_sim",1345,"rhyme","arrowup","experiment","<div style=""border: 3px solid #000000; position: fixed;left:14%;top:30%""><img src=""visual/drawer.png"" width=""300""></div><div style=""border: 3px solid #000000; position: fixed;left:64%;top:30%""><img src=""visual/door.png"" width=""300""></div>",1,NA,"No","no_answer","arrowup","non-ortho",2.17,3.9,"low_verbal","vhsbIoXa",0.8,0.95,3
"93","visual/fly.png","visual/tie.png",28,88141,"rhyme-same_different-task_switching-phon_sim",1579.70000000298,"rhyme","arrowup","experiment","<div style=""border: 3px solid #000000; position: fixed;left:14%;top:30%""><img src=""visual/tie.png"" width=""300""></div><div style=""border: 3px solid #000000; position: fixed;left:64%;top:30%""><img src=""visual/fly.png"" width=""300""></div>",1,NA,"Yes","no","arrowup","non-ortho",2.5,3,"low_verbal","OE580Gi8",0.7,0.95,3
"94","visual/hat.png","visual/cat.png",28,1304675,"rhyme-phon_sim-same_different-task_switching",1095.80000001192,"rhyme","arrowup","experiment","<div style=""border: 3px solid #000000; position: fixed;left:14%;top:30%""><img src=""visual/cat.png"" width=""300""></div><div style=""border: 3px solid #000000; position: fixed;left:64%;top:30%""><img src=""visual/hat.png"" width=""300""></div>",1,NA,"Yes","no_answer","arrowup","ortho",2.25,3.7,"low_verbal","05Wo9IGy",0.9,1,4
"95","visual/leg.png","visual/egg.png",28,86147,"rhyme-task_switching-phon_sim-same_different",1685.39999985695,"rhyme","arrowup","experiment","<div style=""border: 3px solid #000000; position: fixed;left:14%;top:30%""><img src=""visual/egg.png"" width=""300""></div><div style=""border: 3px solid #000000; position: fixed;left:64%;top:30%""><img src=""visual/leg.png"" width=""300""></div>",1,NA,"No","I always viewed the picture on the left first","arrowup","ortho",3,3.5,"low_verbal","qkCSFiGm",0.95,0.85,4
"96","visual/ring.png","visual/king.png",28,86161,"rhyme-phon_sim-same_different-task_switching",1160,"rhyme","arrowup","experiment","<div style=""border: 3px solid #000000; position: fixed;left:14%;top:30%""><img src=""visual/king.png"" width=""300""></div><div style=""border: 3px solid #000000; position: fixed;left:64%;top:30%""><img src=""visual/ring.png"" width=""300""></div>",1,NA,"Yes","used the pictures after I had seen them a few times","arrowup","ortho",4.83333333333333,4,"high_verbal","xnNpmgQR",0.8,0.9,3
"97","visual/ring.png","visual/egg.png",28,67012,"rhyme-task_switching-same_different-phon_sim",1690.60000000149,"rhyme","arrowdown","experiment","<div style=""border: 3px solid #000000; position: fixed;left:14%;top:30%""><img src=""visual/egg.png"" width=""300""></div><div style=""border: 3px solid #000000; position: fixed;left:64%;top:30%""><img src=""visual/ring.png"" width=""300""></div>",1,NA,"No","np","arrowdown","NR",2.92,4.2,"low_verbal","7rrmnKSW",0.95,0.9,4
"98","visual/rope.png","visual/pear.png",28,161391,"rhyme-same_different-task_switching-phon_sim",2289.5,"rhyme","arrowdown","experiment","<div style=""border: 3px solid #000000; position: fixed;left:14%;top:30%""><img src=""visual/pear.png"" width=""300""></div><div style=""border: 3px solid #000000; position: fixed;left:64%;top:30%""><img src=""visual/rope.png"" width=""300""></div>",1,NA,"No","some were hard to tell what they were supposed to be","arrowdown","NR",1.42,2.7,"low_verbal","fX6rWWkd",0.95,1,4
"99","visual/rope.png","visual/pear.png",28,53183,"rhyme-same_different-phon_sim-task_switching",1648.29999999702,"rhyme","arrowdown","experiment","<div style=""border: 3px solid #000000; position: fixed;left:14%;top:30%""><img src=""visual/pear.png"" width=""300""></div><div style=""border: 3px solid #000000; position: fixed;left:64%;top:30%""><img src=""visual/rope.png"" width=""300""></div>",1,NA,"No","I said the words in my head.","arrowdown","NR",4.67,4.4,"high_verbal","2Ie4vXKm",0.95,1,4
"100","visual/seal.png","visual/wheel.png",28,96161,"rhyme-phon_sim-task_switching-same_different",3016.5,"rhyme","arrowdown","experiment","<div style=""border: 3px solid #000000; position: fixed;left:14%;top:30%""><img src=""visual/wheel.png"" width=""300""></div><div style=""border: 3px solid #000000; position: fixed;left:64%;top:30%""><img src=""visual/seal.png"" width=""300""></div>",0,NA,"No","I said the words in my head and made my selection as quickly as possible.","arrowup","non-ortho",4.416667,4.2,"high_verbal","Qy5J1Mxs",0.75,0.75,4
"101","visual/tie.png","visual/dart.png",28,130408,"rhyme-phon_sim-task_switching-same_different",1318.60000000149,"rhyme","arrowdown","experiment","<div style=""border: 3px solid #000000; position: fixed;left:14%;top:30%""><img src=""visual/dart.png"" width=""300""></div><div style=""border: 3px solid #000000; position: fixed;left:64%;top:30%""><img src=""visual/tie.png"" width=""300""></div>",1,NA,"Yes","No","arrowdown","NR",2.25,1.8,"low_verbal","AZihdj82",0.9,0.7,3
"102","visual/tree.png","visual/key.png",28,104892,"rhyme-phon_sim-same_different-task_switching",1558.5,"rhyme","arrowup","experiment","<div style=""border: 3px solid #000000; position: fixed;left:14%;top:30%""><img src=""visual/key.png"" width=""300""></div><div style=""border: 3px solid #000000; position: fixed;left:64%;top:30%""><img src=""visual/tree.png"" width=""300""></div>",1,NA,"Yes","no_answer","arrowup","non-ortho",3.08333333333333,3.2,"low_verbal","4KFmznfv",0.95,0.85,3
"103","visual/tree.png","visual/key.png",28,98068,"rhyme-task_switching-same_different-phon_sim",1463.8,"rhyme","arrowup","experiment","<div style=""border: 3px solid #000000; position: fixed;left:14%;top:30%""><img src=""visual/key.png"" width=""300""></div><div style=""border: 3px solid #000000; position: fixed;left:64%;top:30%""><img src=""visual/tree.png"" width=""300""></div>",1,NA,"No","I said the pictures in my head before choosing.","arrowup","non-ortho",1.75,3.9,"low_verbal","Xa9ISMwC",0.95,0.85,3
"104","visual/whale.png","visual/snail.png",28,67994,"rhyme-task_switching-phon_sim-same_different",2343.89999997616,"rhyme","arrowup","experiment","<div style=""border: 3px solid #000000; position: fixed;left:14%;top:30%""><img src=""visual/snail.png"" width=""300""></div><div style=""border: 3px solid #000000; position: fixed;left:64%;top:30%""><img src=""visual/whale.png"" width=""300""></div>",1,NA,"Yes","no","arrowup","non-ortho",4.166667,4.1,"high_verbal","c8Txd3Z5",0.95,0.95,4
"105","visual/whale.png","visual/nail.png",28,290750,"rhyme-phon_sim-same_different-task_switching",3136.30000000075,"rhyme","arrowup","experiment","<div style=""border: 3px solid #000000; position: fixed;left:14%;top:30%""><img src=""visual/nail.png"" width=""300""></div><div style=""border: 3px solid #000000; position: fixed;left:64%;top:30%""><img src=""visual/whale.png"" width=""300""></div>",1,NA,"No","I said it in my head ""aloud"".","arrowup","non-ortho",2.42,4.6,"low_verbal","HPiIXyO1",0.95,0.95,4
"106","visual/beer.png","visual/deer.png",31,85392,"rhyme-same_different-phon_sim-task_switching",4139.79999995232,"rhyme","arrowdown","experiment","<div style=""border: 3px solid #000000; position: fixed;left:14%;top:30%""><img src=""visual/deer.png"" width=""300""></div><div style=""border: 3px solid #000000; position: fixed;left:64%;top:30%""><img src=""visual/beer.png"" width=""300""></div>",0,NA,"No","Said in my mind, not vocally","arrowup","ortho",3.08333333333333,3.9,"low_verbal","NS1YHcvi",0.65,0.75,4
"107","visual/beer.png","visual/claw.png",31,89223,"rhyme-task_switching-phon_sim-same_different",2306.39999985695,"rhyme","arrowdown","experiment","<div style=""border: 3px solid #000000; position: fixed;left:14%;top:30%""><img src=""visual/claw.png"" width=""300""></div><div style=""border: 3px solid #000000; position: fixed;left:64%;top:30%""><img src=""visual/beer.png"" width=""300""></div>",1,NA,"No","I always viewed the picture on the left first","arrowdown","NR",3,3.5,"low_verbal","qkCSFiGm",0.55,0.75,5
"108","visual/bread.png","visual/bed.png",31,96582,"rhyme-phon_sim-task_switching-same_different",1341.79999998212,"rhyme","arrowup","experiment","<div style=""border: 3px solid #000000; position: fixed;left:14%;top:30%""><img src=""visual/bed.png"" width=""300""></div><div style=""border: 3px solid #000000; position: fixed;left:64%;top:30%""><img src=""visual/bread.png"" width=""300""></div>",1,NA,"Yes","Sometimes it seemed like I was trying to make words rhyme by the way I was saying them.","arrowup","non-ortho",2.91666666666667,3.3,"low_verbal","Ds5BnIYz",0.95,0.9,5
"109","visual/cab.png","visual/king.png",31,162065,"rhyme-same_different-task_switching-phon_sim",713.799999713898,"rhyme","arrowup","experiment","<div style=""border: 3px solid #000000; position: fixed;left:14%;top:30%""><img src=""visual/king.png"" width=""300""></div><div style=""border: 3px solid #000000; position: fixed;left:64%;top:30%""><img src=""visual/cab.png"" width=""300""></div>",0,NA,"Yes","no","arrowdown","NR",2.67,3,"low_verbal","wDmKNbjb",0.8,0.05,4
"110","visual/chain.png","visual/plane.png",31,107115,"rhyme-phon_sim-same_different-task_switching",1214.5,"rhyme","arrowup","experiment","<div style=""border: 3px solid #000000; position: fixed;left:14%;top:30%""><img src=""visual/plane.png"" width=""300""></div><div style=""border: 3px solid #000000; position: fixed;left:64%;top:30%""><img src=""visual/chain.png"" width=""300""></div>",1,NA,"Yes","no_answer","arrowup","non-ortho",3.08333333333333,3.2,"low_verbal","4KFmznfv",0.35,0.95,4
"111","visual/chair.png","visual/drawer.png",31,71235,"rhyme-task_switching-phon_sim-same_different",2211.5,"rhyme","arrowdown","experiment","<div style=""border: 3px solid #000000; position: fixed;left:14%;top:30%""><img src=""visual/drawer.png"" width=""300""></div><div style=""border: 3px solid #000000; position: fixed;left:64%;top:30%""><img src=""visual/chair.png"" width=""300""></div>",1,NA,"Yes","no","arrowdown","NR",4.166667,4.1,"high_verbal","c8Txd3Z5",0.8,0.95,5
"112","visual/clock.png","visual/brain.png",31,90533,"rhyme-same_different-task_switching-phon_sim",1621.5,"rhyme","arrowdown","experiment","<div style=""border: 3px solid #000000; position: fixed;left:14%;top:30%""><img src=""visual/brain.png"" width=""300""></div><div style=""border: 3px solid #000000; position: fixed;left:64%;top:30%""><img src=""visual/clock.png"" width=""300""></div>",1,NA,"Yes","no","arrowdown","NR",2.5,3,"low_verbal","OE580Gi8",0.95,0.95,4
"113","visual/clock.png","visual/brain.png",31,803253,"rhyme-same_different-task_switching-phon_sim",1508.19999992847,"rhyme","arrowdown","experiment","<div style=""border: 3px solid #000000; position: fixed;left:14%;top:30%""><img src=""visual/brain.png"" width=""300""></div><div style=""border: 3px solid #000000; position: fixed;left:64%;top:30%""><img src=""visual/clock.png"" width=""300""></div>",1,NA,"No","I had to guess at first for some of these.","arrowdown","NR",2.58,3.7,"low_verbal","lAeE5wTL",0.95,0.95,5
"114","visual/cone.png","visual/bone.png",31,63706,"rhyme-same_different-task_switching-phon_sim",1118.60000002384,"rhyme","arrowup","experiment","<div style=""border: 3px solid #000000; position: fixed;left:14%;top:30%""><img src=""visual/bone.png"" width=""300""></div><div style=""border: 3px solid #000000; position: fixed;left:64%;top:30%""><img src=""visual/cone.png"" width=""300""></div>",1,NA,"No","no_answer","arrowup","ortho",2.17,3.9,"low_verbal","vhsbIoXa",0.95,0.7,4
"115","visual/crab.png","visual/spoon.png",31,65492,"rhyme-task_switching-same_different-phon_sim",1612,"rhyme","arrowdown","experiment","<div style=""border: 3px solid #000000; position: fixed;left:14%;top:30%""><img src=""visual/spoon.png"" width=""300""></div><div style=""border: 3px solid #000000; position: fixed;left:64%;top:30%""><img src=""visual/crab.png"" width=""300""></div>",1,NA,"No","No, I just said it in my head rather than out loud.","arrowdown","NR",4.75,4.5,"high_verbal","XWkUpOyp",1,0.95,5
"116","visual/crane.png","visual/bear.png",31,165487,"rhyme-same_different-task_switching-phon_sim",2571.5,"rhyme","arrowdown","experiment","<div style=""border: 3px solid #000000; position: fixed;left:14%;top:30%""><img src=""visual/bear.png"" width=""300""></div><div style=""border: 3px solid #000000; position: fixed;left:64%;top:30%""><img src=""visual/crane.png"" width=""300""></div>",1,NA,"No","some were hard to tell what they were supposed to be","arrowdown","NR",1.42,2.7,"low_verbal","fX6rWWkd",0.95,0.7,5
"117","visual/crane.png","visual/bear.png",31,2392682,"rhyme-same_different-phon_sim-task_switching",3375,"rhyme","arrowdown","experiment","<div style=""border: 3px solid #000000; position: fixed;left:14%;top:30%""><img src=""visual/bear.png"" width=""300""></div><div style=""border: 3px solid #000000; position: fixed;left:64%;top:30%""><img src=""visual/crane.png"" width=""300""></div>",1,NA,"Yes","I just went with my gut intuition","arrowdown","NR",4.75,5,"high_verbal","DuDDHkI9",0.95,0.7,5
"118","visual/door.png","visual/drawer.png",31,99600,"rhyme-phon_sim-task_switching-same_different",1928.09999999404,"rhyme","arrowup","experiment","<div style=""border: 3px solid #000000; position: fixed;left:14%;top:30%""><img src=""visual/drawer.png"" width=""300""></div><div style=""border: 3px solid #000000; position: fixed;left:64%;top:30%""><img src=""visual/door.png"" width=""300""></div>",1,NA,"No","I said the words in my head and made my selection as quickly as possible.","arrowup","non-ortho",4.416667,4.2,"high_verbal","Qy5J1Mxs",0.8,0.95,5
"119","visual/jar.png","visual/star.png",31,70308,"rhyme-task_switching-same_different-phon_sim",1783.30000000075,"rhyme","arrowup","experiment","<div style=""border: 3px solid #000000; position: fixed;left:14%;top:30%""><img src=""visual/star.png"" width=""300""></div><div style=""border: 3px solid #000000; position: fixed;left:64%;top:30%""><img src=""visual/jar.png"" width=""300""></div>",1,NA,"No","np","arrowup","ortho",2.92,4.2,"low_verbal","7rrmnKSW",0.95,0.95,5
"120","visual/jar.png","visual/star.png",31,119950,"rhyme-task_switching-phon_sim-same_different",1542.39999999851,"rhyme","arrowup","experiment","<div style=""border: 3px solid #000000; position: fixed;left:14%;top:30%""><img src=""visual/star.png"" width=""300""></div><div style=""border: 3px solid #000000; position: fixed;left:64%;top:30%""><img src=""visual/jar.png"" width=""300""></div>",1,NA,"Yes","It got easier as I knew each picture better.","arrowup","ortho",4.75,4.5,"high_verbal","NRFUWLZO",0.95,0.95,5
"121","visual/man.png","visual/fan.png",31,1307305,"rhyme-phon_sim-same_different-task_switching",1874.80000001192,"rhyme","arrowup","experiment","<div style=""border: 3px solid #000000; position: fixed;left:14%;top:30%""><img src=""visual/fan.png"" width=""300""></div><div style=""border: 3px solid #000000; position: fixed;left:64%;top:30%""><img src=""visual/man.png"" width=""300""></div>",1,NA,"Yes","no_answer","arrowup","ortho",2.25,3.7,"low_verbal","05Wo9IGy",0.75,0.8,5
"122","visual/nose.png","visual/rose.png",31,89036,"rhyme-phon_sim-same_different-task_switching",1619,"rhyme","arrowup","experiment","<div style=""border: 3px solid #000000; position: fixed;left:14%;top:30%""><img src=""visual/rose.png"" width=""300""></div><div style=""border: 3px solid #000000; position: fixed;left:64%;top:30%""><img src=""visual/nose.png"" width=""300""></div>",1,NA,"Yes","used the pictures after I had seen them a few times","arrowup","ortho",4.83333333333333,4,"high_verbal","xnNpmgQR",0.95,1,4
"123","visual/rope.png","visual/soap.png",31,91460,"rhyme-task_switching-same_different-phon_sim",2022.59999999404,"rhyme","arrowup","experiment","<div style=""border: 3px solid #000000; position: fixed;left:14%;top:30%""><img src=""visual/soap.png"" width=""300""></div><div style=""border: 3px solid #000000; position: fixed;left:64%;top:30%""><img src=""visual/rope.png"" width=""300""></div>",1,NA,"No","I mentally ""stated"" the words as a pair.","arrowup","non-ortho",1.67,3.3,"low_verbal","UhCBWnbb",0.8,1,3
"124","visual/rope.png","visual/pear.png",31,293368,"rhyme-phon_sim-same_different-task_switching",1844.19999999925,"rhyme","arrowdown","experiment","<div style=""border: 3px solid #000000; position: fixed;left:14%;top:30%""><img src=""visual/pear.png"" width=""300""></div><div style=""border: 3px solid #000000; position: fixed;left:64%;top:30%""><img src=""visual/rope.png"" width=""300""></div>",1,NA,"No","I said it in my head ""aloud"".","arrowdown","NR",2.42,4.6,"low_verbal","HPiIXyO1",0.95,1,5
"125","visual/shoe.png","visual/soap.png",31,215581,"rhyme-same_different-task_switching-phon_sim",2662,"rhyme","arrowdown","experiment","<div style=""border: 3px solid #000000; position: fixed;left:14%;top:30%""><img src=""visual/soap.png"" width=""300""></div><div style=""border: 3px solid #000000; position: fixed;left:64%;top:30%""><img src=""visual/shoe.png"" width=""300""></div>",1,NA,"Yes","I tried to quickly reference in my mind if I had heard the two words referenced together in rhyme before. I also tried to think ahead about what rhymed with certain words.","arrowdown","NR",5,4.8,"high_verbal","m6nAacjH",0.8,0.85,5
"126","visual/shoe.png","visual/screw.png",31,101302,"rhyme-task_switching-same_different-phon_sim",1724.5,"rhyme","arrowup","experiment","<div style=""border: 3px solid #000000; position: fixed;left:14%;top:30%""><img src=""visual/screw.png"" width=""300""></div><div style=""border: 3px solid #000000; position: fixed;left:64%;top:30%""><img src=""visual/shoe.png"" width=""300""></div>",1,NA,"No","I said the pictures in my head before choosing.","arrowup","non-ortho",1.75,3.9,"low_verbal","Xa9ISMwC",1,0.85,4
"127","visual/soap.png","visual/pope.png",31,78028,"rhyme-task_switching-phon_sim-same_different",1828,"rhyme","arrowup","experiment","<div style=""border: 3px solid #000000; position: fixed;left:14%;top:30%""><img src=""visual/pope.png"" width=""300""></div><div style=""border: 3px solid #000000; position: fixed;left:64%;top:30%""><img src=""visual/soap.png"" width=""300""></div>",1,NA,"No","no_answer","arrowup","non-ortho",4.25,3.7,"high_verbal","ts7nbQkN",0.45,0.8,3
"128","visual/sock.png","visual/cat.png",31,102963,"rhyme-task_switching-same_different-phon_sim",1498.5,"rhyme","arrowdown","experiment","<div style=""border: 3px solid #000000; position: fixed;left:14%;top:30%""><img src=""visual/cat.png"" width=""300""></div><div style=""border: 3px solid #000000; position: fixed;left:64%;top:30%""><img src=""visual/sock.png"" width=""300""></div>",1,NA,"Yes","no_answer","arrowdown","NR",3,3.8,"low_verbal","xa4C6HC1",0.9,0.9,4
"129","visual/sock.png","visual/cat.png",31,54068,"rhyme-phon_sim-same_different-task_switching",1171.89999997616,"rhyme","arrowdown","experiment","<div style=""border: 3px solid #000000; position: fixed;left:14%;top:30%""><img src=""visual/cat.png"" width=""300""></div><div style=""border: 3px solid #000000; position: fixed;left:64%;top:30%""><img src=""visual/sock.png"" width=""300""></div>",1,NA,"No","said mentally","arrowdown","NR",4.166667,3.8,"high_verbal","RHqN8QGm",0.9,0.9,5
"130","visual/tie.png","visual/dart.png",31,67052,"rhyme-task_switching-same_different-phon_sim",2520.20000000298,"rhyme","arrowdown","experiment","<div style=""border: 3px solid #000000; position: fixed;left:14%;top:30%""><img src=""visual/dart.png"" width=""300""></div><div style=""border: 3px solid #000000; position: fixed;left:64%;top:30%""><img src=""visual/tie.png"" width=""300""></div>",1,NA,"Yes","no_answer","arrowdown","NR",2.83333333333333,3.2,"low_verbal","hRiDYGB2",0.9,0.7,4
"131","visual/whale.png","visual/snail.png",31,125042,"rhyme-phon_sim-same_different-task_switching",2659.5,"rhyme","arrowup","experiment","<div style=""border: 3px solid #000000; position: fixed;left:14%;top:30%""><img src=""visual/snail.png"" width=""300""></div><div style=""border: 3px solid #000000; position: fixed;left:64%;top:30%""><img src=""visual/whale.png"" width=""300""></div>",1,NA,"Yes","nothing","arrowup","non-ortho",4.67,4.7,"high_verbal","lcQfoynH",0.95,0.95,5
"132","visual/whale.png","visual/nail.png",31,52144,"rhyme-phon_sim-task_switching-same_different",2361.09999990463,"rhyme","arrowup","experiment","<div style=""border: 3px solid #000000; position: fixed;left:14%;top:30%""><img src=""visual/nail.png"" width=""300""></div><div style=""border: 3px solid #000000; position: fixed;left:64%;top:30%""><img src=""visual/whale.png"" width=""300""></div>",1,NA,"Yes","no","arrowup","non-ortho",1.33,1.9,"low_verbal","5WF1GwNy",0.95,0.95,3
"133","visual/whale.png","visual/nail.png",31,270203,"rhyme-same_different-phon_sim-task_switching",1287.39999999106,"rhyme","arrowup","experiment","<div style=""border: 3px solid #000000; position: fixed;left:14%;top:30%""><img src=""visual/nail.png"" width=""300""></div><div style=""border: 3px solid #000000; position: fixed;left:64%;top:30%""><img src=""visual/whale.png"" width=""300""></div>",1,NA,"Yes","think of the most simple word for the image","arrowup","non-ortho",4.25,4.1,"high_verbal","sZLRQDIR",0.95,0.95,3
"134","visual/bag.png","visual/flag.png",34,55214,"rhyme-phon_sim-task_switching-same_different",1805.09999990463,"rhyme","arrowup","experiment","<div style=""border: 3px solid #000000; position: fixed;left:14%;top:30%""><img src=""visual/flag.png"" width=""300""></div><div style=""border: 3px solid #000000; position: fixed;left:64%;top:30%""><img src=""visual/bag.png"" width=""300""></div>",1,NA,"Yes","no","arrowup","ortho",1.33,1.9,"low_verbal","5WF1GwNy",0.9,0.95,4
"135","visual/beer.png","visual/claw.png",34,106164,"rhyme-task_switching-same_different-phon_sim",2443.70000000298,"rhyme","arrowdown","experiment","<div style=""border: 3px solid #000000; position: fixed;left:14%;top:30%""><img src=""visual/claw.png"" width=""300""></div><div style=""border: 3px solid #000000; position: fixed;left:64%;top:30%""><img src=""visual/beer.png"" width=""300""></div>",1,NA,"Yes","no_answer","arrowdown","NR",3,3.8,"low_verbal","xa4C6HC1",0.55,0.75,5
"136","visual/beer.png","visual/deer.png",34,94778,"rhyme-task_switching-same_different-phon_sim",2058.5,"rhyme","arrowup","experiment","<div style=""border: 3px solid #000000; position: fixed;left:14%;top:30%""><img src=""visual/deer.png"" width=""300""></div><div style=""border: 3px solid #000000; position: fixed;left:64%;top:30%""><img src=""visual/beer.png"" width=""300""></div>",1,NA,"No","I mentally ""stated"" the words as a pair.","arrowup","ortho",1.67,3.3,"low_verbal","UhCBWnbb",0.65,0.75,4
"137","visual/cab.png","visual/king.png",34,59097,"rhyme-same_different-phon_sim-task_switching",1461.70000000298,"rhyme","arrowdown","experiment","<div style=""border: 3px solid #000000; position: fixed;left:14%;top:30%""><img src=""visual/king.png"" width=""300""></div><div style=""border: 3px solid #000000; position: fixed;left:64%;top:30%""><img src=""visual/cab.png"" width=""300""></div>",1,NA,"No","I said the words in my head.","arrowdown","NR",4.67,4.4,"high_verbal","2Ie4vXKm",0.8,0.05,5
"138","visual/cab.png","visual/king.png",34,807221,"rhyme-same_different-task_switching-phon_sim",2956.59999990463,"rhyme","arrowdown","experiment","<div style=""border: 3px solid #000000; position: fixed;left:14%;top:30%""><img src=""visual/king.png"" width=""300""></div><div style=""border: 3px solid #000000; position: fixed;left:64%;top:30%""><img src=""visual/cab.png"" width=""300""></div>",1,NA,"No","I had to guess at first for some of these.","arrowdown","NR",2.58,3.7,"low_verbal","lAeE5wTL",0.8,0.05,6
"139","visual/chain.png","visual/plane.png",34,67701,"rhyme-task_switching-same_different-phon_sim",1204.19999999553,"rhyme","arrowup","experiment","<div style=""border: 3px solid #000000; position: fixed;left:14%;top:30%""><img src=""visual/plane.png"" width=""300""></div><div style=""border: 3px solid #000000; position: fixed;left:64%;top:30%""><img src=""visual/chain.png"" width=""300""></div>",1,NA,"No","No, I just said it in my head rather than out loud.","arrowup","non-ortho",4.75,4.5,"high_verbal","XWkUpOyp",0.35,0.95,6
"140","visual/cone.png","visual/bone.png",34,104182,"rhyme-task_switching-same_different-phon_sim",1367,"rhyme","arrowdown","experiment","<div style=""border: 3px solid #000000; position: fixed;left:14%;top:30%""><img src=""visual/bone.png"" width=""300""></div><div style=""border: 3px solid #000000; position: fixed;left:64%;top:30%""><img src=""visual/cone.png"" width=""300""></div>",0,NA,"No","I said the pictures in my head before choosing.","arrowup","ortho",1.75,3.9,"low_verbal","Xa9ISMwC",0.95,0.7,5
"141","visual/fox.png","visual/socks.png",34,272232,"rhyme-same_different-phon_sim-task_switching",1250.79999999702,"rhyme","arrowup","experiment","<div style=""border: 3px solid #000000; position: fixed;left:14%;top:30%""><img src=""visual/socks.png"" width=""300""></div><div style=""border: 3px solid #000000; position: fixed;left:64%;top:30%""><img src=""visual/fox.png"" width=""300""></div>",1,NA,"Yes","think of the most simple word for the image","arrowup","non-ortho",4.25,4.1,"high_verbal","sZLRQDIR",0.9,0.85,4
"142","visual/heart.png","visual/dart.png",34,75860,"rhyme-task_switching-phon_sim-same_different",3339.39999997616,"rhyme","arrowdown","experiment","<div style=""border: 3px solid #000000; position: fixed;left:14%;top:30%""><img src=""visual/dart.png"" width=""300""></div><div style=""border: 3px solid #000000; position: fixed;left:64%;top:30%""><img src=""visual/heart.png"" width=""300""></div>",0,NA,"Yes","no","arrowup","non-ortho",4.166667,4.1,"high_verbal","c8Txd3Z5",0.9,0.9,6
"143","visual/leg.png","visual/egg.png",34,89133,"rhyme-same_different-phon_sim-task_switching",2223.20000004768,"rhyme","arrowup","experiment","<div style=""border: 3px solid #000000; position: fixed;left:14%;top:30%""><img src=""visual/egg.png"" width=""300""></div><div style=""border: 3px solid #000000; position: fixed;left:64%;top:30%""><img src=""visual/leg.png"" width=""300""></div>",1,NA,"No","Said in my mind, not vocally","arrowup","ortho",3.08333333333333,3.9,"low_verbal","NS1YHcvi",0.95,0.85,5
"144","visual/leg.png","visual/egg.png",34,137411,"rhyme-phon_sim-task_switching-same_different",2453.70000000298,"rhyme","arrowup","experiment","<div style=""border: 3px solid #000000; position: fixed;left:14%;top:30%""><img src=""visual/egg.png"" width=""300""></div><div style=""border: 3px solid #000000; position: fixed;left:64%;top:30%""><img src=""visual/leg.png"" width=""300""></div>",1,NA,"Yes","No","arrowup","ortho",2.25,1.8,"low_verbal","AZihdj82",0.95,0.85,4
"145","visual/moon.png","visual/spoon.png",34,217980,"rhyme-same_different-task_switching-phon_sim",1395,"rhyme","arrowup","experiment","<div style=""border: 3px solid #000000; position: fixed;left:14%;top:30%""><img src=""visual/spoon.png"" width=""300""></div><div style=""border: 3px solid #000000; position: fixed;left:64%;top:30%""><img src=""visual/moon.png"" width=""300""></div>",1,NA,"Yes","I tried to quickly reference in my mind if I had heard the two words referenced together in rhyme before. I also tried to think ahead about what rhymed with certain words.","arrowup","ortho",5,4.8,"high_verbal","m6nAacjH",1,0.95,6
"146","visual/moon.png","visual/spoon.png",34,2395715,"rhyme-same_different-phon_sim-task_switching",2235.5,"rhyme","arrowup","experiment","<div style=""border: 3px solid #000000; position: fixed;left:14%;top:30%""><img src=""visual/spoon.png"" width=""300""></div><div style=""border: 3px solid #000000; position: fixed;left:64%;top:30%""><img src=""visual/moon.png"" width=""300""></div>",1,NA,"Yes","I just went with my gut intuition","arrowup","ortho",4.75,5,"high_verbal","DuDDHkI9",1,0.95,6
"147","visual/pear.png","visual/chair.png",34,81092,"rhyme-task_switching-phon_sim-same_different",1534.69999992847,"rhyme","arrowup","experiment","<div style=""border: 3px solid #000000; position: fixed;left:14%;top:30%""><img src=""visual/chair.png"" width=""300""></div><div style=""border: 3px solid #000000; position: fixed;left:64%;top:30%""><img src=""visual/pear.png"" width=""300""></div>",1,NA,"No","no_answer","arrowup","non-ortho",4.25,3.7,"high_verbal","ts7nbQkN",0.95,0.95,4
"148","visual/ring.png","visual/king.png",34,92121,"rhyme-task_switching-phon_sim-same_different",2125.10000014305,"rhyme","arrowup","experiment","<div style=""border: 3px solid #000000; position: fixed;left:14%;top:30%""><img src=""visual/king.png"" width=""300""></div><div style=""border: 3px solid #000000; position: fixed;left:64%;top:30%""><img src=""visual/ring.png"" width=""300""></div>",1,NA,"No","I always viewed the picture on the left first","arrowup","ortho",3,3.5,"low_verbal","qkCSFiGm",0.8,0.9,6
"149","visual/screw.png","visual/train.png",34,1310513,"rhyme-phon_sim-same_different-task_switching",1945.80000001192,"rhyme","arrowdown","experiment","<div style=""border: 3px solid #000000; position: fixed;left:14%;top:30%""><img src=""visual/train.png"" width=""300""></div><div style=""border: 3px solid #000000; position: fixed;left:64%;top:30%""><img src=""visual/screw.png"" width=""300""></div>",1,NA,"Yes","no_answer","arrowdown","NR",2.25,3.7,"low_verbal","05Wo9IGy",0.95,1,6
"150","visual/seal.png","visual/wheel.png",34,99949,"rhyme-phon_sim-task_switching-same_different",2107.89999997616,"rhyme","arrowup","experiment","<div style=""border: 3px solid #000000; position: fixed;left:14%;top:30%""><img src=""visual/wheel.png"" width=""300""></div><div style=""border: 3px solid #000000; position: fixed;left:64%;top:30%""><img src=""visual/seal.png"" width=""300""></div>",1,NA,"Yes","Sometimes it seemed like I was trying to make words rhyme by the way I was saying them.","arrowup","non-ortho",2.91666666666667,3.3,"low_verbal","Ds5BnIYz",0.75,0.75,6
"151","visual/shoe.png","visual/screw.png",34,102582,"rhyme-phon_sim-task_switching-same_different",1971.40000000596,"rhyme","arrowup","experiment","<div style=""border: 3px solid #000000; position: fixed;left:14%;top:30%""><img src=""visual/screw.png"" width=""300""></div><div style=""border: 3px solid #000000; position: fixed;left:64%;top:30%""><img src=""visual/shoe.png"" width=""300""></div>",1,NA,"No","I said the words in my head and made my selection as quickly as possible.","arrowup","non-ortho",4.416667,4.2,"high_verbal","Qy5J1Mxs",1,0.85,6
"152","visual/shoe.png","visual/screw.png",34,110549,"rhyme-phon_sim-same_different-task_switching",1917.5,"rhyme","arrowup","experiment","<div style=""border: 3px solid #000000; position: fixed;left:14%;top:30%""><img src=""visual/screw.png"" width=""300""></div><div style=""border: 3px solid #000000; position: fixed;left:64%;top:30%""><img src=""visual/shoe.png"" width=""300""></div>",1,NA,"Yes","no_answer","arrowup","non-ortho",3.08333333333333,3.2,"low_verbal","4KFmznfv",1,0.85,5
"153","visual/sock.png","visual/cat.png",34,122727,"rhyme-task_switching-phon_sim-same_different",1495.5,"rhyme","arrowdown","experiment","<div style=""border: 3px solid #000000; position: fixed;left:14%;top:30%""><img src=""visual/cat.png"" width=""300""></div><div style=""border: 3px solid #000000; position: fixed;left:64%;top:30%""><img src=""visual/sock.png"" width=""300""></div>",1,NA,"Yes","It got easier as I knew each picture better.","arrowdown","NR",4.75,4.5,"high_verbal","NRFUWLZO",0.9,0.9,6
"154","visual/square_rhyme.png","visual/bear.png",34,129307,"rhyme-phon_sim-same_different-task_switching",3497.29999999702,"rhyme","arrowup","experiment","<div style=""border: 3px solid #000000; position: fixed;left:14%;top:30%""><img src=""visual/bear.png"" width=""300""></div><div style=""border: 3px solid #000000; position: fixed;left:64%;top:30%""><img src=""visual/square_rhyme.png"" width=""300""></div>",1,NA,"Yes","nothing","arrowup","non-ortho",4.67,4.7,"high_verbal","lcQfoynH",0.95,0.85,6
"155","visual/square_rhyme.png","visual/bear.png",34,297286,"rhyme-phon_sim-same_different-task_switching",2399.5,"rhyme","arrowup","experiment","<div style=""border: 3px solid #000000; position: fixed;left:14%;top:30%""><img src=""visual/bear.png"" width=""300""></div><div style=""border: 3px solid #000000; position: fixed;left:64%;top:30%""><img src=""visual/square_rhyme.png"" width=""300""></div>",1,NA,"No","I said it in my head ""aloud"".","arrowup","non-ortho",2.42,4.6,"low_verbal","HPiIXyO1",0.95,0.85,6
"156","visual/tie.png","visual/eye.png",34,91621,"rhyme-phon_sim-same_different-task_switching",1329,"rhyme","arrowup","experiment","<div style=""border: 3px solid #000000; position: fixed;left:14%;top:30%""><img src=""visual/eye.png"" width=""300""></div><div style=""border: 3px solid #000000; position: fixed;left:64%;top:30%""><img src=""visual/tie.png"" width=""300""></div>",1,NA,"Yes","used the pictures after I had seen them a few times","arrowup","non-ortho",4.83333333333333,4,"high_verbal","xnNpmgQR",0.95,0.7,5
"157","visual/whale.png","visual/nail.png",34,72142,"rhyme-task_switching-same_different-phon_sim",4325.60000000894,"rhyme","arrowdown","experiment","<div style=""border: 3px solid #000000; position: fixed;left:14%;top:30%""><img src=""visual/nail.png"" width=""300""></div><div style=""border: 3px solid #000000; position: fixed;left:64%;top:30%""><img src=""visual/whale.png"" width=""300""></div>",0,NA,"Yes","no_answer","arrowup","non-ortho",2.83333333333333,3.2,"low_verbal","hRiDYGB2",0.95,0.95,5
"158","visual/whale.png","visual/jar.png",34,163725,"rhyme-same_different-task_switching-phon_sim",894.300000190735,"rhyme","arrowup","experiment","<div style=""border: 3px solid #000000; position: fixed;left:14%;top:30%""><img src=""visual/jar.png"" width=""300""></div><div style=""border: 3px solid #000000; position: fixed;left:64%;top:30%""><img src=""visual/whale.png"" width=""300""></div>",0,NA,"Yes","no","arrowdown","NR",2.67,3,"low_verbal","wDmKNbjb",0.95,0.95,5
"159","visual/bag.png","visual/flag.png",37,79241,"rhyme-task_switching-phon_sim-same_different",1855.30000001192,"rhyme","arrowup","experiment","<div style=""border: 3px solid #000000; position: fixed;left:14%;top:30%""><img src=""visual/flag.png"" width=""300""></div><div style=""border: 3px solid #000000; position: fixed;left:64%;top:30%""><img src=""visual/bag.png"" width=""300""></div>",1,NA,"Yes","no","arrowup","ortho",4.166667,4.1,"high_verbal","c8Txd3Z5",0.9,0.95,7
"160","visual/beer.png","visual/claw.png",37,97622,"rhyme-task_switching-same_different-phon_sim",1834,"rhyme","arrowdown","experiment","<div style=""border: 3px solid #000000; position: fixed;left:14%;top:30%""><img src=""visual/claw.png"" width=""300""></div><div style=""border: 3px solid #000000; position: fixed;left:64%;top:30%""><img src=""visual/beer.png"" width=""300""></div>",1,NA,"No","I mentally ""stated"" the words as a pair.","arrowdown","NR",1.67,3.3,"low_verbal","UhCBWnbb",0.55,0.75,5
"161","visual/bell.png","visual/nose.png",37,809766,"rhyme-same_different-task_switching-phon_sim",1768.10000002384,"rhyme","arrowdown","experiment","<div style=""border: 3px solid #000000; position: fixed;left:14%;top:30%""><img src=""visual/nose.png"" width=""300""></div><div style=""border: 3px solid #000000; position: fixed;left:64%;top:30%""><img src=""visual/bell.png"" width=""300""></div>",1,NA,"No","I had to guess at first for some of these.","arrowdown","NR",2.58,3.7,"low_verbal","lAeE5wTL",1,0.9,7
"162","visual/bell.png","visual/nose.png",37,91746,"rhyme-same_different-phon_sim-task_switching",1602.29999995232,"rhyme","arrowdown","experiment","<div style=""border: 3px solid #000000; position: fixed;left:14%;top:30%""><img src=""visual/nose.png"" width=""300""></div><div style=""border: 3px solid #000000; position: fixed;left:64%;top:30%""><img src=""visual/bell.png"" width=""300""></div>",1,NA,"No","Said in my mind, not vocally","arrowdown","NR",3.08333333333333,3.9,"low_verbal","NS1YHcvi",1,0.9,6
"163","visual/chair.png","visual/drawer.png",37,77292,"rhyme-task_switching-same_different-phon_sim",2687.39999999851,"rhyme","arrowdown","experiment","<div style=""border: 3px solid #000000; position: fixed;left:14%;top:30%""><img src=""visual/drawer.png"" width=""300""></div><div style=""border: 3px solid #000000; position: fixed;left:64%;top:30%""><img src=""visual/chair.png"" width=""300""></div>",1,NA,"No","np","arrowdown","NR",2.92,4.2,"low_verbal","7rrmnKSW",0.8,0.95,6
"164","visual/clock.png","visual/sock.png",37,165799,"rhyme-same_different-task_switching-phon_sim",796,"rhyme","arrowup","experiment","<div style=""border: 3px solid #000000; position: fixed;left:14%;top:30%""><img src=""visual/sock.png"" width=""300""></div><div style=""border: 3px solid #000000; position: fixed;left:64%;top:30%""><img src=""visual/clock.png"" width=""300""></div>",1,NA,"Yes","no","arrowup","ortho",2.67,3,"low_verbal","wDmKNbjb",0.9,0.95,6
"165","visual/crab.png","visual/spoon.png",37,57735,"rhyme-phon_sim-task_switching-same_different",1496.90000009537,"rhyme","arrowdown","experiment","<div style=""border: 3px solid #000000; position: fixed;left:14%;top:30%""><img src=""visual/spoon.png"" width=""300""></div><div style=""border: 3px solid #000000; position: fixed;left:64%;top:30%""><img src=""visual/crab.png"" width=""300""></div>",1,NA,"Yes","no","arrowdown","NR",1.33,1.9,"low_verbal","5WF1GwNy",1,0.95,5
"166","visual/crane.png","visual/train.png",37,171791,"rhyme-same_different-task_switching-phon_sim",1733.90000009537,"rhyme","arrowdown","experiment","<div style=""border: 3px solid #000000; position: fixed;left:14%;top:30%""><img src=""visual/train.png"" width=""300""></div><div style=""border: 3px solid #000000; position: fixed;left:64%;top:30%""><img src=""visual/crane.png"" width=""300""></div>",0,NA,"No","some were hard to tell what they were supposed to be","arrowup","non-ortho",1.42,2.7,"low_verbal","fX6rWWkd",0.95,0.7,6
"167","visual/heart.png","visual/dart.png",37,133136,"rhyme-phon_sim-same_different-task_switching",2309,"rhyme","arrowup","experiment","<div style=""border: 3px solid #000000; position: fixed;left:14%;top:30%""><img src=""visual/dart.png"" width=""300""></div><div style=""border: 3px solid #000000; position: fixed;left:64%;top:30%""><img src=""visual/heart.png"" width=""300""></div>",1,NA,"Yes","nothing","arrowup","non-ortho",4.67,4.7,"high_verbal","lcQfoynH",0.9,0.9,7
"168","visual/jar.png","visual/star.png",37,274499,"rhyme-same_different-phon_sim-task_switching",1182.90000000596,"rhyme","arrowup","experiment","<div style=""border: 3px solid #000000; position: fixed;left:14%;top:30%""><img src=""visual/star.png"" width=""300""></div><div style=""border: 3px solid #000000; position: fixed;left:64%;top:30%""><img src=""visual/jar.png"" width=""300""></div>",1,NA,"Yes","think of the most simple word for the image","arrowup","ortho",4.25,4.1,"high_verbal","sZLRQDIR",0.95,0.95,5
"169","visual/leg.png","visual/egg.png",37,301552,"rhyme-phon_sim-same_different-task_switching",3493.80000000075,"rhyme","arrowup","experiment","<div style=""border: 3px solid #000000; position: fixed;left:14%;top:30%""><img src=""visual/egg.png"" width=""300""></div><div style=""border: 3px solid #000000; position: fixed;left:64%;top:30%""><img src=""visual/leg.png"" width=""300""></div>",1,NA,"No","I said it in my head ""aloud"".","arrowup","ortho",2.42,4.6,"low_verbal","HPiIXyO1",0.95,0.85,7
"170","visual/moon.png","visual/spoon.png",37,93937,"rhyme-phon_sim-same_different-task_switching",1309,"rhyme","arrowup","experiment","<div style=""border: 3px solid #000000; position: fixed;left:14%;top:30%""><img src=""visual/spoon.png"" width=""300""></div><div style=""border: 3px solid #000000; position: fixed;left:64%;top:30%""><img src=""visual/moon.png"" width=""300""></div>",1,NA,"Yes","used the pictures after I had seen them a few times","arrowup","ortho",4.83333333333333,4,"high_verbal","xnNpmgQR",1,0.95,6
"171","visual/nose.png","visual/rose.png",37,105551,"rhyme-phon_sim-task_switching-same_different",1451.89999997616,"rhyme","arrowup","experiment","<div style=""border: 3px solid #000000; position: fixed;left:14%;top:30%""><img src=""visual/rose.png"" width=""300""></div><div style=""border: 3px solid #000000; position: fixed;left:64%;top:30%""><img src=""visual/nose.png"" width=""300""></div>",1,NA,"No","I said the words in my head and made my selection as quickly as possible.","arrowup","ortho",4.416667,4.2,"high_verbal","Qy5J1Mxs",0.95,1,7
"172","visual/plane.png","visual/fly.png",37,83913,"rhyme-task_switching-phon_sim-same_different",1556.39999997616,"rhyme","arrowdown","experiment","<div style=""border: 3px solid #000000; position: fixed;left:14%;top:30%""><img src=""visual/fly.png"" width=""300""></div><div style=""border: 3px solid #000000; position: fixed;left:64%;top:30%""><img src=""visual/plane.png"" width=""300""></div>",1,NA,"No","no_answer","arrowdown","NR",4.25,3.7,"high_verbal","ts7nbQkN",0.95,0.35,5
"173","visual/ring.png","visual/king.png",37,1312697,"rhyme-phon_sim-same_different-task_switching",1176.80000001192,"rhyme","arrowup","experiment","<div style=""border: 3px solid #000000; position: fixed;left:14%;top:30%""><img src=""visual/king.png"" width=""300""></div><div style=""border: 3px solid #000000; position: fixed;left:64%;top:30%""><img src=""visual/ring.png"" width=""300""></div>",1,NA,"Yes","no_answer","arrowup","ortho",2.25,3.7,"low_verbal","05Wo9IGy",0.8,0.9,7
"174","visual/rose.png","visual/well.png",37,102935,"rhyme-phon_sim-task_switching-same_different",1477.59999999404,"rhyme","arrowdown","experiment","<div style=""border: 3px solid #000000; position: fixed;left:14%;top:30%""><img src=""visual/well.png"" width=""300""></div><div style=""border: 3px solid #000000; position: fixed;left:64%;top:30%""><img src=""visual/rose.png"" width=""300""></div>",1,NA,"Yes","Sometimes it seemed like I was trying to make words rhyme by the way I was saying them.","arrowdown","NR",2.91666666666667,3.3,"low_verbal","Ds5BnIYz",0.95,0.95,7
"175","visual/rose.png","visual/well.png",37,58740,"rhyme-phon_sim-same_different-task_switching",1251.69999998808,"rhyme","arrowdown","experiment","<div style=""border: 3px solid #000000; position: fixed;left:14%;top:30%""><img src=""visual/well.png"" width=""300""></div><div style=""border: 3px solid #000000; position: fixed;left:64%;top:30%""><img src=""visual/rose.png"" width=""300""></div>",1,NA,"No","said mentally","arrowdown","NR",4.166667,3.8,"high_verbal","RHqN8QGm",0.95,0.95,6
"176","visual/screw.png","visual/train.png",37,63032,"rhyme-same_different-phon_sim-task_switching",2397.70000000298,"rhyme","arrowdown","experiment","<div style=""border: 3px solid #000000; position: fixed;left:14%;top:30%""><img src=""visual/train.png"" width=""300""></div><div style=""border: 3px solid #000000; position: fixed;left:64%;top:30%""><img src=""visual/screw.png"" width=""300""></div>",1,NA,"No","I said the words in my head.","arrowdown","NR",4.67,4.4,"high_verbal","2Ie4vXKm",0.95,1,6
"177","visual/seal.png","visual/wheel.png",37,96767,"rhyme-task_switching-phon_sim-same_different",3881.09999990463,"rhyme","arrowup","experiment","<div style=""border: 3px solid #000000; position: fixed;left:14%;top:30%""><img src=""visual/wheel.png"" width=""300""></div><div style=""border: 3px solid #000000; position: fixed;left:64%;top:30%""><img src=""visual/seal.png"" width=""300""></div>",1,NA,"No","I always viewed the picture on the left first","arrowup","non-ortho",3,3.5,"low_verbal","qkCSFiGm",0.75,0.75,7
"178","visual/seal.png","visual/wheel.png",37,128623,"rhyme-task_switching-phon_sim-same_different",4624.39999999851,"rhyme","arrowup","experiment","<div style=""border: 3px solid #000000; position: fixed;left:14%;top:30%""><img src=""visual/wheel.png"" width=""300""></div><div style=""border: 3px solid #000000; position: fixed;left:64%;top:30%""><img src=""visual/seal.png"" width=""300""></div>",1,NA,"Yes","It got easier as I knew each picture better.","arrowup","non-ortho",4.75,4.5,"high_verbal","NRFUWLZO",0.75,0.75,7
"179","visual/snail.png","visual/key.png",37,107982,"rhyme-task_switching-same_different-phon_sim",2292.3,"rhyme","arrowdown","experiment","<div style=""border: 3px solid #000000; position: fixed;left:14%;top:30%""><img src=""visual/key.png"" width=""300""></div><div style=""border: 3px solid #000000; position: fixed;left:64%;top:30%""><img src=""visual/snail.png"" width=""300""></div>",1,NA,"No","I said the pictures in my head before choosing.","arrowdown","NR",1.75,3.9,"low_verbal","Xa9ISMwC",0.95,0.95,6
"180","visual/snail.png","visual/key.png",37,96445,"rhyme-same_different-task_switching-phon_sim",2050.29999999702,"rhyme","arrowdown","experiment","<div style=""border: 3px solid #000000; position: fixed;left:14%;top:30%""><img src=""visual/key.png"" width=""300""></div><div style=""border: 3px solid #000000; position: fixed;left:64%;top:30%""><img src=""visual/snail.png"" width=""300""></div>",1,NA,"Yes","no","arrowdown","NR",2.5,3,"low_verbal","OE580Gi8",0.95,0.95,5
"181","visual/sock.png","visual/cat.png",37,221940,"rhyme-same_different-task_switching-phon_sim",2702,"rhyme","arrowdown","experiment","<div style=""border: 3px solid #000000; position: fixed;left:14%;top:30%""><img src=""visual/cat.png"" width=""300""></div><div style=""border: 3px solid #000000; position: fixed;left:64%;top:30%""><img src=""visual/sock.png"" width=""300""></div>",1,NA,"Yes","I tried to quickly reference in my mind if I had heard the two words referenced together in rhyme before. I also tried to think ahead about what rhymed with certain words.","arrowdown","NR",5,4.8,"high_verbal","m6nAacjH",0.9,0.9,7
"182","visual/square_rhyme.png","visual/bear.png",37,140068,"rhyme-phon_sim-task_switching-same_different",1656.29999999702,"rhyme","arrowup","experiment","<div style=""border: 3px solid #000000; position: fixed;left:14%;top:30%""><img src=""visual/bear.png"" width=""300""></div><div style=""border: 3px solid #000000; position: fixed;left:64%;top:30%""><img src=""visual/square_rhyme.png"" width=""300""></div>",1,NA,"Yes","No","arrowup","non-ortho",2.25,1.8,"low_verbal","AZihdj82",0.95,0.85,5
"183","visual/tie.png","visual/dart.png",37,70375,"rhyme-same_different-task_switching-phon_sim",1944.60000002384,"rhyme","arrowdown","experiment","<div style=""border: 3px solid #000000; position: fixed;left:14%;top:30%""><img src=""visual/dart.png"" width=""300""></div><div style=""border: 3px solid #000000; position: fixed;left:64%;top:30%""><img src=""visual/tie.png"" width=""300""></div>",1,NA,"No","no_answer","arrowdown","NR",2.17,3.9,"low_verbal","vhsbIoXa",0.9,0.7,5
"184","visual/tie.png","visual/dart.png",37,114003,"rhyme-phon_sim-same_different-task_switching",1938.69999980927,"rhyme","arrowdown","experiment","<div style=""border: 3px solid #000000; position: fixed;left:14%;top:30%""><img src=""visual/dart.png"" width=""300""></div><div style=""border: 3px solid #000000; position: fixed;left:64%;top:30%""><img src=""visual/tie.png"" width=""300""></div>",1,NA,"Yes","no_answer","arrowdown","NR",3.08333333333333,3.2,"low_verbal","4KFmznfv",0.9,0.7,6
"185","visual/tree.png","visual/key.png",37,69694,"rhyme-task_switching-same_different-phon_sim",988.60000000149,"rhyme","arrowup","experiment","<div style=""border: 3px solid #000000; position: fixed;left:14%;top:30%""><img src=""visual/key.png"" width=""300""></div><div style=""border: 3px solid #000000; position: fixed;left:64%;top:30%""><img src=""visual/tree.png"" width=""300""></div>",1,NA,"No","No, I just said it in my head rather than out loud.","arrowup","non-ortho",4.75,4.5,"high_verbal","XWkUpOyp",0.95,0.85,7
"186","visual/whale.png","visual/snail.png",37,76899,"rhyme-task_switching-same_different-phon_sim",3222.90000000596,"rhyme","arrowdown","experiment","<div style=""border: 3px solid #000000; position: fixed;left:14%;top:30%""><img src=""visual/snail.png"" width=""300""></div><div style=""border: 3px solid #000000; position: fixed;left:64%;top:30%""><img src=""visual/whale.png"" width=""300""></div>",0,NA,"Yes","no_answer","arrowup","non-ortho",2.83333333333333,3.2,"low_verbal","hRiDYGB2",0.95,0.95,6
"187","visual/bag.png","visual/flag.png",40,167311,"rhyme-same_different-task_switching-phon_sim",751,"rhyme","arrowup","experiment","<div style=""border: 3px solid #000000; position: fixed;left:14%;top:30%""><img src=""visual/flag.png"" width=""300""></div><div style=""border: 3px solid #000000; position: fixed;left:64%;top:30%""><img src=""visual/bag.png"" width=""300""></div>",1,NA,"Yes","no","arrowup","ortho",2.67,3,"low_verbal","wDmKNbjb",0.9,0.95,7
"188","visual/brain.png","visual/chain.png",40,72236,"rhyme-task_switching-same_different-phon_sim",1287,"rhyme","arrowup","experiment","<div style=""border: 3px solid #000000; position: fixed;left:14%;top:30%""><img src=""visual/chain.png"" width=""300""></div><div style=""border: 3px solid #000000; position: fixed;left:64%;top:30%""><img src=""visual/brain.png"" width=""300""></div>",1,NA,"No","No, I just said it in my head rather than out loud.","arrowup","ortho",4.75,4.5,"high_verbal","XWkUpOyp",0.95,0.95,8
"189","visual/cab.png","visual/king.png",40,117994,"rhyme-phon_sim-same_different-task_switching",3225.29999995232,"rhyme","arrowdown","experiment","<div style=""border: 3px solid #000000; position: fixed;left:14%;top:30%""><img src=""visual/king.png"" width=""300""></div><div style=""border: 3px solid #000000; position: fixed;left:64%;top:30%""><img src=""visual/cab.png"" width=""300""></div>",1,NA,"Yes","no_answer","arrowdown","NR",3.08333333333333,3.2,"low_verbal","4KFmznfv",0.8,0.05,7
"190","visual/chair.png","visual/drawer.png",40,112746,"rhyme-task_switching-same_different-phon_sim",2370,"rhyme","arrowdown","experiment","<div style=""border: 3px solid #000000; position: fixed;left:14%;top:30%""><img src=""visual/drawer.png"" width=""300""></div><div style=""border: 3px solid #000000; position: fixed;left:64%;top:30%""><img src=""visual/chair.png"" width=""300""></div>",1,NA,"Yes","no_answer","arrowdown","NR",3,3.8,"low_verbal","xa4C6HC1",0.8,0.95,6
"191","visual/chair.png","visual/drawer.png",40,812935,"rhyme-same_different-task_switching-phon_sim",1885.5,"rhyme","arrowdown","experiment","<div style=""border: 3px solid #000000; position: fixed;left:14%;top:30%""><img src=""visual/drawer.png"" width=""300""></div><div style=""border: 3px solid #000000; position: fixed;left:64%;top:30%""><img src=""visual/chair.png"" width=""300""></div>",1,NA,"No","I had to guess at first for some of these.","arrowdown","NR",2.58,3.7,"low_verbal","lAeE5wTL",0.8,0.95,8
"192","visual/claw.png","visual/saw.png",40,135741,"rhyme-phon_sim-same_different-task_switching",1589.39999999851,"rhyme","arrowup","experiment","<div style=""border: 3px solid #000000; position: fixed;left:14%;top:30%""><img src=""visual/saw.png"" width=""300""></div><div style=""border: 3px solid #000000; position: fixed;left:64%;top:30%""><img src=""visual/claw.png"" width=""300""></div>",1,NA,"Yes","nothing","arrowup","ortho",4.67,4.7,"high_verbal","lcQfoynH",1,0.55,8
"193","visual/door.png","visual/drawer.png",40,105744,"rhyme-phon_sim-task_switching-same_different",1295.19999998808,"rhyme","arrowup","experiment","<div style=""border: 3px solid #000000; position: fixed;left:14%;top:30%""><img src=""visual/drawer.png"" width=""300""></div><div style=""border: 3px solid #000000; position: fixed;left:64%;top:30%""><img src=""visual/door.png"" width=""300""></div>",1,NA,"Yes","Sometimes it seemed like I was trying to make words rhyme by the way I was saying them.","arrowup","non-ortho",2.91666666666667,3.3,"low_verbal","Ds5BnIYz",0.8,0.95,8
"194","visual/door.png","visual/drawer.png",40,80540,"rhyme-task_switching-same_different-phon_sim",2863.70000000298,"rhyme","arrowup","experiment","<div style=""border: 3px solid #000000; position: fixed;left:14%;top:30%""><img src=""visual/drawer.png"" width=""300""></div><div style=""border: 3px solid #000000; position: fixed;left:64%;top:30%""><img src=""visual/door.png"" width=""300""></div>",1,NA,"Yes","no_answer","arrowup","non-ortho",2.83333333333333,3.2,"low_verbal","hRiDYGB2",0.8,0.95,7
"195","visual/door.png","visual/tree.png",40,1315611,"rhyme-phon_sim-same_different-task_switching",1656.60000002384,"rhyme","arrowdown","experiment","<div style=""border: 3px solid #000000; position: fixed;left:14%;top:30%""><img src=""visual/tree.png"" width=""300""></div><div style=""border: 3px solid #000000; position: fixed;left:64%;top:30%""><img src=""visual/door.png"" width=""300""></div>",1,NA,"Yes","no_answer","arrowdown","NR",2.25,3.7,"low_verbal","05Wo9IGy",0.85,0.95,8
