"","worker_id","condition","trial_index","time_elapsed","experiment_order","rt","experiment","phase","stimulus","answer","correct","operation","symbol_cue","trial_no","color_cue","talk_out_loud","strategy_free_ans","VerbalScored","VisualScored","high_low_verbal","correct_if_add","correct_if_subtract","trial_no_ptcpt","list_completion","operation_used","correct_operation","correct_arithmetic","switching_is_correct"
"1","05Wo9IGy","uncued",1300,5431398,"rhyme-phon_sim-same_different-task_switching",3518,"task_switching","experiment",80,83,1,"add",NA,0,NA,"Yes","no_answer",2.25,3.7,"low_verbal",83,77,120,114.11199999994,"add",1,1,1
"2","05Wo9IGy","uncued",1301,5436154,"rhyme-phon_sim-same_different-task_switching",4754,"task_switching","experiment",40,37,1,"subtract",NA,1,NA,"Yes","no_answer",2.25,3.7,"low_verbal",43,37,121,114.11199999994,"subtract",1,1,1
"3","05Wo9IGy","uncued",1302,5439994,"rhyme-phon_sim-same_different-task_switching",3837.69999998808,"task_switching","experiment",63,66,1,"add",NA,2,NA,"Yes","no_answer",2.25,3.7,"low_verbal",66,60,122,114.11199999994,"add",1,1,1
"4","05Wo9IGy","uncued",1303,5444062,"rhyme-phon_sim-same_different-task_switching",4064.79999995232,"task_switching","experiment",28,25,1,"subtract",NA,3,NA,"Yes","no_answer",2.25,3.7,"low_verbal",31,25,123,114.11199999994,"subtract",1,1,1
"5","05Wo9IGy","uncued",1304,5446898,"rhyme-phon_sim-same_different-task_switching",2833.89999997616,"task_switching","experiment",74,79,0,"add",NA,4,NA,"Yes","no_answer",2.25,3.7,"low_verbal",77,71,124,114.11199999994,"add",1,0,0
"6","05Wo9IGy","uncued",1305,5449534,"rhyme-phon_sim-same_different-task_switching",2634,"task_switching","experiment",83,80,1,"subtract",NA,5,NA,"Yes","no_answer",2.25,3.7,"low_verbal",86,80,125,114.11199999994,"subtract",1,1,1
"7","05Wo9IGy","uncued",1306,5455118,"rhyme-phon_sim-same_different-task_switching",5581.10000002384,"task_switching","experiment",24,27,1,"add",NA,6,NA,"Yes","no_answer",2.25,3.7,"low_verbal",27,21,126,114.11199999994,"add",1,1,1
"8","05Wo9IGy","uncued",1307,5458722,"rhyme-phon_sim-same_different-task_switching",3601.90000003576,"task_switching","experiment",91,88,1,"subtract",NA,7,NA,"Yes","no_answer",2.25,3.7,"low_verbal",94,88,127,114.11199999994,"subtract",1,1,1
"9","05Wo9IGy","uncued",1308,5462327,"rhyme-phon_sim-same_different-task_switching",3603.80000001192,"task_switching","experiment",23,26,1,"add",NA,8,NA,"Yes","no_answer",2.25,3.7,"low_verbal",26,20,128,114.11199999994,"add",1,1,1
"10","05Wo9IGy","uncued",1309,5466282,"rhyme-phon_sim-same_different-task_switching",3951.89999997616,"task_switching","experiment",30,27,1,"subtract",NA,9,NA,"Yes","no_answer",2.25,3.7,"low_verbal",33,27,129,114.11199999994,"subtract",1,1,1
"11","05Wo9IGy","uncued",1310,5471525,"rhyme-phon_sim-same_different-task_switching",5241.89999997616,"task_switching","experiment",73,76,1,"add",NA,10,NA,"Yes","no_answer",2.25,3.7,"low_verbal",76,70,130,114.11199999994,"add",1,1,1
"12","05Wo9IGy","uncued",1311,5475574,"rhyme-phon_sim-same_different-task_switching",4044.69999998808,"task_switching","experiment",48,45,1,"subtract",NA,11,NA,"Yes","no_answer",2.25,3.7,"low_verbal",51,45,131,114.11199999994,"subtract",1,1,1
"13","05Wo9IGy","uncued",1312,5480119,"rhyme-phon_sim-same_different-task_switching",4543.80000001192,"task_switching","experiment",71,74,1,"add",NA,12,NA,"Yes","no_answer",2.25,3.7,"low_verbal",74,68,132,114.11199999994,"add",1,1,1
"14","05Wo9IGy","uncued",1313,5483479,"rhyme-phon_sim-same_different-task_switching",3357.80000001192,"task_switching","experiment",45,43,0,"subtract",NA,13,NA,"Yes","no_answer",2.25,3.7,"low_verbal",48,42,133,114.11199999994,"subtract",1,0,0
"15","05Wo9IGy","uncued",1314,5486646,"rhyme-phon_sim-same_different-task_switching",3164.30000001192,"task_switching","experiment",27,30,1,"add",NA,14,NA,"Yes","no_answer",2.25,3.7,"low_verbal",30,24,134,114.11199999994,"add",1,1,1
"16","05Wo9IGy","uncued",1315,5489719,"rhyme-phon_sim-same_different-task_switching",3071.60000002384,"task_switching","experiment",84,81,1,"subtract",NA,15,NA,"Yes","no_answer",2.25,3.7,"low_verbal",87,81,135,114.11199999994,"subtract",1,1,1
"17","05Wo9IGy","uncued",1316,5494599,"rhyme-phon_sim-same_different-task_switching",4877.80000001192,"task_switching","experiment",81,84,1,"add",NA,16,NA,"Yes","no_answer",2.25,3.7,"low_verbal",84,78,136,114.11199999994,"add",1,1,1
"18","05Wo9IGy","uncued",1317,5498043,"rhyme-phon_sim-same_different-task_switching",3441.90000003576,"task_switching","experiment",35,32,1,"subtract",NA,17,NA,"Yes","no_answer",2.25,3.7,"low_verbal",38,32,137,114.11199999994,"subtract",1,1,1
"19","05Wo9IGy","uncued",1318,5501393,"rhyme-phon_sim-same_different-task_switching",3348,"task_switching","experiment",46,49,1,"add",NA,18,NA,"Yes","no_answer",2.25,3.7,"low_verbal",49,43,138,114.11199999994,"add",1,1,1
"20","05Wo9IGy","uncued",1319,5505793,"rhyme-phon_sim-same_different-task_switching",4397.80000001192,"task_switching","experiment",87,84,1,"subtract",NA,19,NA,"Yes","no_answer",2.25,3.7,"low_verbal",90,84,139,114.11199999994,"subtract",1,1,1
"21","05Wo9IGy","uncued",1320,5509723,"rhyme-phon_sim-same_different-task_switching",3927.89999997616,"task_switching","experiment",59,62,1,"add",NA,20,NA,"Yes","no_answer",2.25,3.7,"low_verbal",62,56,140,114.11199999994,"add",1,1,1
"22","05Wo9IGy","uncued",1321,5513247,"rhyme-phon_sim-same_different-task_switching",3521.79999995232,"task_switching","experiment",90,87,1,"subtract",NA,21,NA,"Yes","no_answer",2.25,3.7,"low_verbal",93,87,141,114.11199999994,"subtract",1,1,1
"23","05Wo9IGy","uncued",1322,5515579,"rhyme-phon_sim-same_different-task_switching",2329.89999997616,"task_switching","experiment",85,88,1,"add",NA,22,NA,"Yes","no_answer",2.25,3.7,"low_verbal",88,82,142,114.11199999994,"add",1,1,1
"24","05Wo9IGy","uncued",1323,5519509,"rhyme-phon_sim-same_different-task_switching",3928,"task_switching","experiment",38,85,0,"subtract",NA,23,NA,"Yes","no_answer",2.25,3.7,"low_verbal",41,35,143,114.11199999994,"add",0,0,0
"25","05Wo9IGy","uncued",1324,5523577,"rhyme-phon_sim-same_different-task_switching",4065.79999995232,"task_switching","experiment",16,19,1,"add",NA,24,NA,"Yes","no_answer",2.25,3.7,"low_verbal",19,13,144,114.11199999994,"add",1,1,0
"26","05Wo9IGy","uncued",1325,5527499,"rhyme-phon_sim-same_different-task_switching",3919.69999998808,"task_switching","experiment",67,64,1,"subtract",NA,25,NA,"Yes","no_answer",2.25,3.7,"low_verbal",70,64,145,114.11199999994,"subtract",1,1,1
"27","05Wo9IGy","uncued",1326,5531145,"rhyme-phon_sim-same_different-task_switching",3643.69999998808,"task_switching","experiment",93,96,1,"add",NA,26,NA,"Yes","no_answer",2.25,3.7,"low_verbal",96,90,146,114.11199999994,"add",1,1,1
"28","05Wo9IGy","uncued",1327,5533831,"rhyme-phon_sim-same_different-task_switching",2683.80000001192,"task_switching","experiment",26,23,1,"subtract",NA,27,NA,"Yes","no_answer",2.25,3.7,"low_verbal",29,23,147,114.11199999994,"subtract",1,1,1
"29","05Wo9IGy","uncued",1328,5537835,"rhyme-phon_sim-same_different-task_switching",4000.90000003576,"task_switching","experiment",72,75,1,"add",NA,28,NA,"Yes","no_answer",2.25,3.7,"low_verbal",75,69,148,114.11199999994,"add",1,1,1
"30","05Wo9IGy","uncued",1329,5542057,"rhyme-phon_sim-same_different-task_switching",4219.80000001192,"task_switching","experiment",69,66,1,"subtract",NA,29,NA,"Yes","no_answer",2.25,3.7,"low_verbal",72,66,149,114.11199999994,"subtract",1,1,1
"31","0CxunTLR","uncued",241,3346590,"phon_sim-task_switching-rhyme-same_different",5996.60000002384,"task_switching","experiment",76,79,1,"add",NA,0,NA,"No","no_answer",1.75,1.6,"low_verbal",79,73,91,139.066799999714,"add",1,1,1
"32","0CxunTLR","uncued",242,3352414,"phon_sim-task_switching-rhyme-same_different",5814,"task_switching","experiment",88,85,1,"subtract",NA,1,NA,"No","no_answer",1.75,1.6,"low_verbal",91,85,92,139.066799999714,"subtract",1,1,1
"33","0CxunTLR","uncued",243,3357493,"phon_sim-task_switching-rhyme-same_different",5073.29999995232,"task_switching","experiment",70,73,1,"add",NA,2,NA,"No","no_answer",1.75,1.6,"low_verbal",73,67,93,139.066799999714,"add",1,1,1
"34","0CxunTLR","uncued",244,3361539,"phon_sim-task_switching-rhyme-same_different",4037.10000002384,"task_switching","experiment",71,68,1,"subtract",NA,3,NA,"No","no_answer",1.75,1.6,"low_verbal",74,68,94,139.066799999714,"subtract",1,1,1
"35","0CxunTLR","uncued",245,3367045,"phon_sim-task_switching-rhyme-same_different",5500.10000002384,"task_switching","experiment",56,59,1,"add",NA,4,NA,"No","no_answer",1.75,1.6,"low_verbal",59,53,95,139.066799999714,"add",1,1,1
"36","0CxunTLR","uncued",246,3370878,"phon_sim-task_switching-rhyme-same_different",3820.89999997616,"task_switching","experiment",57,54,1,"subtract",NA,5,NA,"No","no_answer",1.75,1.6,"low_verbal",60,54,96,139.066799999714,"subtract",1,1,1
"37","0CxunTLR","uncued",247,3374138,"phon_sim-task_switching-rhyme-same_different",3254.5,"task_switching","experiment",29,32,1,"add",NA,6,NA,"No","no_answer",1.75,1.6,"low_verbal",32,26,97,139.066799999714,"add",1,1,1
"38","0CxunTLR","uncued",248,3379381,"phon_sim-task_switching-rhyme-same_different",5235.60000002384,"task_switching","experiment",67,64,1,"subtract",NA,7,NA,"No","no_answer",1.75,1.6,"low_verbal",70,64,98,139.066799999714,"subtract",1,1,1
"39","0CxunTLR","uncued",249,3383971,"phon_sim-task_switching-rhyme-same_different",4579.30000007153,"task_switching","experiment",15,18,1,"add",NA,8,NA,"No","no_answer",1.75,1.6,"low_verbal",18,12,99,139.066799999714,"add",1,1,1
"40","0CxunTLR","uncued",250,3388664,"phon_sim-task_switching-rhyme-same_different",4682.39999997616,"task_switching","experiment",80,77,1,"subtract",NA,9,NA,"No","no_answer",1.75,1.6,"low_verbal",83,77,100,139.066799999714,"subtract",1,1,1
"41","0CxunTLR","uncued",251,3394236,"phon_sim-task_switching-rhyme-same_different",5560.10000002384,"task_switching","experiment",37,40,1,"add",NA,10,NA,"No","no_answer",1.75,1.6,"low_verbal",40,34,101,139.066799999714,"add",1,1,1
"42","0CxunTLR","uncued",252,3399177,"phon_sim-task_switching-rhyme-same_different",4931.39999997616,"task_switching","experiment",43,40,1,"subtract",NA,11,NA,"No","no_answer",1.75,1.6,"low_verbal",46,40,102,139.066799999714,"subtract",1,1,1
"43","0CxunTLR","uncued",253,3401918,"phon_sim-task_switching-rhyme-same_different",2730.70000004768,"task_switching","experiment",50,53,1,"add",NA,12,NA,"No","no_answer",1.75,1.6,"low_verbal",53,47,103,139.066799999714,"add",1,1,1
"44","0CxunTLR","uncued",254,3408625,"phon_sim-task_switching-rhyme-same_different",6697.5,"task_switching","experiment",38,35,1,"subtract",NA,13,NA,"No","no_answer",1.75,1.6,"low_verbal",41,35,104,139.066799999714,"subtract",1,1,1
"45","0CxunTLR","uncued",255,3410947,"phon_sim-task_switching-rhyme-same_different",2311.5,"task_switching","experiment",30,33,1,"add",NA,14,NA,"No","no_answer",1.75,1.6,"low_verbal",33,27,105,139.066799999714,"add",1,1,1
"46","0CxunTLR","uncued",256,3414081,"phon_sim-task_switching-rhyme-same_different",3121.79999995232,"task_switching","experiment",19,16,1,"subtract",NA,15,NA,"No","no_answer",1.75,1.6,"low_verbal",22,16,106,139.066799999714,"subtract",1,1,1
"47","0CxunTLR","uncued",257,3418230,"phon_sim-task_switching-rhyme-same_different",4141.59999990463,"task_switching","experiment",21,24,1,"add",NA,16,NA,"No","no_answer",1.75,1.6,"low_verbal",24,18,107,139.066799999714,"add",1,1,1
"48","0CxunTLR","uncued",258,3422065,"phon_sim-task_switching-rhyme-same_different",3830.19999992847,"task_switching","experiment",81,78,1,"subtract",NA,17,NA,"No","no_answer",1.75,1.6,"low_verbal",84,78,108,139.066799999714,"subtract",1,1,1
"49","0CxunTLR","uncued",259,3427410,"phon_sim-task_switching-rhyme-same_different",5333.10000002384,"task_switching","experiment",69,72,1,"add",NA,18,NA,"No","no_answer",1.75,1.6,"low_verbal",72,66,109,139.066799999714,"add",1,1,1
"50","0CxunTLR","uncued",260,3432341,"phon_sim-task_switching-rhyme-same_different",4925.09999990463,"task_switching","experiment",32,29,1,"subtract",NA,19,NA,"No","no_answer",1.75,1.6,"low_verbal",35,29,110,139.066799999714,"subtract",1,1,1
"51","0CxunTLR","uncued",261,3437623,"phon_sim-task_switching-rhyme-same_different",5272.89999997616,"task_switching","experiment",92,95,1,"add",NA,20,NA,"No","no_answer",1.75,1.6,"low_verbal",95,89,111,139.066799999714,"add",1,1,1
"52","0CxunTLR","uncued",262,3440945,"phon_sim-task_switching-rhyme-same_different",3313.39999997616,"task_switching","experiment",68,65,1,"subtract",NA,21,NA,"No","no_answer",1.75,1.6,"low_verbal",71,65,112,139.066799999714,"subtract",1,1,1
"53","0CxunTLR","uncued",263,3446339,"phon_sim-task_switching-rhyme-same_different",5382.5,"task_switching","experiment",84,87,1,"add",NA,22,NA,"No","no_answer",1.75,1.6,"low_verbal",87,81,113,139.066799999714,"add",1,1,1
"54","0CxunTLR","uncued",264,3450756,"phon_sim-task_switching-rhyme-same_different",4406.79999995232,"task_switching","experiment",74,71,1,"subtract",NA,23,NA,"No","no_answer",1.75,1.6,"low_verbal",77,71,114,139.066799999714,"subtract",1,1,1
"55","0CxunTLR","uncued",265,3457568,"phon_sim-task_switching-rhyme-same_different",6802.89999997616,"task_switching","experiment",78,81,1,"add",NA,24,NA,"No","no_answer",1.75,1.6,"low_verbal",81,75,115,139.066799999714,"add",1,1,1
"56","0CxunTLR","uncued",266,3462459,"phon_sim-task_switching-rhyme-same_different",4877.10000002384,"task_switching","experiment",95,92,1,"subtract",NA,25,NA,"No","no_answer",1.75,1.6,"low_verbal",98,92,116,139.066799999714,"subtract",1,1,1
"57","0CxunTLR","uncued",267,3466539,"phon_sim-task_switching-rhyme-same_different",4070.39999997616,"task_switching","experiment",73,76,1,"add",NA,26,NA,"No","no_answer",1.75,1.6,"low_verbal",76,70,117,139.066799999714,"add",1,1,1
"58","0CxunTLR","uncued",268,3471633,"phon_sim-task_switching-rhyme-same_different",5083,"task_switching","experiment",49,46,1,"subtract",NA,27,NA,"No","no_answer",1.75,1.6,"low_verbal",52,46,118,139.066799999714,"subtract",1,1,1
"59","0CxunTLR","uncued",269,3476430,"phon_sim-task_switching-rhyme-same_different",4785.89999997616,"task_switching","experiment",46,49,1,"add",NA,28,NA,"No","no_answer",1.75,1.6,"low_verbal",49,43,119,139.066799999714,"add",1,1,1
"60","0CxunTLR","uncued",270,3479940,"phon_sim-task_switching-rhyme-same_different",3495.10000002384,"task_switching","experiment",53,50,1,"subtract",NA,29,NA,"No","no_answer",1.75,1.6,"low_verbal",56,50,120,139.066799999714,"subtract",1,1,1
"61","0EwA9ugv","uncued",293,5758783,"phon_sim-task_switching-rhyme-same_different",6031.79999995232,"task_switching","experiment",66,69,1,"add",NA,0,NA,"No","I do my calculation",2.42,3.8,"low_verbal",69,63,101,137.600899999976,"add",1,1,1
"62","0EwA9ugv","uncued",303,5834161,"phon_sim-task_switching-rhyme-same_different",6179.39999997616,"task_switching","experiment",41,44,1,"add",NA,10,NA,"No","I do my calculation",2.42,3.8,"low_verbal",44,38,109,137.600899999976,"add",1,1,0
"63","0EwA9ugv","uncued",306,5878350,"phon_sim-task_switching-rhyme-same_different",9583.20000004768,"task_switching","experiment",77,74,1,"subtract",NA,13,NA,"No","I do my calculation",2.42,3.8,"low_verbal",80,74,110,137.600899999976,"subtract",1,1,1
"64","0EwA9ugv","uncued",307,5882902,"phon_sim-task_switching-rhyme-same_different",4546.59999990463,"task_switching","experiment",70,73,1,"add",NA,14,NA,"No","I do my calculation",2.42,3.8,"low_verbal",73,67,111,137.600899999976,"add",1,1,1
"65","0EwA9ugv","uncued",308,5887984,"phon_sim-task_switching-rhyme-same_different",5077.10000002384,"task_switching","experiment",87,84,1,"subtract",NA,15,NA,"No","I do my calculation",2.42,3.8,"low_verbal",90,84,112,137.600899999976,"subtract",1,1,1
"66","0EwA9ugv","uncued",309,5892262,"phon_sim-task_switching-rhyme-same_different",4271.39999997616,"task_switching","experiment",36,39,1,"add",NA,16,NA,"No","I do my calculation",2.42,3.8,"low_verbal",39,33,113,137.600899999976,"add",1,1,1
"67","0EwA9ugv","uncued",310,5900101,"phon_sim-task_switching-rhyme-same_different",7832,"task_switching","experiment",96,93,1,"subtract",NA,17,NA,"No","I do my calculation",2.42,3.8,"low_verbal",99,93,114,137.600899999976,"subtract",1,1,1
"68","0EwA9ugv","uncued",311,5905795,"phon_sim-task_switching-rhyme-same_different",5686.5,"task_switching","experiment",13,15,0,"add",NA,18,NA,"No","I do my calculation",2.42,3.8,"low_verbal",16,10,115,137.600899999976,"add",1,0,0
"69","0EwA9ugv","uncued",312,5910572,"phon_sim-task_switching-rhyme-same_different",4772.10000002384,"task_switching","experiment",94,91,1,"subtract",NA,19,NA,"No","I do my calculation",2.42,3.8,"low_verbal",97,91,116,137.600899999976,"subtract",1,1,1
"70","0EwA9ugv","uncued",313,5915879,"phon_sim-task_switching-rhyme-same_different",5302,"task_switching","experiment",50,53,1,"add",NA,20,NA,"No","I do my calculation",2.42,3.8,"low_verbal",53,47,117,137.600899999976,"add",1,1,1
"71","0EwA9ugv","uncued",314,5920690,"phon_sim-task_switching-rhyme-same_different",4805.60000002384,"task_switching","experiment",65,62,1,"subtract",NA,21,NA,"No","I do my calculation",2.42,3.8,"low_verbal",68,62,118,137.600899999976,"subtract",1,1,1
"72","0EwA9ugv","uncued",315,5925904,"phon_sim-task_switching-rhyme-same_different",5210.5,"task_switching","experiment",57,60,1,"add",NA,22,NA,"No","I do my calculation",2.42,3.8,"low_verbal",60,54,119,137.600899999976,"add",1,1,1
"73","0EwA9ugv","uncued",316,5935438,"phon_sim-task_switching-rhyme-same_different",9527.89999997616,"task_switching","experiment",91,88,1,"subtract",NA,23,NA,"No","I do my calculation",2.42,3.8,"low_verbal",94,88,120,137.600899999976,"subtract",1,1,1
"74","0EwA9ugv","uncued",317,5942339,"phon_sim-task_switching-rhyme-same_different",6895,"task_switching","experiment",62,65,1,"add",NA,24,NA,"No","I do my calculation",2.42,3.8,"low_verbal",65,59,121,137.600899999976,"add",1,1,1
"75","0EwA9ugv","uncued",322,5982928,"phon_sim-task_switching-rhyme-same_different",5389.10000002384,"task_switching","experiment",86,83,1,"subtract",NA,29,NA,"No","I do my calculation",2.42,3.8,"low_verbal",89,83,124,137.600899999976,"subtract",1,1,0
"76","0X9nY8Ym","uncued",182,437044,"task_switching-phon_sim-same_different-rhyme",3642.69999992847,"task_switching","experiment",86,89,1,"add",NA,0,NA,"No","I just added and subtracted and took my time when having to switch back and forth from adding and subtracting.",2.58,3.8,"low_verbal",89,83,91,73.9006999999285,"add",1,1,1
"77","0X9nY8Ym","uncued",183,441800,"task_switching-phon_sim-same_different-rhyme",4754.39999997616,"task_switching","experiment",21,18,1,"subtract",NA,1,NA,"No","I just added and subtracted and took my time when having to switch back and forth from adding and subtracting.",2.58,3.8,"low_verbal",24,18,92,73.9006999999285,"subtract",1,1,1
"78","0X9nY8Ym","uncued",184,443150,"task_switching-phon_sim-same_different-rhyme",1348.10000002384,"task_switching","experiment",30,33,1,"add",NA,2,NA,"No","I just added and subtracted and took my time when having to switch back and forth from adding and subtracting.",2.58,3.8,"low_verbal",33,27,93,73.9006999999285,"add",1,1,1
"79","0X9nY8Ym","uncued",185,445890,"task_switching-phon_sim-same_different-rhyme",2738.89999997616,"task_switching","experiment",95,92,1,"subtract",NA,3,NA,"No","I just added and subtracted and took my time when having to switch back and forth from adding and subtracting.",2.58,3.8,"low_verbal",98,92,94,73.9006999999285,"subtract",1,1,1
"80","0X9nY8Ym","uncued",186,448147,"task_switching-phon_sim-same_different-rhyme",2255.29999995232,"task_switching","experiment",32,35,1,"add",NA,4,NA,"No","I just added and subtracted and took my time when having to switch back and forth from adding and subtracting.",2.58,3.8,"low_verbal",35,29,95,73.9006999999285,"add",1,1,1
"81","0X9nY8Ym","uncued",187,449691,"task_switching-phon_sim-same_different-rhyme",1543,"task_switching","experiment",73,70,1,"subtract",NA,5,NA,"No","I just added and subtracted and took my time when having to switch back and forth from adding and subtracting.",2.58,3.8,"low_verbal",76,70,96,73.9006999999285,"subtract",1,1,1
"82","0X9nY8Ym","uncued",188,451428,"task_switching-phon_sim-same_different-rhyme",1735.10000002384,"task_switching","experiment",76,79,1,"add",NA,6,NA,"No","I just added and subtracted and took my time when having to switch back and forth from adding and subtracting.",2.58,3.8,"low_verbal",79,73,97,73.9006999999285,"add",1,1,1
"83","0X9nY8Ym","uncued",189,453350,"task_switching-phon_sim-same_different-rhyme",1919.90000009537,"task_switching","experiment",69,66,1,"subtract",NA,7,NA,"No","I just added and subtracted and took my time when having to switch back and forth from adding and subtracting.",2.58,3.8,"low_verbal",72,66,98,73.9006999999285,"subtract",1,1,1
"84","0X9nY8Ym","uncued",190,456604,"task_switching-phon_sim-same_different-rhyme",3251.79999995232,"task_switching","experiment",17,20,1,"add",NA,8,NA,"No","I just added and subtracted and took my time when having to switch back and forth from adding and subtracting.",2.58,3.8,"low_verbal",20,14,99,73.9006999999285,"add",1,1,1
"85","0X9nY8Ym","uncued",191,458311,"task_switching-phon_sim-same_different-rhyme",1705.79999995232,"task_switching","experiment",88,85,1,"subtract",NA,9,NA,"No","I just added and subtracted and took my time when having to switch back and forth from adding and subtracting.",2.58,3.8,"low_verbal",91,85,100,73.9006999999285,"subtract",1,1,1
"86","0X9nY8Ym","uncued",192,460310,"task_switching-phon_sim-same_different-rhyme",1997.10000002384,"task_switching","experiment",37,40,1,"add",NA,10,NA,"No","I just added and subtracted and took my time when having to switch back and forth from adding and subtracting.",2.58,3.8,"low_verbal",40,34,101,73.9006999999285,"add",1,1,1
"87","0X9nY8Ym","uncued",193,464721,"task_switching-phon_sim-same_different-rhyme",4409.79999995232,"task_switching","experiment",91,88,1,"subtract",NA,11,NA,"No","I just added and subtracted and took my time when having to switch back and forth from adding and subtracting.",2.58,3.8,"low_verbal",94,88,102,73.9006999999285,"subtract",1,1,1
"88","0X9nY8Ym","uncued",194,467134,"task_switching-phon_sim-same_different-rhyme",2411.30000007153,"task_switching","experiment",46,49,1,"add",NA,12,NA,"No","I just added and subtracted and took my time when having to switch back and forth from adding and subtracting.",2.58,3.8,"low_verbal",49,43,103,73.9006999999285,"add",1,1,1
"89","0X9nY8Ym","uncued",195,469442,"task_switching-phon_sim-same_different-rhyme",2306.20000004768,"task_switching","experiment",20,17,1,"subtract",NA,13,NA,"No","I just added and subtracted and took my time when having to switch back and forth from adding and subtracting.",2.58,3.8,"low_verbal",23,17,104,73.9006999999285,"subtract",1,1,1
"90","0X9nY8Ym","uncued",196,471717,"task_switching-phon_sim-same_different-rhyme",2273.60000002384,"task_switching","experiment",81,84,1,"add",NA,14,NA,"No","I just added and subtracted and took my time when having to switch back and forth from adding and subtracting.",2.58,3.8,"low_verbal",84,78,105,73.9006999999285,"add",1,1,1
"91","0X9nY8Ym","uncued",197,476061,"task_switching-phon_sim-same_different-rhyme",4342.69999992847,"task_switching","experiment",67,64,1,"subtract",NA,15,NA,"No","I just added and subtracted and took my time when having to switch back and forth from adding and subtracting.",2.58,3.8,"low_verbal",70,64,106,73.9006999999285,"subtract",1,1,1
"92","0X9nY8Ym","uncued",198,477675,"task_switching-phon_sim-same_different-rhyme",1612.89999997616,"task_switching","experiment",70,73,1,"add",NA,16,NA,"No","I just added and subtracted and took my time when having to switch back and forth from adding and subtracting.",2.58,3.8,"low_verbal",73,67,107,73.9006999999285,"add",1,1,1
"93","0X9nY8Ym","uncued",199,479901,"task_switching-phon_sim-same_different-rhyme",2223.89999997616,"task_switching","experiment",54,51,1,"subtract",NA,17,NA,"No","I just added and subtracted and took my time when having to switch back and forth from adding and subtracting.",2.58,3.8,"low_verbal",57,51,108,73.9006999999285,"subtract",1,1,1
"94","0X9nY8Ym","uncued",200,481497,"task_switching-phon_sim-same_different-rhyme",1594.89999997616,"task_switching","experiment",40,43,1,"add",NA,18,NA,"No","I just added and subtracted and took my time when having to switch back and forth from adding and subtracting.",2.58,3.8,"low_verbal",43,37,109,73.9006999999285,"add",1,1,1
"95","0X9nY8Ym","uncued",201,483243,"task_switching-phon_sim-same_different-rhyme",1744.39999997616,"task_switching","experiment",19,16,1,"subtract",NA,19,NA,"No","I just added and subtracted and took my time when having to switch back and forth from adding and subtracting.",2.58,3.8,"low_verbal",22,16,110,73.9006999999285,"subtract",1,1,1
"96","0X9nY8Ym","uncued",202,484767,"task_switching-phon_sim-same_different-rhyme",1521.40000009537,"task_switching","experiment",13,16,1,"add",NA,20,NA,"No","I just added and subtracted and took my time when having to switch back and forth from adding and subtracting.",2.58,3.8,"low_verbal",16,10,111,73.9006999999285,"add",1,1,1
"97","0X9nY8Ym","uncued",203,486496,"task_switching-phon_sim-same_different-rhyme",1727.20000004768,"task_switching","experiment",24,21,1,"subtract",NA,21,NA,"No","I just added and subtracted and took my time when having to switch back and forth from adding and subtracting.",2.58,3.8,"low_verbal",27,21,112,73.9006999999285,"subtract",1,1,1
"98","0X9nY8Ym","uncued",204,488506,"task_switching-phon_sim-same_different-rhyme",2008.10000002384,"task_switching","experiment",26,29,1,"add",NA,22,NA,"No","I just added and subtracted and took my time when having to switch back and forth from adding and subtracting.",2.58,3.8,"low_verbal",29,23,113,73.9006999999285,"add",1,1,1
"99","0X9nY8Ym","uncued",205,491143,"task_switching-phon_sim-same_different-rhyme",2635.79999995232,"task_switching","experiment",47,44,1,"subtract",NA,23,NA,"No","I just added and subtracted and took my time when having to switch back and forth from adding and subtracting.",2.58,3.8,"low_verbal",50,44,114,73.9006999999285,"subtract",1,1,1
"100","0X9nY8Ym","uncued",206,493493,"task_switching-phon_sim-same_different-rhyme",2348,"task_switching","experiment",27,30,1,"add",NA,24,NA,"No","I just added and subtracted and took my time when having to switch back and forth from adding and subtracting.",2.58,3.8,"low_verbal",30,24,115,73.9006999999285,"add",1,1,1
"101","0X9nY8Ym","uncued",207,497157,"task_switching-phon_sim-same_different-rhyme",3662.79999995232,"task_switching","experiment",22,19,1,"subtract",NA,25,NA,"No","I just added and subtracted and took my time when having to switch back and forth from adding and subtracting.",2.58,3.8,"low_verbal",25,19,116,73.9006999999285,"subtract",1,1,1
"102","0X9nY8Ym","uncued",208,500029,"task_switching-phon_sim-same_different-rhyme",2870.29999995232,"task_switching","experiment",71,74,1,"add",NA,26,NA,"No","I just added and subtracted and took my time when having to switch back and forth from adding and subtracting.",2.58,3.8,"low_verbal",74,68,117,73.9006999999285,"add",1,1,1
"103","0X9nY8Ym","uncued",209,502659,"task_switching-phon_sim-same_different-rhyme",2626.89999997616,"task_switching","experiment",92,89,1,"subtract",NA,27,NA,"No","I just added and subtracted and took my time when having to switch back and forth from adding and subtracting.",2.58,3.8,"low_verbal",95,89,118,73.9006999999285,"subtract",1,1,1
"104","0X9nY8Ym","uncued",210,504422,"task_switching-phon_sim-same_different-rhyme",1760.80000007153,"task_switching","experiment",57,60,1,"add",NA,28,NA,"No","I just added and subtracted and took my time when having to switch back and forth from adding and subtracting.",2.58,3.8,"low_verbal",60,54,119,73.9006999999285,"add",1,1,1
"105","0X9nY8Ym","uncued",211,507351,"task_switching-phon_sim-same_different-rhyme",2927.60000002384,"task_switching","experiment",41,38,1,"subtract",NA,29,NA,"No","I just added and subtracted and took my time when having to switch back and forth from adding and subtracting.",2.58,3.8,"low_verbal",44,38,120,73.9006999999285,"subtract",1,1,1
"106","1hM1LUCj","uncued",1196,2518660,"same_different-rhyme-phon_sim-task_switching",5849.99999999953,"task_switching","experiment",36,39,1,"add",NA,0,NA,"No","no_answer",2.83333333333333,3.1,"low_verbal",39,33,61,81.0150000000005,"add",1,1,1
"107","1hM1LUCj","uncued",1197,2521978,"same_different-rhyme-phon_sim-task_switching",3312,"task_switching","experiment",77,74,1,"subtract",NA,1,NA,"No","no_answer",2.83333333333333,3.1,"low_verbal",80,74,62,81.0150000000005,"subtract",1,1,1
"108","1hM1LUCj","uncued",1198,2529291,"same_different-rhyme-phon_sim-task_switching",7308,"task_switching","experiment",94,97,1,"add",NA,2,NA,"No","no_answer",2.83333333333333,3.1,"low_verbal",97,91,63,81.0150000000005,"add",1,1,1
"109","1hM1LUCj","uncued",1199,2531276,"same_different-rhyme-phon_sim-task_switching",1980,"task_switching","experiment",73,70,1,"subtract",NA,3,NA,"No","no_answer",2.83333333333333,3.1,"low_verbal",76,70,64,81.0150000000005,"subtract",1,1,1
"110","1hM1LUCj","uncued",1200,2532964,"same_different-rhyme-phon_sim-task_switching",1684.00000000047,"task_switching","experiment",23,26,1,"add",NA,4,NA,"No","no_answer",2.83333333333333,3.1,"low_verbal",26,20,65,81.0150000000005,"add",1,1,1
"111","1hM1LUCj","uncued",1201,2535302,"same_different-rhyme-phon_sim-task_switching",2333,"task_switching","experiment",72,69,1,"subtract",NA,5,NA,"No","no_answer",2.83333333333333,3.1,"low_verbal",75,69,66,81.0150000000005,"subtract",1,1,1
"112","1hM1LUCj","uncued",1202,2537678,"same_different-rhyme-phon_sim-task_switching",2370,"task_switching","experiment",65,68,1,"add",NA,6,NA,"No","no_answer",2.83333333333333,3.1,"low_verbal",68,62,67,81.0150000000005,"add",1,1,1
"113","1hM1LUCj","uncued",1203,2539630,"same_different-rhyme-phon_sim-task_switching",1947,"task_switching","experiment",15,12,1,"subtract",NA,7,NA,"No","no_answer",2.83333333333333,3.1,"low_verbal",18,12,68,81.0150000000005,"subtract",1,1,1
"114","1hM1LUCj","uncued",1204,2541891,"same_different-rhyme-phon_sim-task_switching",2257,"task_switching","experiment",17,20,1,"add",NA,8,NA,"No","no_answer",2.83333333333333,3.1,"low_verbal",20,14,69,81.0150000000005,"add",1,1,1
"115","1hM1LUCj","uncued",1205,2544491,"same_different-rhyme-phon_sim-task_switching",2595.00000000047,"task_switching","experiment",69,66,1,"subtract",NA,9,NA,"No","no_answer",2.83333333333333,3.1,"low_verbal",72,66,70,81.0150000000005,"subtract",1,1,1
"116","1hM1LUCj","uncued",1206,2546597,"same_different-rhyme-phon_sim-task_switching",2101,"task_switching","experiment",67,70,1,"add",NA,10,NA,"No","no_answer",2.83333333333333,3.1,"low_verbal",70,64,71,81.0150000000005,"add",1,1,1
"117","1hM1LUCj","uncued",1207,2549988,"same_different-rhyme-phon_sim-task_switching",3387,"task_switching","experiment",90,87,1,"subtract",NA,11,NA,"No","no_answer",2.83333333333333,3.1,"low_verbal",93,87,72,81.0150000000005,"subtract",1,1,1
"118","1hM1LUCj","uncued",1208,2552264,"same_different-rhyme-phon_sim-task_switching",2271,"task_switching","experiment",21,24,1,"add",NA,12,NA,"No","no_answer",2.83333333333333,3.1,"low_verbal",24,18,73,81.0150000000005,"add",1,1,1
"119","1hM1LUCj","uncued",1209,2554548,"same_different-rhyme-phon_sim-task_switching",2280,"task_switching","experiment",30,27,1,"subtract",NA,13,NA,"No","no_answer",2.83333333333333,3.1,"low_verbal",33,27,74,81.0150000000005,"subtract",1,1,1
"120","1hM1LUCj","uncued",1210,2557155,"same_different-rhyme-phon_sim-task_switching",2601,"task_switching","experiment",87,91,0,"add",NA,14,NA,"No","no_answer",2.83333333333333,3.1,"low_verbal",90,84,75,81.0150000000005,"add",1,0,0
"121","1hM1LUCj","uncued",1211,2560258,"same_different-rhyme-phon_sim-task_switching",3098,"task_switching","experiment",88,85,1,"subtract",NA,15,NA,"No","no_answer",2.83333333333333,3.1,"low_verbal",91,85,76,81.0150000000005,"subtract",1,1,1
"122","1hM1LUCj","uncued",1212,2563404,"same_different-rhyme-phon_sim-task_switching",3141,"task_switching","experiment",64,67,1,"add",NA,16,NA,"No","no_answer",2.83333333333333,3.1,"low_verbal",67,61,77,81.0150000000005,"add",1,1,1
"123","1hM1LUCj","uncued",1213,2566337,"same_different-rhyme-phon_sim-task_switching",2927,"task_switching","experiment",76,73,1,"subtract",NA,17,NA,"No","no_answer",2.83333333333333,3.1,"low_verbal",79,73,78,81.0150000000005,"subtract",1,1,1
"124","1hM1LUCj","uncued",1214,2570066,"same_different-rhyme-phon_sim-task_switching",3724,"task_switching","experiment",37,40,1,"add",NA,18,NA,"No","no_answer",2.83333333333333,3.1,"low_verbal",40,34,79,81.0150000000005,"add",1,1,1
"125","1hM1LUCj","uncued",1215,2572188,"same_different-rhyme-phon_sim-task_switching",2115,"task_switching","experiment",39,36,1,"subtract",NA,19,NA,"No","no_answer",2.83333333333333,3.1,"low_verbal",42,36,80,81.0150000000005,"subtract",1,1,1
"126","1hM1LUCj","uncued",1216,2574056,"same_different-rhyme-phon_sim-task_switching",1864,"task_switching","experiment",22,25,1,"add",NA,20,NA,"No","no_answer",2.83333333333333,3.1,"low_verbal",25,19,81,81.0150000000005,"add",1,1,1
"127","1hM1LUCj","uncued",1217,2575856,"same_different-rhyme-phon_sim-task_switching",1794,"task_switching","experiment",66,63,1,"subtract",NA,21,NA,"No","no_answer",2.83333333333333,3.1,"low_verbal",69,63,82,81.0150000000005,"subtract",1,1,1
"128","1hM1LUCj","uncued",1218,2577899,"same_different-rhyme-phon_sim-task_switching",2037,"task_switching","experiment",75,78,1,"add",NA,22,NA,"No","no_answer",2.83333333333333,3.1,"low_verbal",78,72,83,81.0150000000005,"add",1,1,1
"129","1hM1LUCj","uncued",1219,2579393,"same_different-rhyme-phon_sim-task_switching",1489,"task_switching","experiment",33,30,1,"subtract",NA,23,NA,"No","no_answer",2.83333333333333,3.1,"low_verbal",36,30,84,81.0150000000005,"subtract",1,1,1
"130","1hM1LUCj","uncued",1220,2580807,"same_different-rhyme-phon_sim-task_switching",1410,"task_switching","experiment",82,85,1,"add",NA,24,NA,"No","no_answer",2.83333333333333,3.1,"low_verbal",85,79,85,81.0150000000005,"add",1,1,1
"131","1hM1LUCj","uncued",1221,2583373,"same_different-rhyme-phon_sim-task_switching",2561,"task_switching","experiment",70,67,1,"subtract",NA,25,NA,"No","no_answer",2.83333333333333,3.1,"low_verbal",73,67,86,81.0150000000005,"subtract",1,1,1
"132","1hM1LUCj","uncued",1222,2585133,"same_different-rhyme-phon_sim-task_switching",1754,"task_switching","experiment",61,64,1,"add",NA,26,NA,"No","no_answer",2.83333333333333,3.1,"low_verbal",64,58,87,81.0150000000005,"add",1,1,1
"133","1hM1LUCj","uncued",1223,2587587,"same_different-rhyme-phon_sim-task_switching",2449,"task_switching","experiment",52,49,1,"subtract",NA,27,NA,"No","no_answer",2.83333333333333,3.1,"low_verbal",55,49,88,81.0150000000005,"subtract",1,1,1
"134","1hM1LUCj","uncued",1224,2590873,"same_different-rhyme-phon_sim-task_switching",3280,"task_switching","experiment",31,34,1,"add",NA,28,NA,"No","no_answer",2.83333333333333,3.1,"low_verbal",34,28,89,81.0150000000005,"add",1,1,1
"135","1hM1LUCj","uncued",1225,2593973,"same_different-rhyme-phon_sim-task_switching",3096,"task_switching","experiment",81,78,1,"subtract",NA,29,NA,"No","no_answer",2.83333333333333,3.1,"low_verbal",84,78,90,81.0150000000005,"subtract",1,1,1
"136","26Z3U4Qu","uncued",386,1393863,"phon_sim-rhyme-task_switching-same_different",2516.79999995232,"task_switching","experiment",76,79,1,"add",NA,0,NA,"No","no",4.166667,4.2,"high_verbal",79,73,61,90.0448000000715,"add",1,1,1
"137","26Z3U4Qu","uncued",387,1396911,"phon_sim-rhyme-task_switching-same_different",3046.60000002384,"task_switching","experiment",60,57,1,"subtract",NA,1,NA,"No","no",4.166667,4.2,"high_verbal",63,57,62,90.0448000000715,"subtract",1,1,1
"138","26Z3U4Qu","uncued",388,1400111,"phon_sim-rhyme-task_switching-same_different",3198.80000007153,"task_switching","experiment",65,68,1,"add",NA,2,NA,"No","no",4.166667,4.2,"high_verbal",68,62,63,90.0448000000715,"add",1,1,1
"139","26Z3U4Qu","uncued",389,1402991,"phon_sim-rhyme-task_switching-same_different",2879.10000002384,"task_switching","experiment",37,34,1,"subtract",NA,3,NA,"No","no",4.166667,4.2,"high_verbal",40,34,64,90.0448000000715,"subtract",1,1,1
"140","26Z3U4Qu","uncued",390,1405247,"phon_sim-rhyme-task_switching-same_different",2254.59999990463,"task_switching","experiment",17,20,1,"add",NA,4,NA,"No","no",4.166667,4.2,"high_verbal",20,14,65,90.0448000000715,"add",1,1,1
"141","26Z3U4Qu","uncued",391,1407655,"phon_sim-rhyme-task_switching-same_different",2406.29999995232,"task_switching","experiment",48,45,1,"subtract",NA,5,NA,"No","no",4.166667,4.2,"high_verbal",51,45,66,90.0448000000715,"subtract",1,1,1
"142","26Z3U4Qu","uncued",392,1409303,"phon_sim-rhyme-task_switching-same_different",1646.60000002384,"task_switching","experiment",46,49,1,"add",NA,6,NA,"No","no",4.166667,4.2,"high_verbal",49,43,67,90.0448000000715,"add",1,1,1
"143","26Z3U4Qu","uncued",393,1413015,"phon_sim-rhyme-task_switching-same_different",3711.59999990463,"task_switching","experiment",68,65,1,"subtract",NA,7,NA,"No","no",4.166667,4.2,"high_verbal",71,65,68,90.0448000000715,"subtract",1,1,1
"144","26Z3U4Qu","uncued",394,1418631,"phon_sim-rhyme-task_switching-same_different",5613.80000007153,"task_switching","experiment",22,19,0,"add",NA,8,NA,"No","no",4.166667,4.2,"high_verbal",25,19,69,90.0448000000715,"subtract",0,1,0
"145","26Z3U4Qu","uncued",395,1424119,"phon_sim-rhyme-task_switching-same_different",5486.5,"task_switching","experiment",31,34,0,"subtract",NA,9,NA,"No","no",4.166667,4.2,"high_verbal",34,28,70,90.0448000000715,"add",0,1,1
"146","26Z3U4Qu","uncued",396,1427943,"phon_sim-rhyme-task_switching-same_different",3822.59999990463,"task_switching","experiment",57,54,0,"add",NA,10,NA,"No","no",4.166667,4.2,"high_verbal",60,54,71,90.0448000000715,"subtract",0,1,1
"147","26Z3U4Qu","uncued",397,1430799,"phon_sim-rhyme-task_switching-same_different",2854.29999995232,"task_switching","experiment",51,54,0,"subtract",NA,11,NA,"No","no",4.166667,4.2,"high_verbal",54,48,72,90.0448000000715,"add",0,1,1
"148","26Z3U4Qu","uncued",398,1433039,"phon_sim-rhyme-task_switching-same_different",2238.70000004768,"task_switching","experiment",95,92,0,"add",NA,12,NA,"No","no",4.166667,4.2,"high_verbal",98,92,73,90.0448000000715,"subtract",0,1,1
"149","26Z3U4Qu","uncued",399,1435871,"phon_sim-rhyme-task_switching-same_different",2830.70000004768,"task_switching","experiment",23,26,0,"subtract",NA,13,NA,"No","no",4.166667,4.2,"high_verbal",26,20,74,90.0448000000715,"add",0,1,1
"150","26Z3U4Qu","uncued",400,1437695,"phon_sim-rhyme-task_switching-same_different",1822.89999997616,"task_switching","experiment",16,13,0,"add",NA,14,NA,"No","no",4.166667,4.2,"high_verbal",19,13,75,90.0448000000715,"subtract",0,1,1
"151","26Z3U4Qu","uncued",401,1440575,"phon_sim-rhyme-task_switching-same_different",2878.5,"task_switching","experiment",64,67,0,"subtract",NA,15,NA,"No","no",4.166667,4.2,"high_verbal",67,61,76,90.0448000000715,"add",0,1,1
"152","26Z3U4Qu","uncued",402,1442703,"phon_sim-rhyme-task_switching-same_different",2126.5,"task_switching","experiment",40,37,0,"add",NA,16,NA,"No","no",4.166667,4.2,"high_verbal",43,37,77,90.0448000000715,"subtract",0,1,1
"153","26Z3U4Qu","uncued",403,1445487,"phon_sim-rhyme-task_switching-same_different",2782.30000007153,"task_switching","experiment",59,62,0,"subtract",NA,17,NA,"No","no",4.166667,4.2,"high_verbal",62,56,78,90.0448000000715,"add",0,1,1
"154","26Z3U4Qu","uncued",404,1447975,"phon_sim-rhyme-task_switching-same_different",2487.10000002384,"task_switching","experiment",41,38,0,"add",NA,18,NA,"No","no",4.166667,4.2,"high_verbal",44,38,79,90.0448000000715,"subtract",0,1,1
"155","26Z3U4Qu","uncued",405,1450863,"phon_sim-rhyme-task_switching-same_different",2886.29999995232,"task_switching","experiment",71,74,0,"subtract",NA,19,NA,"No","no",4.166667,4.2,"high_verbal",74,68,80,90.0448000000715,"add",0,1,1
"156","26Z3U4Qu","uncued",406,1453479,"phon_sim-rhyme-task_switching-same_different",2614.70000004768,"task_switching","experiment",73,70,0,"add",NA,20,NA,"No","no",4.166667,4.2,"high_verbal",76,70,81,90.0448000000715,"subtract",0,1,1
"157","26Z3U4Qu","uncued",407,1456287,"phon_sim-rhyme-task_switching-same_different",2807.10000002384,"task_switching","experiment",52,55,0,"subtract",NA,21,NA,"No","no",4.166667,4.2,"high_verbal",55,49,82,90.0448000000715,"add",0,1,1
"158","26Z3U4Qu","uncued",408,1458607,"phon_sim-rhyme-task_switching-same_different",2318.20000004768,"task_switching","experiment",30,27,0,"add",NA,22,NA,"No","no",4.166667,4.2,"high_verbal",33,27,83,90.0448000000715,"subtract",0,1,1
"159","26Z3U4Qu","uncued",409,1462767,"phon_sim-rhyme-task_switching-same_different",4158.60000002384,"task_switching","experiment",74,77,0,"subtract",NA,23,NA,"No","no",4.166667,4.2,"high_verbal",77,71,84,90.0448000000715,"add",0,1,1
"160","26Z3U4Qu","uncued",410,1465560,"phon_sim-rhyme-task_switching-same_different",2791.60000002384,"task_switching","experiment",91,88,0,"add",NA,24,NA,"No","no",4.166667,4.2,"high_verbal",94,88,85,90.0448000000715,"subtract",0,1,1
"161","26Z3U4Qu","uncued",411,1469487,"phon_sim-rhyme-task_switching-same_different",3925.5,"task_switching","experiment",58,61,0,"subtract",NA,25,NA,"No","no",4.166667,4.2,"high_verbal",61,55,86,90.0448000000715,"add",0,1,1
"162","26Z3U4Qu","uncued",412,1474127,"phon_sim-rhyme-task_switching-same_different",4638.80000007153,"task_switching","experiment",21,18,0,"add",NA,26,NA,"No","no",4.166667,4.2,"high_verbal",24,18,87,90.0448000000715,"subtract",0,1,1
"163","26Z3U4Qu","uncued",413,1475799,"phon_sim-rhyme-task_switching-same_different",1670.59999990463,"task_switching","experiment",83,86,0,"subtract",NA,27,NA,"No","no",4.166667,4.2,"high_verbal",86,80,88,90.0448000000715,"add",0,1,1
"164","26Z3U4Qu","uncued",414,1478999,"phon_sim-rhyme-task_switching-same_different",3198.29999995232,"task_switching","experiment",53,50,0,"add",NA,28,NA,"No","no",4.166667,4.2,"high_verbal",56,50,89,90.0448000000715,"subtract",0,1,1
"165","26Z3U4Qu","uncued",415,1481431,"phon_sim-rhyme-task_switching-same_different",2430.80000007153,"task_switching","experiment",26,29,0,"subtract",NA,29,NA,"No","no",4.166667,4.2,"high_verbal",29,23,90,90.0448000000715,"add",0,1,1
"166","2dXRa5Zq","uncued",1196,42370803,"same_different-phon_sim-rhyme-task_switching",3127.09999996424,"task_switching","experiment",65,68,1,"add",NA,0,NA,"Yes","no_answer",3.08333333333333,3.3,"low_verbal",68,62,61,117.556700000107,"add",1,1,1
"167","2dXRa5Zq","uncued",1197,42373584,"same_different-phon_sim-rhyme-task_switching",2777,"task_switching","experiment",29,26,1,"subtract",NA,1,NA,"Yes","no_answer",3.08333333333333,3.3,"low_verbal",32,26,62,117.556700000107,"subtract",1,1,1
"168","2dXRa5Zq","uncued",1198,42380693,"same_different-phon_sim-rhyme-task_switching",7105.19999998808,"task_switching","experiment",41,38,0,"add",NA,2,NA,"Yes","no_answer",3.08333333333333,3.3,"low_verbal",44,38,63,117.556700000107,"subtract",0,1,0
"169","2dXRa5Zq","uncued",1199,42386569,"same_different-phon_sim-rhyme-task_switching",5871.60000002384,"task_switching","experiment",88,91,0,"subtract",NA,3,NA,"Yes","no_answer",3.08333333333333,3.3,"low_verbal",91,85,64,117.556700000107,"add",0,1,1
"170","2dXRa5Zq","uncued",1200,42392038,"same_different-phon_sim-rhyme-task_switching",5464.29999995232,"task_switching","experiment",79,76,0,"add",NA,4,NA,"Yes","no_answer",3.08333333333333,3.3,"low_verbal",82,76,65,117.556700000107,"subtract",0,1,1
"171","2dXRa5Zq","uncued",1201,42394925,"same_different-phon_sim-rhyme-task_switching",2882,"task_switching","experiment",71,74,0,"subtract",NA,5,NA,"Yes","no_answer",3.08333333333333,3.3,"low_verbal",74,68,66,117.556700000107,"add",0,1,1
"172","2dXRa5Zq","uncued",1202,42398937,"same_different-phon_sim-rhyme-task_switching",4008.20000004768,"task_switching","experiment",61,58,0,"add",NA,6,NA,"Yes","no_answer",3.08333333333333,3.3,"low_verbal",64,58,67,117.556700000107,"subtract",0,1,1
"173","2dXRa5Zq","uncued",1203,42402028,"same_different-phon_sim-rhyme-task_switching",3084.60000002384,"task_switching","experiment",54,57,0,"subtract",NA,7,NA,"Yes","no_answer",3.08333333333333,3.3,"low_verbal",57,51,68,117.556700000107,"add",0,1,1
"174","2dXRa5Zq","uncued",1204,42405727,"same_different-phon_sim-rhyme-task_switching",3695,"task_switching","experiment",72,69,0,"add",NA,8,NA,"Yes","no_answer",3.08333333333333,3.3,"low_verbal",75,69,69,117.556700000107,"subtract",0,1,1
"175","2dXRa5Zq","uncued",1205,42410801,"same_different-phon_sim-rhyme-task_switching",5069.80000001192,"task_switching","experiment",28,31,0,"subtract",NA,9,NA,"Yes","no_answer",3.08333333333333,3.3,"low_verbal",31,25,70,117.556700000107,"add",0,1,1
"176","2dXRa5Zq","uncued",1206,42415809,"same_different-phon_sim-rhyme-task_switching",5002.69999998808,"task_switching","experiment",55,52,0,"add",NA,10,NA,"Yes","no_answer",3.08333333333333,3.3,"low_verbal",58,52,71,117.556700000107,"subtract",0,1,1
"177","2dXRa5Zq","uncued",1207,42419872,"same_different-phon_sim-rhyme-task_switching",4058,"task_switching","experiment",67,70,0,"subtract",NA,11,NA,"Yes","no_answer",3.08333333333333,3.3,"low_verbal",70,64,72,117.556700000107,"add",0,1,1
"178","2dXRa5Zq","uncued",1208,42424097,"same_different-phon_sim-rhyme-task_switching",4221,"task_switching","experiment",36,33,0,"add",NA,12,NA,"Yes","no_answer",3.08333333333333,3.3,"low_verbal",39,33,73,117.556700000107,"subtract",0,1,1
"179","2dXRa5Zq","uncued",1209,42426700,"same_different-phon_sim-rhyme-task_switching",2598,"task_switching","experiment",53,56,0,"subtract",NA,13,NA,"Yes","no_answer",3.08333333333333,3.3,"low_verbal",56,50,74,117.556700000107,"add",0,1,1
"180","2dXRa5Zq","uncued",1210,42432083,"same_different-phon_sim-rhyme-task_switching",5378.60000002384,"task_switching","experiment",70,67,0,"add",NA,14,NA,"Yes","no_answer",3.08333333333333,3.3,"low_verbal",73,67,75,117.556700000107,"subtract",0,1,1
"181","2dXRa5Zq","uncued",1211,42435133,"same_different-phon_sim-rhyme-task_switching",3044.60000002384,"task_switching","experiment",69,72,0,"subtract",NA,15,NA,"Yes","no_answer",3.08333333333333,3.3,"low_verbal",72,66,76,117.556700000107,"add",0,1,1
"182","2dXRa5Zq","uncued",1212,42440451,"same_different-phon_sim-rhyme-task_switching",5313.5,"task_switching","experiment",51,58,0,"add",NA,16,NA,"Yes","no_answer",3.08333333333333,3.3,"low_verbal",54,48,77,117.556700000107,"add",1,0,0
"183","2dXRa5Zq","uncued",1213,42443771,"same_different-phon_sim-rhyme-task_switching",3315.69999998808,"task_switching","experiment",24,27,0,"subtract",NA,17,NA,"Yes","no_answer",3.08333333333333,3.3,"low_verbal",27,21,78,117.556700000107,"add",0,1,0
"184","2dXRa5Zq","uncued",1214,42451002,"same_different-phon_sim-rhyme-task_switching",7226.20000004768,"task_switching","experiment",17,14,0,"add",NA,18,NA,"Yes","no_answer",3.08333333333333,3.3,"low_verbal",20,14,79,117.556700000107,"subtract",0,1,1
"185","2dXRa5Zq","uncued",1215,42455894,"same_different-phon_sim-rhyme-task_switching",4887.19999998808,"task_switching","experiment",81,84,0,"subtract",NA,19,NA,"Yes","no_answer",3.08333333333333,3.3,"low_verbal",84,78,80,117.556700000107,"add",0,1,1
"186","2dXRa5Zq","uncued",1216,42458951,"same_different-phon_sim-rhyme-task_switching",3051.59999996424,"task_switching","experiment",62,59,0,"add",NA,20,NA,"Yes","no_answer",3.08333333333333,3.3,"low_verbal",65,59,81,117.556700000107,"subtract",0,1,1
"187","2dXRa5Zq","uncued",1217,42462454,"same_different-phon_sim-rhyme-task_switching",3498.19999998808,"task_switching","experiment",46,49,0,"subtract",NA,21,NA,"Yes","no_answer",3.08333333333333,3.3,"low_verbal",49,43,82,117.556700000107,"add",0,1,1
"188","2dXRa5Zq","uncued",1218,42466116,"same_different-phon_sim-rhyme-task_switching",3657.40000003576,"task_switching","experiment",78,75,0,"add",NA,22,NA,"Yes","no_answer",3.08333333333333,3.3,"low_verbal",81,75,83,117.556700000107,"subtract",0,1,1
"189","2dXRa5Zq","uncued",1219,42468442,"same_different-phon_sim-rhyme-task_switching",2321.69999998808,"task_switching","experiment",50,53,0,"subtract",NA,23,NA,"Yes","no_answer",3.08333333333333,3.3,"low_verbal",53,47,84,117.556700000107,"add",0,1,1
"190","2dXRa5Zq","uncued",1220,42471458,"same_different-phon_sim-rhyme-task_switching",3011.5,"task_switching","experiment",37,34,0,"add",NA,24,NA,"Yes","no_answer",3.08333333333333,3.3,"low_verbal",40,34,85,117.556700000107,"subtract",0,1,1
"191","2dXRa5Zq","uncued",1221,42473947,"same_different-phon_sim-rhyme-task_switching",2485,"task_switching","experiment",60,63,0,"subtract",NA,25,NA,"Yes","no_answer",3.08333333333333,3.3,"low_verbal",63,57,86,117.556700000107,"add",0,1,1
"192","2dXRa5Zq","uncued",1222,42478163,"same_different-phon_sim-rhyme-task_switching",4211.19999998808,"task_switching","experiment",82,79,0,"add",NA,26,NA,"Yes","no_answer",3.08333333333333,3.3,"low_verbal",85,79,87,117.556700000107,"subtract",0,1,1
"193","2dXRa5Zq","uncued",1223,42480616,"same_different-phon_sim-rhyme-task_switching",2449.20000004768,"task_switching","experiment",42,45,0,"subtract",NA,27,NA,"Yes","no_answer",3.08333333333333,3.3,"low_verbal",45,39,88,117.556700000107,"add",0,1,1
"194","2dXRa5Zq","uncued",1224,42483633,"same_different-phon_sim-rhyme-task_switching",3012.80000001192,"task_switching","experiment",22,19,0,"add",NA,28,NA,"Yes","no_answer",3.08333333333333,3.3,"low_verbal",25,19,89,117.556700000107,"subtract",0,1,1
"195","2dXRa5Zq","uncued",1225,42485365,"same_different-phon_sim-rhyme-task_switching",1727.80000001192,"task_switching","experiment",30,33,0,"subtract",NA,29,NA,"Yes","no_answer",3.08333333333333,3.3,"low_verbal",33,27,90,117.556700000107,"add",0,1,1
"196","2Ie4vXKm","uncued",1196,1798883,"rhyme-same_different-phon_sim-task_switching",1276.90000000596,"task_switching","experiment",44,47,1,"add",NA,0,NA,"Yes","No",4.67,4.4,"high_verbal",47,41,61,57.2505000000298,"add",1,1,1
"197","2Ie4vXKm","uncued",1197,1800673,"rhyme-same_different-phon_sim-task_switching",1774.70000000298,"task_switching","experiment",17,14,1,"subtract",NA,1,NA,"Yes","No",4.67,4.4,"high_verbal",20,14,62,57.2505000000298,"subtract",1,1,1
"198","2Ie4vXKm","uncued",1198,1802103,"rhyme-same_different-phon_sim-task_switching",1417.29999999702,"task_switching","experiment",37,40,1,"add",NA,2,NA,"Yes","No",4.67,4.4,"high_verbal",40,34,63,57.2505000000298,"add",1,1,1
"199","2Ie4vXKm","uncued",1199,1803880,"rhyme-same_different-phon_sim-task_switching",1763.59999999404,"task_switching","experiment",59,56,1,"subtract",NA,3,NA,"Yes","No",4.67,4.4,"high_verbal",62,56,64,57.2505000000298,"subtract",1,1,1
"200","2Ie4vXKm","uncued",1200,1805309,"rhyme-same_different-phon_sim-task_switching",1415.89999999106,"task_switching","experiment",27,30,1,"add",NA,4,NA,"Yes","No",4.67,4.4,"high_verbal",30,24,65,57.2505000000298,"add",1,1,1
"201","2Ie4vXKm","uncued",1201,1807302,"rhyme-same_different-phon_sim-task_switching",1981.10000000894,"task_switching","experiment",61,58,1,"subtract",NA,5,NA,"Yes","No",4.67,4.4,"high_verbal",64,58,66,57.2505000000298,"subtract",1,1,1
"202","2Ie4vXKm","uncued",1202,1810747,"rhyme-same_different-phon_sim-task_switching",3432.39999999106,"task_switching","experiment",77,80,1,"add",NA,6,NA,"Yes","No",4.67,4.4,"high_verbal",80,74,67,57.2505000000298,"add",1,1,1
"203","2Ie4vXKm","uncued",1203,1813406,"rhyme-same_different-phon_sim-task_switching",2645.10000000894,"task_switching","experiment",92,89,1,"subtract",NA,7,NA,"Yes","No",4.67,4.4,"high_verbal",95,89,68,57.2505000000298,"subtract",1,1,1
"204","2Ie4vXKm","uncued",1204,1815381,"rhyme-same_different-phon_sim-task_switching",1960.39999999106,"task_switching","experiment",22,25,1,"add",NA,8,NA,"Yes","No",4.67,4.4,"high_verbal",25,19,69,57.2505000000298,"add",1,1,1
"205","2Ie4vXKm","uncued",1205,1817331,"rhyme-same_different-phon_sim-task_switching",1936.70000000298,"task_switching","experiment",71,68,1,"subtract",NA,9,NA,"Yes","No",4.67,4.4,"high_verbal",74,68,70,57.2505000000298,"subtract",1,1,1
"206","2Ie4vXKm","uncued",1206,1818895,"rhyme-same_different-phon_sim-task_switching",1551.29999999702,"task_switching","experiment",16,19,1,"add",NA,10,NA,"Yes","No",4.67,4.4,"high_verbal",19,13,71,57.2505000000298,"add",1,1,1
"207","2Ie4vXKm","uncued",1207,1822660,"rhyme-same_different-phon_sim-task_switching",3748.20000000298,"task_switching","experiment",96,93,1,"subtract",NA,11,NA,"Yes","No",4.67,4.4,"high_verbal",99,93,72,57.2505000000298,"subtract",1,1,1
"208","2Ie4vXKm","uncued",1208,1824174,"rhyme-same_different-phon_sim-task_switching",1499.5,"task_switching","experiment",57,60,1,"add",NA,12,NA,"Yes","No",4.67,4.4,"high_verbal",60,54,73,57.2505000000298,"add",1,1,1
"209","2Ie4vXKm","uncued",1209,1828714,"rhyme-same_different-phon_sim-task_switching",4527.20000000298,"task_switching","experiment",82,79,1,"subtract",NA,13,NA,"Yes","No",4.67,4.4,"high_verbal",85,79,74,57.2505000000298,"subtract",1,1,1
"210","2Ie4vXKm","uncued",1210,1830159,"rhyme-same_different-phon_sim-task_switching",1429,"task_switching","experiment",93,96,1,"add",NA,14,NA,"Yes","No",4.67,4.4,"high_verbal",96,90,75,57.2505000000298,"add",1,1,1
"211","2Ie4vXKm","uncued",1211,1831948,"rhyme-same_different-phon_sim-task_switching",1777.79999999702,"task_switching","experiment",63,60,1,"subtract",NA,15,NA,"Yes","No",4.67,4.4,"high_verbal",66,60,76,57.2505000000298,"subtract",1,1,1
"212","2Ie4vXKm","uncued",1212,1833434,"rhyme-same_different-phon_sim-task_switching",1470.39999999106,"task_switching","experiment",13,16,1,"add",NA,16,NA,"Yes","No",4.67,4.4,"high_verbal",16,10,77,57.2505000000298,"add",1,1,1
"213","2Ie4vXKm","uncued",1213,1835088,"rhyme-same_different-phon_sim-task_switching",1642,"task_switching","experiment",32,29,1,"subtract",NA,17,NA,"Yes","No",4.67,4.4,"high_verbal",35,29,78,57.2505000000298,"subtract",1,1,1
"214","2Ie4vXKm","uncued",1214,1836384,"rhyme-same_different-phon_sim-task_switching",1280.10000000894,"task_switching","experiment",15,18,1,"add",NA,18,NA,"Yes","No",4.67,4.4,"high_verbal",18,12,79,57.2505000000298,"add",1,1,1
"215","2Ie4vXKm","uncued",1215,1838357,"rhyme-same_different-phon_sim-task_switching",1960,"task_switching","experiment",28,25,1,"subtract",NA,19,NA,"Yes","No",4.67,4.4,"high_verbal",31,25,80,57.2505000000298,"subtract",1,1,1
"216","2Ie4vXKm","uncued",1216,1840317,"rhyme-same_different-phon_sim-task_switching",1944.90000000596,"task_switching","experiment",86,89,1,"add",NA,20,NA,"Yes","No",4.67,4.4,"high_verbal",89,83,81,57.2505000000298,"add",1,1,1
"217","2Ie4vXKm","uncued",1217,1842103,"rhyme-same_different-phon_sim-task_switching",1772.5,"task_switching","experiment",29,26,1,"subtract",NA,21,NA,"Yes","No",4.67,4.4,"high_verbal",32,26,82,57.2505000000298,"subtract",1,1,1
"218","2Ie4vXKm","uncued",1218,1843963,"rhyme-same_different-phon_sim-task_switching",1844.90000000596,"task_switching","experiment",51,54,1,"add",NA,22,NA,"Yes","No",4.67,4.4,"high_verbal",54,48,83,57.2505000000298,"add",1,1,1
"219","2Ie4vXKm","uncued",1219,1845802,"rhyme-same_different-phon_sim-task_switching",1827.70000000298,"task_switching","experiment",41,38,1,"subtract",NA,23,NA,"Yes","No",4.67,4.4,"high_verbal",44,38,84,57.2505000000298,"subtract",1,1,1
"220","2Ie4vXKm","uncued",1220,1847503,"rhyme-same_different-phon_sim-task_switching",1689.40000000596,"task_switching","experiment",80,83,1,"add",NA,24,NA,"Yes","No",4.67,4.4,"high_verbal",83,77,85,57.2505000000298,"add",1,1,1
"221","2Ie4vXKm","uncued",1221,1848908,"rhyme-same_different-phon_sim-task_switching",1392.5,"task_switching","experiment",34,31,1,"subtract",NA,25,NA,"Yes","No",4.67,4.4,"high_verbal",37,31,86,57.2505000000298,"subtract",1,1,1
"222","2Ie4vXKm","uncued",1222,1850474,"rhyme-same_different-phon_sim-task_switching",1557.59999999404,"task_switching","experiment",42,45,1,"add",NA,26,NA,"Yes","No",4.67,4.4,"high_verbal",45,39,87,57.2505000000298,"add",1,1,1
"223","2Ie4vXKm","uncued",1223,1851891,"rhyme-same_different-phon_sim-task_switching",1409.40000000596,"task_switching","experiment",64,61,1,"subtract",NA,27,NA,"Yes","No",4.67,4.4,"high_verbal",67,61,88,57.2505000000298,"subtract",1,1,1
"224","2Ie4vXKm","uncued",1224,1853402,"rhyme-same_different-phon_sim-task_switching",1500.90000000596,"task_switching","experiment",33,36,1,"add",NA,28,NA,"Yes","No",4.67,4.4,"high_verbal",36,30,89,57.2505000000298,"add",1,1,1
"225","2Ie4vXKm","uncued",1225,1855232,"rhyme-same_different-phon_sim-task_switching",1821.10000000894,"task_switching","experiment",69,66,1,"subtract",NA,29,NA,"Yes","No",4.67,4.4,"high_verbal",72,66,90,57.2505000000298,"subtract",1,1,1
"226","3DHBLnqj","uncued",130,609789,"task_switching-rhyme-phon_sim-same_different",3286,"task_switching","experiment",20,23,1,"add",NA,0,NA,"No","none",1.83,1.4,"low_verbal",23,17,61,98.110100000143,"add",1,1,1
"227","3DHBLnqj","uncued",131,612213,"task_switching-rhyme-phon_sim-same_different",2421.20000004768,"task_switching","experiment",15,12,1,"subtract",NA,1,NA,"No","none",1.83,1.4,"low_verbal",18,12,62,98.110100000143,"subtract",1,1,1
"228","3DHBLnqj","uncued",132,614949,"task_switching-rhyme-phon_sim-same_different",2733.29999995232,"task_switching","experiment",34,37,1,"add",NA,2,NA,"No","none",1.83,1.4,"low_verbal",37,31,63,98.110100000143,"add",1,1,1
"229","3DHBLnqj","uncued",133,617861,"task_switching-rhyme-phon_sim-same_different",2909.29999995232,"task_switching","experiment",79,76,1,"subtract",NA,3,NA,"No","none",1.83,1.4,"low_verbal",82,76,64,98.110100000143,"subtract",1,1,1
"230","3DHBLnqj","uncued",134,621269,"task_switching-rhyme-phon_sim-same_different",3405.40000009537,"task_switching","experiment",91,94,1,"add",NA,4,NA,"No","none",1.83,1.4,"low_verbal",94,88,65,98.110100000143,"add",1,1,1
"231","3DHBLnqj","uncued",135,625765,"task_switching-rhyme-phon_sim-same_different",4492.89999985695,"task_switching","experiment",56,53,1,"subtract",NA,5,NA,"No","none",1.83,1.4,"low_verbal",59,53,66,98.110100000143,"subtract",1,1,1
"232","3DHBLnqj","uncued",136,631085,"task_switching-rhyme-phon_sim-same_different",5317.29999995232,"task_switching","experiment",40,37,0,"add",NA,6,NA,"No","none",1.83,1.4,"low_verbal",43,37,67,98.110100000143,"subtract",0,1,0
"233","3DHBLnqj","uncued",137,634293,"task_switching-rhyme-phon_sim-same_different",3205,"task_switching","experiment",95,98,0,"subtract",NA,7,NA,"No","none",1.83,1.4,"low_verbal",98,92,68,98.110100000143,"add",0,1,1
"234","3DHBLnqj","uncued",138,637813,"task_switching-rhyme-phon_sim-same_different",3517.20000004768,"task_switching","experiment",74,71,0,"add",NA,8,NA,"No","none",1.83,1.4,"low_verbal",77,71,69,98.110100000143,"subtract",0,1,1
"235","3DHBLnqj","uncued",139,641349,"task_switching-rhyme-phon_sim-same_different",3532.59999990463,"task_switching","experiment",92,95,0,"subtract",NA,9,NA,"No","none",1.83,1.4,"low_verbal",95,89,70,98.110100000143,"add",0,1,1
"236","3DHBLnqj","uncued",141,664597,"task_switching-rhyme-phon_sim-same_different",2916.79999995232,"task_switching","experiment",14,17,0,"add",NA,11,NA,"No","none",1.83,1.4,"low_verbal",17,11,71,98.110100000143,"add",1,1,0
"237","3DHBLnqj","uncued",142,667677,"task_switching-rhyme-phon_sim-same_different",3077.40000009537,"task_switching","experiment",28,25,0,"subtract",NA,12,NA,"No","none",1.83,1.4,"low_verbal",31,25,72,98.110100000143,"subtract",1,1,1
"238","3DHBLnqj","uncued",143,670469,"task_switching-rhyme-phon_sim-same_different",2789.40000009537,"task_switching","experiment",66,69,0,"add",NA,13,NA,"No","none",1.83,1.4,"low_verbal",69,63,73,98.110100000143,"add",1,1,1
"239","3DHBLnqj","uncued",144,674477,"task_switching-rhyme-phon_sim-same_different",4005.30000019073,"task_switching","experiment",70,67,0,"subtract",NA,14,NA,"No","none",1.83,1.4,"low_verbal",73,67,74,98.110100000143,"subtract",1,1,1
"240","3DHBLnqj","uncued",145,677973,"task_switching-rhyme-phon_sim-same_different",3493.10000014305,"task_switching","experiment",55,58,0,"add",NA,15,NA,"No","none",1.83,1.4,"low_verbal",58,52,75,98.110100000143,"add",1,1,1
"241","3DHBLnqj","uncued",146,681541,"task_switching-rhyme-phon_sim-same_different",3564.20000004768,"task_switching","experiment",85,82,0,"subtract",NA,16,NA,"No","none",1.83,1.4,"low_verbal",88,82,76,98.110100000143,"subtract",1,1,1
"242","3DHBLnqj","uncued",147,684509,"task_switching-rhyme-phon_sim-same_different",2964.90000009537,"task_switching","experiment",67,70,0,"add",NA,17,NA,"No","none",1.83,1.4,"low_verbal",70,64,77,98.110100000143,"add",1,1,1
"243","3DHBLnqj","uncued",148,686525,"task_switching-rhyme-phon_sim-same_different",2013.09999990463,"task_switching","experiment",36,33,0,"subtract",NA,18,NA,"No","none",1.83,1.4,"low_verbal",39,33,78,98.110100000143,"subtract",1,1,1
"244","3DHBLnqj","uncued",149,690173,"task_switching-rhyme-phon_sim-same_different",3645.39999985695,"task_switching","experiment",16,19,0,"add",NA,19,NA,"No","none",1.83,1.4,"low_verbal",19,13,79,98.110100000143,"add",1,1,1
"245","3DHBLnqj","uncued",150,694301,"task_switching-rhyme-phon_sim-same_different",4125.20000004768,"task_switching","experiment",65,62,0,"subtract",NA,20,NA,"No","none",1.83,1.4,"low_verbal",68,62,80,98.110100000143,"subtract",1,1,1
"246","3DHBLnqj","uncued",151,696557,"task_switching-rhyme-phon_sim-same_different",2253.20000004768,"task_switching","experiment",52,55,0,"add",NA,21,NA,"No","none",1.83,1.4,"low_verbal",55,49,81,98.110100000143,"add",1,1,1
"247","3DHBLnqj","uncued",152,700157,"task_switching-rhyme-phon_sim-same_different",3597.39999985695,"task_switching","experiment",77,74,0,"subtract",NA,22,NA,"No","none",1.83,1.4,"low_verbal",80,74,82,98.110100000143,"subtract",1,1,1
"248","3DHBLnqj","uncued",159,725021,"task_switching-rhyme-phon_sim-same_different",4268.59999990463,"task_switching","experiment",33,29,0,"add",NA,29,NA,"No","none",1.83,1.4,"low_verbal",36,30,89,98.110100000143,"subtract",0,0,0
"249","3HwZ3aSO","uncued",130,549070,"task_switching-rhyme-phon_sim-same_different",2856.10000000894,"task_switching","experiment",83,86,1,"add",NA,0,NA,"Yes","I try to think before I type",4.92,4.8,"high_verbal",86,80,61,88.1634999999702,"add",1,1,1
"250","3HwZ3aSO","uncued",131,551801,"task_switching-rhyme-phon_sim-same_different",2727.40000000596,"task_switching","experiment",52,49,1,"subtract",NA,1,NA,"Yes","I try to think before I type",4.92,4.8,"high_verbal",55,49,62,88.1634999999702,"subtract",1,1,1
"251","3HwZ3aSO","uncued",132,554582,"task_switching-rhyme-phon_sim-same_different",2777.59999999404,"task_switching","experiment",46,49,1,"add",NA,2,NA,"Yes","I try to think before I type",4.92,4.8,"high_verbal",49,43,63,88.1634999999702,"add",1,1,1
"252","3HwZ3aSO","uncued",133,557384,"task_switching-rhyme-phon_sim-same_different",2798.40000000596,"task_switching","experiment",31,28,1,"subtract",NA,3,NA,"Yes","I try to think before I type",4.92,4.8,"high_verbal",34,28,64,88.1634999999702,"subtract",1,1,1
"253","3HwZ3aSO","uncued",134,560362,"task_switching-rhyme-phon_sim-same_different",2973.59999999404,"task_switching","experiment",95,98,1,"add",NA,4,NA,"Yes","I try to think before I type",4.92,4.8,"high_verbal",98,92,65,88.1634999999702,"add",1,1,1
"254","3HwZ3aSO","uncued",135,563702,"task_switching-rhyme-phon_sim-same_different",3335,"task_switching","experiment",38,35,1,"subtract",NA,5,NA,"Yes","I try to think before I type",4.92,4.8,"high_verbal",41,35,66,88.1634999999702,"subtract",1,1,1
"255","3HwZ3aSO","uncued",136,566228,"task_switching-rhyme-phon_sim-same_different",2522,"task_switching","experiment",85,88,1,"add",NA,6,NA,"Yes","I try to think before I type",4.92,4.8,"high_verbal",88,82,67,88.1634999999702,"add",1,1,1
"256","3HwZ3aSO","uncued",137,569529,"task_switching-rhyme-phon_sim-same_different",3296.79999999702,"task_switching","experiment",27,24,1,"subtract",NA,7,NA,"Yes","I try to think before I type",4.92,4.8,"high_verbal",30,24,68,88.1634999999702,"subtract",1,1,1
"257","3HwZ3aSO","uncued",138,573775,"task_switching-rhyme-phon_sim-same_different",4240.70000000298,"task_switching","experiment",81,84,1,"add",NA,8,NA,"Yes","I try to think before I type",4.92,4.8,"high_verbal",84,78,69,88.1634999999702,"add",1,1,1
"258","3HwZ3aSO","uncued",139,576880,"task_switching-rhyme-phon_sim-same_different",3101.79999999702,"task_switching","experiment",90,87,1,"subtract",NA,9,NA,"Yes","I try to think before I type",4.92,4.8,"high_verbal",93,87,70,88.1634999999702,"subtract",1,1,1
"259","3HwZ3aSO","uncued",140,582069,"task_switching-rhyme-phon_sim-same_different",5185.09999999404,"task_switching","experiment",32,35,1,"add",NA,10,NA,"Yes","I try to think before I type",4.92,4.8,"high_verbal",35,29,71,88.1634999999702,"add",1,1,1
"260","3HwZ3aSO","uncued",141,584782,"task_switching-rhyme-phon_sim-same_different",2709.5,"task_switching","experiment",60,57,1,"subtract",NA,11,NA,"Yes","I try to think before I type",4.92,4.8,"high_verbal",63,57,72,88.1634999999702,"subtract",1,1,1
"261","3HwZ3aSO","uncued",142,587467,"task_switching-rhyme-phon_sim-same_different",2679.79999999702,"task_switching","experiment",13,16,1,"add",NA,12,NA,"Yes","I try to think before I type",4.92,4.8,"high_verbal",16,10,73,88.1634999999702,"add",1,1,1
"262","3HwZ3aSO","uncued",143,590197,"task_switching-rhyme-phon_sim-same_different",2725.59999999404,"task_switching","experiment",30,27,1,"subtract",NA,13,NA,"Yes","I try to think before I type",4.92,4.8,"high_verbal",33,27,74,88.1634999999702,"subtract",1,1,1
"263","3HwZ3aSO","uncued",144,593302,"task_switching-rhyme-phon_sim-same_different",3101.89999999106,"task_switching","experiment",43,40,0,"add",NA,14,NA,"Yes","I try to think before I type",4.92,4.8,"high_verbal",46,40,75,88.1634999999702,"subtract",0,1,0
"264","3HwZ3aSO","uncued",145,595642,"task_switching-rhyme-phon_sim-same_different",2335.40000000596,"task_switching","experiment",29,32,0,"subtract",NA,15,NA,"Yes","I try to think before I type",4.92,4.8,"high_verbal",32,26,76,88.1634999999702,"add",0,1,1
"265","3HwZ3aSO","uncued",146,598943,"task_switching-rhyme-phon_sim-same_different",3296.09999999404,"task_switching","experiment",49,46,0,"add",NA,16,NA,"Yes","I try to think before I type",4.92,4.8,"high_verbal",52,46,77,88.1634999999702,"subtract",0,1,1
"266","3HwZ3aSO","uncued",147,601556,"task_switching-rhyme-phon_sim-same_different",2610,"task_switching","experiment",51,54,0,"subtract",NA,17,NA,"Yes","I try to think before I type",4.92,4.8,"high_verbal",54,48,78,88.1634999999702,"add",0,1,1
"267","3HwZ3aSO","uncued",148,604210,"task_switching-rhyme-phon_sim-same_different",2650.29999999702,"task_switching","experiment",48,45,0,"add",NA,18,NA,"Yes","I try to think before I type",4.92,4.8,"high_verbal",51,45,79,88.1634999999702,"subtract",0,1,1
"268","3HwZ3aSO","uncued",149,606510,"task_switching-rhyme-phon_sim-same_different",2295.20000000298,"task_switching","experiment",20,23,0,"subtract",NA,19,NA,"Yes","I try to think before I type",4.92,4.8,"high_verbal",23,17,80,88.1634999999702,"add",0,1,1
"269","3HwZ3aSO","uncued",150,609449,"task_switching-rhyme-phon_sim-same_different",2935.60000000894,"task_switching","experiment",96,93,0,"add",NA,20,NA,"Yes","I try to think before I type",4.92,4.8,"high_verbal",99,93,81,88.1634999999702,"subtract",0,1,1
"270","3HwZ3aSO","uncued",151,612299,"task_switching-rhyme-phon_sim-same_different",2844.89999999106,"task_switching","experiment",37,40,0,"subtract",NA,21,NA,"Yes","I try to think before I type",4.92,4.8,"high_verbal",40,34,82,88.1634999999702,"add",0,1,1
"271","3HwZ3aSO","uncued",152,614765,"task_switching-rhyme-phon_sim-same_different",2462.69999998808,"task_switching","experiment",59,56,0,"add",NA,22,NA,"Yes","I try to think before I type",4.92,4.8,"high_verbal",62,56,83,88.1634999999702,"subtract",0,1,1
"272","3HwZ3aSO","uncued",153,617525,"task_switching-rhyme-phon_sim-same_different",2757.40000000596,"task_switching","experiment",61,64,0,"subtract",NA,23,NA,"Yes","I try to think before I type",4.92,4.8,"high_verbal",64,58,84,88.1634999999702,"add",0,1,1
"273","3HwZ3aSO","uncued",154,620751,"task_switching-rhyme-phon_sim-same_different",3222,"task_switching","experiment",55,52,0,"add",NA,24,NA,"Yes","I try to think before I type",4.92,4.8,"high_verbal",58,52,85,88.1634999999702,"subtract",0,1,1
"274","3HwZ3aSO","uncued",155,623826,"task_switching-rhyme-phon_sim-same_different",3071.60000000894,"task_switching","experiment",45,48,0,"subtract",NA,25,NA,"Yes","I try to think before I type",4.92,4.8,"high_verbal",48,42,86,88.1634999999702,"add",0,1,1
"275","3HwZ3aSO","uncued",156,626656,"task_switching-rhyme-phon_sim-same_different",2827.80000001192,"task_switching","experiment",19,16,0,"add",NA,26,NA,"Yes","I try to think before I type",4.92,4.8,"high_verbal",22,16,87,88.1634999999702,"subtract",0,1,1
"276","3HwZ3aSO","uncued",157,628838,"task_switching-rhyme-phon_sim-same_different",2179.39999999106,"task_switching","experiment",41,44,0,"subtract",NA,27,NA,"Yes","I try to think before I type",4.92,4.8,"high_verbal",44,38,88,88.1634999999702,"add",0,1,1
"277","3HwZ3aSO","uncued",158,631307,"task_switching-rhyme-phon_sim-same_different",2464.59999999404,"task_switching","experiment",44,41,0,"add",NA,28,NA,"Yes","I try to think before I type",4.92,4.8,"high_verbal",47,41,89,88.1634999999702,"subtract",0,1,1
"278","3HwZ3aSO","uncued",159,634489,"task_switching-rhyme-phon_sim-same_different",3179.19999998808,"task_switching","experiment",91,94,0,"subtract",NA,29,NA,"Yes","I try to think before I type",4.92,4.8,"high_verbal",94,88,90,88.1634999999702,"add",0,1,1
"279","4ELANfYv","uncued",992,1473028,"same_different-task_switching-rhyme-phon_sim",2491.09999999404,"task_switching","experiment",26,29,1,"add",NA,0,NA,"Yes","No",4.83,4.2,"high_verbal",29,23,91,87.6454999999851,"add",1,1,1
"280","4ELANfYv","uncued",993,1476470,"same_different-task_switching-rhyme-phon_sim",3440.59999999404,"task_switching","experiment",94,91,1,"subtract",NA,1,NA,"Yes","No",4.83,4.2,"high_verbal",97,91,92,87.6454999999851,"subtract",1,1,1
"281","4ELANfYv","uncued",994,1479162,"same_different-task_switching-rhyme-phon_sim",2690.69999998808,"task_switching","experiment",36,39,1,"add",NA,2,NA,"Yes","No",4.83,4.2,"high_verbal",39,33,93,87.6454999999851,"add",1,1,1
"282","4ELANfYv","uncued",995,1481188,"same_different-task_switching-rhyme-phon_sim",2024.59999999404,"task_switching","experiment",14,11,1,"subtract",NA,3,NA,"Yes","No",4.83,4.2,"high_verbal",17,11,94,87.6454999999851,"subtract",1,1,1
"283","4ELANfYv","uncued",996,1483372,"same_different-task_switching-rhyme-phon_sim",2182.40000000596,"task_switching","experiment",37,40,1,"add",NA,4,NA,"Yes","No",4.83,4.2,"high_verbal",40,34,95,87.6454999999851,"add",1,1,1
"284","4ELANfYv","uncued",997,1485854,"same_different-task_switching-rhyme-phon_sim",2480.59999999404,"task_switching","experiment",34,31,1,"subtract",NA,5,NA,"Yes","No",4.83,4.2,"high_verbal",37,31,96,87.6454999999851,"subtract",1,1,1
"285","4ELANfYv","uncued",998,1488052,"same_different-task_switching-rhyme-phon_sim",2196.90000000596,"task_switching","experiment",62,65,1,"add",NA,6,NA,"Yes","No",4.83,4.2,"high_verbal",65,59,97,87.6454999999851,"add",1,1,1
"286","4ELANfYv","uncued",999,1490974,"same_different-task_switching-rhyme-phon_sim",2920.79999999702,"task_switching","experiment",51,48,1,"subtract",NA,7,NA,"Yes","No",4.83,4.2,"high_verbal",54,48,98,87.6454999999851,"subtract",1,1,1
"287","4ELANfYv","uncued",1000,1493302,"same_different-task_switching-rhyme-phon_sim",2326.90000000596,"task_switching","experiment",54,57,1,"add",NA,8,NA,"Yes","No",4.83,4.2,"high_verbal",57,51,99,87.6454999999851,"add",1,1,1
"288","4ELANfYv","uncued",1001,1496056,"same_different-task_switching-rhyme-phon_sim",2752.70000000298,"task_switching","experiment",25,22,1,"subtract",NA,9,NA,"Yes","No",4.83,4.2,"high_verbal",28,22,100,87.6454999999851,"subtract",1,1,1
"289","4ELANfYv","uncued",1002,1498397,"same_different-task_switching-rhyme-phon_sim",2341.09999999404,"task_switching","experiment",95,98,1,"add",NA,10,NA,"Yes","No",4.83,4.2,"high_verbal",98,92,101,87.6454999999851,"add",1,1,1
"290","4ELANfYv","uncued",1003,1500821,"same_different-task_switching-rhyme-phon_sim",2422.29999999702,"task_switching","experiment",31,28,1,"subtract",NA,11,NA,"Yes","No",4.83,4.2,"high_verbal",34,28,102,87.6454999999851,"subtract",1,1,1
"291","4ELANfYv","uncued",1004,1504417,"same_different-task_switching-rhyme-phon_sim",3595,"task_switching","experiment",80,83,1,"add",NA,12,NA,"Yes","No",4.83,4.2,"high_verbal",83,77,103,87.6454999999851,"add",1,1,1
"292","4ELANfYv","uncued",1005,1506529,"same_different-task_switching-rhyme-phon_sim",2111.09999999404,"task_switching","experiment",93,90,1,"subtract",NA,13,NA,"Yes","No",4.83,4.2,"high_verbal",96,90,104,87.6454999999851,"subtract",1,1,1
"293","4ELANfYv","uncued",1006,1508635,"same_different-task_switching-rhyme-phon_sim",2104.79999999702,"task_switching","experiment",27,30,1,"add",NA,14,NA,"Yes","No",4.83,4.2,"high_verbal",30,24,105,87.6454999999851,"add",1,1,1
"294","4ELANfYv","uncued",1007,1511601,"same_different-task_switching-rhyme-phon_sim",2964.70000000298,"task_switching","experiment",68,65,1,"subtract",NA,15,NA,"Yes","No",4.83,4.2,"high_verbal",71,65,106,87.6454999999851,"subtract",1,1,1
"295","4ELANfYv","uncued",1008,1514850,"same_different-task_switching-rhyme-phon_sim",3246.70000000298,"task_switching","experiment",58,55,0,"add",NA,16,NA,"Yes","No",4.83,4.2,"high_verbal",61,55,107,87.6454999999851,"subtract",0,1,0
"296","4ELANfYv","uncued",1009,1518655,"same_different-task_switching-rhyme-phon_sim",3803.70000000298,"task_switching","experiment",32,35,0,"subtract",NA,17,NA,"Yes","No",4.83,4.2,"high_verbal",35,29,108,87.6454999999851,"add",0,1,1
"297","4ELANfYv","uncued",1010,1523540,"same_different-task_switching-rhyme-phon_sim",4883.20000000298,"task_switching","experiment",48,51,1,"add",NA,18,NA,"Yes","No",4.83,4.2,"high_verbal",51,45,109,87.6454999999851,"add",1,1,0
"298","4ELANfYv","uncued",1011,1526766,"same_different-task_switching-rhyme-phon_sim",3224.70000000298,"task_switching","experiment",92,89,1,"subtract",NA,19,NA,"Yes","No",4.83,4.2,"high_verbal",95,89,110,87.6454999999851,"subtract",1,1,1
"299","4ELANfYv","uncued",1012,1528609,"same_different-task_switching-rhyme-phon_sim",1842.09999999404,"task_switching","experiment",15,18,1,"add",NA,20,NA,"Yes","No",4.83,4.2,"high_verbal",18,12,111,87.6454999999851,"add",1,1,1
"300","4ELANfYv","uncued",1013,1531530,"same_different-task_switching-rhyme-phon_sim",2919.20000000298,"task_switching","experiment",82,79,1,"subtract",NA,21,NA,"Yes","No",4.83,4.2,"high_verbal",85,79,112,87.6454999999851,"subtract",1,1,1
"301","4ELANfYv","uncued",1014,1534159,"same_different-task_switching-rhyme-phon_sim",2628.29999999702,"task_switching","experiment",21,24,1,"add",NA,22,NA,"Yes","No",4.83,4.2,"high_verbal",24,18,113,87.6454999999851,"add",1,1,1
"302","4ELANfYv","uncued",1015,1538007,"same_different-task_switching-rhyme-phon_sim",3846.70000000298,"task_switching","experiment",35,32,1,"subtract",NA,23,NA,"Yes","No",4.83,4.2,"high_verbal",38,32,114,87.6454999999851,"subtract",1,1,1
"303","4ELANfYv","uncued",1016,1542109,"same_different-task_switching-rhyme-phon_sim",4100.79999999702,"task_switching","experiment",74,71,0,"add",NA,24,NA,"Yes","No",4.83,4.2,"high_verbal",77,71,115,87.6454999999851,"subtract",0,1,0
"304","4ELANfYv","uncued",1017,1544787,"same_different-task_switching-rhyme-phon_sim",2676.79999999702,"task_switching","experiment",16,19,0,"subtract",NA,25,NA,"Yes","No",4.83,4.2,"high_verbal",19,13,116,87.6454999999851,"add",0,1,1
"305","4ELANfYv","uncued",1018,1548882,"same_different-task_switching-rhyme-phon_sim",4092.80000001192,"task_switching","experiment",87,84,0,"add",NA,26,NA,"Yes","No",4.83,4.2,"high_verbal",90,84,117,87.6454999999851,"subtract",0,1,1
"306","4ELANfYv","uncued",1019,1553315,"same_different-task_switching-rhyme-phon_sim",4431.29999999702,"task_switching","experiment",81,84,0,"subtract",NA,27,NA,"Yes","No",4.83,4.2,"high_verbal",84,78,118,87.6454999999851,"add",0,1,1
"307","4ELANfYv","uncued",1020,1555665,"same_different-task_switching-rhyme-phon_sim",2348.20000000298,"task_switching","experiment",24,21,0,"add",NA,28,NA,"Yes","No",4.83,4.2,"high_verbal",27,21,119,87.6454999999851,"subtract",0,1,1
"308","4ELANfYv","uncued",1021,1558221,"same_different-task_switching-rhyme-phon_sim",2554.70000000298,"task_switching","experiment",46,49,0,"subtract",NA,29,NA,"Yes","No",4.83,4.2,"high_verbal",49,43,120,87.6454999999851,"add",0,1,1
"309","4FubSY7J","uncued",234,678761,"task_switching-rhyme-phon_sim-same_different",1735.80000000075,"task_switching","experiment",13,16,1,"add",NA,0,NA,"Yes","N/A",4.83333333333333,4.6,"high_verbal",16,10,121,81.8407000000011,"add",1,1,1
"310","4FubSY7J","uncued",235,680728,"task_switching-rhyme-phon_sim-same_different",1964.69999999925,"task_switching","experiment",15,12,1,"subtract",NA,1,NA,"Yes","N/A",4.83333333333333,4.6,"high_verbal",18,12,122,81.8407000000011,"subtract",1,1,1
"311","4FubSY7J","uncued",236,682400,"task_switching-rhyme-phon_sim-same_different",1670,"task_switching","experiment",23,26,1,"add",NA,2,NA,"Yes","N/A",4.83333333333333,4.6,"high_verbal",26,20,123,81.8407000000011,"add",1,1,1
"312","4FubSY7J","uncued",237,687162,"task_switching-rhyme-phon_sim-same_different",4760.10000000149,"task_switching","experiment",62,59,1,"subtract",NA,3,NA,"Yes","N/A",4.83333333333333,4.6,"high_verbal",65,59,124,81.8407000000011,"subtract",1,1,1
"313","4FubSY7J","uncued",238,689683,"task_switching-rhyme-phon_sim-same_different",2518.09999999963,"task_switching","experiment",76,79,1,"add",NA,4,NA,"Yes","N/A",4.83333333333333,4.6,"high_verbal",79,73,125,81.8407000000011,"add",1,1,1
"314","4FubSY7J","uncued",239,691312,"task_switching-rhyme-phon_sim-same_different",1626.79999999888,"task_switching","experiment",36,33,1,"subtract",NA,5,NA,"Yes","N/A",4.83333333333333,4.6,"high_verbal",39,33,126,81.8407000000011,"subtract",1,1,1
"315","4FubSY7J","uncued",240,692873,"task_switching-rhyme-phon_sim-same_different",1559.80000000075,"task_switching","experiment",20,23,1,"add",NA,6,NA,"Yes","N/A",4.83333333333333,4.6,"high_verbal",23,17,127,81.8407000000011,"add",1,1,1
"316","4FubSY7J","uncued",241,696023,"task_switching-rhyme-phon_sim-same_different",3147.5,"task_switching","experiment",77,74,1,"subtract",NA,7,NA,"Yes","N/A",4.83333333333333,4.6,"high_verbal",80,74,128,81.8407000000011,"subtract",1,1,1
"317","4FubSY7J","uncued",242,699398,"task_switching-rhyme-phon_sim-same_different",3372.90000000037,"task_switching","experiment",68,71,1,"add",NA,8,NA,"Yes","N/A",4.83333333333333,4.6,"high_verbal",71,65,129,81.8407000000011,"add",1,1,1
"318","4FubSY7J","uncued",243,701439,"task_switching-rhyme-phon_sim-same_different",2038.69999999925,"task_switching","experiment",74,71,1,"subtract",NA,9,NA,"Yes","N/A",4.83333333333333,4.6,"high_verbal",77,71,130,81.8407000000011,"subtract",1,1,1
"319","4FubSY7J","uncued",244,705362,"task_switching-rhyme-phon_sim-same_different",3921.40000000037,"task_switching","experiment",48,51,1,"add",NA,10,NA,"Yes","N/A",4.83333333333333,4.6,"high_verbal",51,45,131,81.8407000000011,"add",1,1,1
"320","4FubSY7J","uncued",245,708186,"task_switching-rhyme-phon_sim-same_different",2821.69999999925,"task_switching","experiment",22,19,1,"subtract",NA,11,NA,"Yes","N/A",4.83333333333333,4.6,"high_verbal",25,19,132,81.8407000000011,"subtract",1,1,1
"321","4FubSY7J","uncued",246,710642,"task_switching-rhyme-phon_sim-same_different",2453.70000000112,"task_switching","experiment",87,90,1,"add",NA,12,NA,"Yes","N/A",4.83333333333333,4.6,"high_verbal",90,84,133,81.8407000000011,"add",1,1,1
"322","4FubSY7J","uncued",247,714081,"task_switching-rhyme-phon_sim-same_different",3437.39999999851,"task_switching","experiment",72,69,1,"subtract",NA,13,NA,"Yes","N/A",4.83333333333333,4.6,"high_verbal",75,69,134,81.8407000000011,"subtract",1,1,1
"323","4FubSY7J","uncued",248,716332,"task_switching-rhyme-phon_sim-same_different",2249.29999999888,"task_switching","experiment",32,35,1,"add",NA,14,NA,"Yes","N/A",4.83333333333333,4.6,"high_verbal",35,29,135,81.8407000000011,"add",1,1,1
"324","4FubSY7J","uncued",249,718436,"task_switching-rhyme-phon_sim-same_different",2101.5,"task_switching","experiment",63,60,1,"subtract",NA,15,NA,"Yes","N/A",4.83333333333333,4.6,"high_verbal",66,60,136,81.8407000000011,"subtract",1,1,1
"325","4FubSY7J","uncued",250,720207,"task_switching-rhyme-phon_sim-same_different",1768.80000000075,"task_switching","experiment",34,37,1,"add",NA,16,NA,"Yes","N/A",4.83333333333333,4.6,"high_verbal",37,31,137,81.8407000000011,"add",1,1,1
"326","4FubSY7J","uncued",251,723799,"task_switching-rhyme-phon_sim-same_different",3589.80000000075,"task_switching","experiment",38,35,1,"subtract",NA,17,NA,"Yes","N/A",4.83333333333333,4.6,"high_verbal",41,35,138,81.8407000000011,"subtract",1,1,1
"327","4FubSY7J","uncued",252,725790,"task_switching-rhyme-phon_sim-same_different",1989,"task_switching","experiment",67,70,1,"add",NA,18,NA,"Yes","N/A",4.83333333333333,4.6,"high_verbal",70,64,139,81.8407000000011,"add",1,1,1
"328","4FubSY7J","uncued",253,728480,"task_switching-rhyme-phon_sim-same_different",2687.90000000037,"task_switching","experiment",65,62,1,"subtract",NA,19,NA,"Yes","N/A",4.83333333333333,4.6,"high_verbal",68,62,140,81.8407000000011,"subtract",1,1,1
"329","4FubSY7J","uncued",254,730919,"task_switching-rhyme-phon_sim-same_different",2437.59999999963,"task_switching","experiment",50,52,0,"add",NA,20,NA,"Yes","N/A",4.83333333333333,4.6,"high_verbal",53,47,141,81.8407000000011,"add",1,0,0
"330","4FubSY7J","uncued",255,734686,"task_switching-rhyme-phon_sim-same_different",3765,"task_switching","experiment",18,15,1,"subtract",NA,21,NA,"Yes","N/A",4.83333333333333,4.6,"high_verbal",21,15,142,81.8407000000011,"subtract",1,1,1
"331","4FubSY7J","uncued",256,737951,"task_switching-rhyme-phon_sim-same_different",3262,"task_switching","experiment",64,67,1,"add",NA,22,NA,"Yes","N/A",4.83333333333333,4.6,"high_verbal",67,61,143,81.8407000000011,"add",1,1,1
"332","4FubSY7J","uncued",257,740455,"task_switching-rhyme-phon_sim-same_different",2502.20000000112,"task_switching","experiment",70,67,1,"subtract",NA,23,NA,"Yes","N/A",4.83333333333333,4.6,"high_verbal",73,67,144,81.8407000000011,"subtract",1,1,1
"333","4FubSY7J","uncued",258,742787,"task_switching-rhyme-phon_sim-same_different",2330.5,"task_switching","experiment",47,50,1,"add",NA,24,NA,"Yes","N/A",4.83333333333333,4.6,"high_verbal",50,44,145,81.8407000000011,"add",1,1,1
"334","4FubSY7J","uncued",259,745753,"task_switching-rhyme-phon_sim-same_different",2963.69999999925,"task_switching","experiment",42,39,1,"subtract",NA,25,NA,"Yes","N/A",4.83333333333333,4.6,"high_verbal",45,39,146,81.8407000000011,"subtract",1,1,1
"335","4FubSY7J","uncued",260,748614,"task_switching-rhyme-phon_sim-same_different",2859.09999999963,"task_switching","experiment",83,86,1,"add",NA,26,NA,"Yes","N/A",4.83333333333333,4.6,"high_verbal",86,80,147,81.8407000000011,"add",1,1,1
"336","4FubSY7J","uncued",261,752724,"task_switching-rhyme-phon_sim-same_different",4107.80000000075,"task_switching","experiment",92,89,1,"subtract",NA,27,NA,"Yes","N/A",4.83333333333333,4.6,"high_verbal",95,89,148,81.8407000000011,"subtract",1,1,1
"337","4FubSY7J","uncued",262,755074,"task_switching-rhyme-phon_sim-same_different",2347.80000000075,"task_switching","experiment",61,64,1,"add",NA,28,NA,"Yes","N/A",4.83333333333333,4.6,"high_verbal",64,58,149,81.8407000000011,"add",1,1,1
"338","4FubSY7J","uncued",263,758926,"task_switching-rhyme-phon_sim-same_different",3850.09999999963,"task_switching","experiment",27,24,1,"subtract",NA,29,NA,"Yes","N/A",4.83333333333333,4.6,"high_verbal",30,24,150,81.8407000000011,"subtract",1,1,1
"339","4KFmznfv","uncued",1300,2109417,"rhyme-phon_sim-same_different-task_switching",1419.09999990463,"task_switching","experiment",31,34,1,"add",NA,0,NA,"No","no_answer",3.08333333333333,3.2,"low_verbal",34,28,121,75.1977999999523,"add",1,1,1
"340","4KFmznfv","uncued",1301,2111762,"rhyme-phon_sim-same_different-task_switching",2341.70000004768,"task_switching","experiment",75,72,1,"subtract",NA,1,NA,"No","no_answer",3.08333333333333,3.2,"low_verbal",78,72,122,75.1977999999523,"subtract",1,1,1
"341","4KFmznfv","uncued",1302,2114354,"rhyme-phon_sim-same_different-task_switching",2588.5,"task_switching","experiment",76,79,1,"add",NA,2,NA,"No","no_answer",3.08333333333333,3.2,"low_verbal",79,73,123,75.1977999999523,"add",1,1,1
"342","4KFmznfv","uncued",1303,2115994,"rhyme-phon_sim-same_different-task_switching",1636.29999995232,"task_switching","experiment",69,66,1,"subtract",NA,3,NA,"No","no_answer",3.08333333333333,3.2,"low_verbal",72,66,124,75.1977999999523,"subtract",1,1,1
"343","4KFmznfv","uncued",1304,2117769,"rhyme-phon_sim-same_different-task_switching",1771.40000009537,"task_switching","experiment",96,99,1,"add",NA,4,NA,"No","no_answer",3.08333333333333,3.2,"low_verbal",99,93,125,75.1977999999523,"add",1,1,1
"344","4KFmznfv","uncued",1305,2119451,"rhyme-phon_sim-same_different-task_switching",1677.80000019073,"task_switching","experiment",64,61,1,"subtract",NA,5,NA,"No","no_answer",3.08333333333333,3.2,"low_verbal",67,61,126,75.1977999999523,"subtract",1,1,1
"345","4KFmznfv","uncued",1306,2121091,"rhyme-phon_sim-same_different-task_switching",1636.39999985695,"task_switching","experiment",21,24,1,"add",NA,6,NA,"No","no_answer",3.08333333333333,3.2,"low_verbal",24,18,127,75.1977999999523,"add",1,1,1
"346","4KFmznfv","uncued",1307,2123379,"rhyme-phon_sim-same_different-task_switching",2284.29999995232,"task_switching","experiment",92,89,1,"subtract",NA,7,NA,"No","no_answer",3.08333333333333,3.2,"low_verbal",95,89,128,75.1977999999523,"subtract",1,1,1
"347","4KFmznfv","uncued",1308,2130574,"rhyme-phon_sim-same_different-task_switching",7192,"task_switching","experiment",78,81,1,"add",NA,8,NA,"No","no_answer",3.08333333333333,3.2,"low_verbal",81,75,129,75.1977999999523,"add",1,1,1
"348","4KFmznfv","uncued",1309,2132619,"rhyme-phon_sim-same_different-task_switching",2040.70000004768,"task_switching","experiment",19,16,1,"subtract",NA,9,NA,"No","no_answer",3.08333333333333,3.2,"low_verbal",22,16,130,75.1977999999523,"subtract",1,1,1
"349","4KFmznfv","uncued",1310,2134572,"rhyme-phon_sim-same_different-task_switching",1950.59999990463,"task_switching","experiment",27,30,1,"add",NA,10,NA,"No","no_answer",3.08333333333333,3.2,"low_verbal",30,24,131,75.1977999999523,"add",1,1,1
"350","4KFmznfv","uncued",1311,2138264,"rhyme-phon_sim-same_different-task_switching",3687.79999995232,"task_switching","experiment",80,77,1,"subtract",NA,11,NA,"No","no_answer",3.08333333333333,3.2,"low_verbal",83,77,132,75.1977999999523,"subtract",1,1,1
"351","4KFmznfv","uncued",1312,2139677,"rhyme-phon_sim-same_different-task_switching",1408.70000004768,"task_switching","experiment",52,55,1,"add",NA,12,NA,"No","no_answer",3.08333333333333,3.2,"low_verbal",55,49,133,75.1977999999523,"add",1,1,1
"352","4KFmznfv","uncued",1313,2141663,"rhyme-phon_sim-same_different-task_switching",1982.10000014305,"task_switching","experiment",18,15,1,"subtract",NA,13,NA,"No","no_answer",3.08333333333333,3.2,"low_verbal",21,15,134,75.1977999999523,"subtract",1,1,1
"353","4KFmznfv","uncued",1314,2143402,"rhyme-phon_sim-same_different-task_switching",1736,"task_switching","experiment",17,20,1,"add",NA,14,NA,"No","no_answer",3.08333333333333,3.2,"low_verbal",20,14,135,75.1977999999523,"add",1,1,1
"354","4KFmznfv","uncued",1315,2144977,"rhyme-phon_sim-same_different-task_switching",1570.79999995232,"task_switching","experiment",22,19,1,"subtract",NA,15,NA,"No","no_answer",3.08333333333333,3.2,"low_verbal",25,19,136,75.1977999999523,"subtract",1,1,1
"355","4KFmznfv","uncued",1316,2146618,"rhyme-phon_sim-same_different-task_switching",1637.79999995232,"task_switching","experiment",37,40,1,"add",NA,16,NA,"No","no_answer",3.08333333333333,3.2,"low_verbal",40,34,137,75.1977999999523,"add",1,1,1
"356","4KFmznfv","uncued",1317,2151450,"rhyme-phon_sim-same_different-task_switching",4827.90000009537,"task_switching","experiment",57,54,1,"subtract",NA,17,NA,"No","no_answer",3.08333333333333,3.2,"low_verbal",60,54,138,75.1977999999523,"subtract",1,1,1
"357","4KFmznfv","uncued",1318,2156193,"rhyme-phon_sim-same_different-task_switching",4738.19999980927,"task_switching","experiment",83,86,1,"add",NA,18,NA,"No","no_answer",3.08333333333333,3.2,"low_verbal",86,80,139,75.1977999999523,"add",1,1,1
"358","4KFmznfv","uncued",1319,2158759,"rhyme-phon_sim-same_different-task_switching",2562.69999980927,"task_switching","experiment",14,11,1,"subtract",NA,19,NA,"No","no_answer",3.08333333333333,3.2,"low_verbal",17,11,140,75.1977999999523,"subtract",1,1,1
"359","4KFmznfv","uncued",1320,2160656,"rhyme-phon_sim-same_different-task_switching",1892.79999995232,"task_switching","experiment",72,75,1,"add",NA,20,NA,"No","no_answer",3.08333333333333,3.2,"low_verbal",75,69,141,75.1977999999523,"add",1,1,1
"360","4KFmznfv","uncued",1321,2163137,"rhyme-phon_sim-same_different-task_switching",2477.5,"task_switching","experiment",91,88,1,"subtract",NA,21,NA,"No","no_answer",3.08333333333333,3.2,"low_verbal",94,88,142,75.1977999999523,"subtract",1,1,1
"361","4KFmznfv","uncued",1322,2167063,"rhyme-phon_sim-same_different-task_switching",3921.40000009537,"task_switching","experiment",50,53,1,"add",NA,22,NA,"No","no_answer",3.08333333333333,3.2,"low_verbal",53,47,143,75.1977999999523,"add",1,1,1
"362","4KFmznfv","uncued",1323,2169507,"rhyme-phon_sim-same_different-task_switching",2440.5,"task_switching","experiment",84,81,1,"subtract",NA,23,NA,"No","no_answer",3.08333333333333,3.2,"low_verbal",87,81,144,75.1977999999523,"subtract",1,1,1
"363","4KFmznfv","uncued",1324,2171083,"rhyme-phon_sim-same_different-task_switching",1572,"task_switching","experiment",56,59,1,"add",NA,24,NA,"No","no_answer",3.08333333333333,3.2,"low_verbal",59,53,145,75.1977999999523,"add",1,1,1
"364","4KFmznfv","uncued",1325,2173385,"rhyme-phon_sim-same_different-task_switching",2298.30000019073,"task_switching","experiment",44,41,1,"subtract",NA,25,NA,"No","no_answer",3.08333333333333,3.2,"low_verbal",47,41,146,75.1977999999523,"subtract",1,1,1
"365","4KFmznfv","uncued",1326,2176129,"rhyme-phon_sim-same_different-task_switching",2741.10000014305,"task_switching","experiment",79,82,1,"add",NA,26,NA,"No","no_answer",3.08333333333333,3.2,"low_verbal",82,76,147,75.1977999999523,"add",1,1,1
"366","4KFmznfv","uncued",1327,2178809,"rhyme-phon_sim-same_different-task_switching",2676.29999995232,"task_switching","experiment",89,86,1,"subtract",NA,27,NA,"No","no_answer",3.08333333333333,3.2,"low_verbal",92,86,148,75.1977999999523,"subtract",1,1,1
"367","4KFmznfv","uncued",1328,2181606,"rhyme-phon_sim-same_different-task_switching",2793.39999985695,"task_switching","experiment",29,32,1,"add",NA,28,NA,"No","no_answer",3.08333333333333,3.2,"low_verbal",32,26,149,75.1977999999523,"add",1,1,1
"368","4KFmznfv","uncued",1329,2183304,"rhyme-phon_sim-same_different-task_switching",1693.70000004768,"task_switching","experiment",33,30,1,"subtract",NA,29,NA,"No","no_answer",3.08333333333333,3.2,"low_verbal",36,30,150,75.1977999999523,"subtract",1,1,1
"369","5WF1GwNy","uncued",438,1129734,"rhyme-phon_sim-task_switching-same_different",1487.10000014305,"task_switching","experiment",17,20,1,"add",NA,0,NA,"No","no",1.33,1.9,"low_verbal",20,14,91,62.4236000013351,"add",1,1,1
"370","5WF1GwNy","uncued",439,1131742,"rhyme-phon_sim-task_switching-same_different",2005.59999990463,"task_switching","experiment",92,89,1,"subtract",NA,1,NA,"No","no",1.33,1.9,"low_verbal",95,89,92,62.4236000013351,"subtract",1,1,1
"371","5WF1GwNy","uncued",440,1133226,"rhyme-phon_sim-task_switching-same_different",1482.70000004768,"task_switching","experiment",73,76,1,"add",NA,2,NA,"No","no",1.33,1.9,"low_verbal",76,70,93,62.4236000013351,"add",1,1,1
"372","5WF1GwNy","uncued",441,1135132,"rhyme-phon_sim-task_switching-same_different",1903.70000004768,"task_switching","experiment",91,88,1,"subtract",NA,3,NA,"No","no",1.33,1.9,"low_verbal",94,88,94,62.4236000013351,"subtract",1,1,1
"373","5WF1GwNy","uncued",442,1136500,"rhyme-phon_sim-task_switching-same_different",1366.60000014305,"task_switching","experiment",41,44,1,"add",NA,4,NA,"No","no",1.33,1.9,"low_verbal",44,38,95,62.4236000013351,"add",1,1,1
"374","5WF1GwNy","uncued",443,1138836,"rhyme-phon_sim-task_switching-same_different",2335,"task_switching","experiment",24,21,1,"subtract",NA,5,NA,"No","no",1.33,1.9,"low_verbal",27,21,96,62.4236000013351,"subtract",1,1,1
"375","5WF1GwNy","uncued",444,1140800,"rhyme-phon_sim-task_switching-same_different",1962.5,"task_switching","experiment",95,98,1,"add",NA,6,NA,"No","no",1.33,1.9,"low_verbal",98,92,97,62.4236000013351,"add",1,1,1
"376","5WF1GwNy","uncued",445,1142796,"rhyme-phon_sim-task_switching-same_different",1993.30000019073,"task_switching","experiment",19,16,1,"subtract",NA,7,NA,"No","no",1.33,1.9,"low_verbal",22,16,98,62.4236000013351,"subtract",1,1,1
"377","5WF1GwNy","uncued",446,1145288,"rhyme-phon_sim-task_switching-same_different",2491,"task_switching","experiment",58,61,1,"add",NA,8,NA,"No","no",1.33,1.9,"low_verbal",61,55,99,62.4236000013351,"add",1,1,1
"378","5WF1GwNy","uncued",447,1147086,"rhyme-phon_sim-task_switching-same_different",1796.10000014305,"task_switching","experiment",46,43,1,"subtract",NA,9,NA,"No","no",1.33,1.9,"low_verbal",49,43,100,62.4236000013351,"subtract",1,1,1
"379","5WF1GwNy","uncued",448,1148674,"rhyme-phon_sim-task_switching-same_different",1586.20000004768,"task_switching","experiment",56,59,1,"add",NA,10,NA,"No","no",1.33,1.9,"low_verbal",59,53,101,62.4236000013351,"add",1,1,1
"380","5WF1GwNy","uncued",449,1150422,"rhyme-phon_sim-task_switching-same_different",1746.10000014305,"task_switching","experiment",93,90,1,"subtract",NA,11,NA,"No","no",1.33,1.9,"low_verbal",96,90,102,62.4236000013351,"subtract",1,1,1
"381","5WF1GwNy","uncued",450,1157051,"rhyme-phon_sim-task_switching-same_different",6626.89999985695,"task_switching","experiment",27,30,1,"add",NA,12,NA,"No","no",1.33,1.9,"low_verbal",30,24,103,62.4236000013351,"add",1,1,1
"382","5WF1GwNy","uncued",451,1158680,"rhyme-phon_sim-task_switching-same_different",1626.90000009537,"task_switching","experiment",52,49,1,"subtract",NA,13,NA,"No","no",1.33,1.9,"low_verbal",55,49,104,62.4236000013351,"subtract",1,1,1
"383","5WF1GwNy","uncued",452,1160223,"rhyme-phon_sim-task_switching-same_different",1541.10000014305,"task_switching","experiment",64,67,1,"add",NA,14,NA,"No","no",1.33,1.9,"low_verbal",67,61,105,62.4236000013351,"add",1,1,1
"384","5WF1GwNy","uncued",453,1161715,"rhyme-phon_sim-task_switching-same_different",1490.79999995232,"task_switching","experiment",45,42,1,"subtract",NA,15,NA,"No","no",1.33,1.9,"low_verbal",48,42,106,62.4236000013351,"subtract",1,1,1
"385","5WF1GwNy","uncued",454,1163652,"rhyme-phon_sim-task_switching-same_different",1934.5,"task_switching","experiment",30,33,1,"add",NA,16,NA,"No","no",1.33,1.9,"low_verbal",33,27,107,62.4236000013351,"add",1,1,1
"386","5WF1GwNy","uncued",455,1166087,"rhyme-phon_sim-task_switching-same_different",2433.40000009537,"task_switching","experiment",76,73,1,"subtract",NA,17,NA,"No","no",1.33,1.9,"low_verbal",79,73,108,62.4236000013351,"subtract",1,1,1
"387","5WF1GwNy","uncued",456,1167793,"rhyme-phon_sim-task_switching-same_different",1704.5,"task_switching","experiment",28,31,1,"add",NA,18,NA,"No","no",1.33,1.9,"low_verbal",31,25,109,62.4236000013351,"add",1,1,1
"388","5WF1GwNy","uncued",457,1170182,"rhyme-phon_sim-task_switching-same_different",2387.09999990463,"task_switching","experiment",55,52,1,"subtract",NA,19,NA,"No","no",1.33,1.9,"low_verbal",58,52,110,62.4236000013351,"subtract",1,1,1
"389","5WF1GwNy","uncued",458,1171682,"rhyme-phon_sim-task_switching-same_different",1498.79999995232,"task_switching","experiment",21,24,1,"add",NA,20,NA,"No","no",1.33,1.9,"low_verbal",24,18,111,62.4236000013351,"add",1,1,1
"390","5WF1GwNy","uncued",459,1173425,"rhyme-phon_sim-task_switching-same_different",1741.69999980927,"task_switching","experiment",18,15,1,"subtract",NA,21,NA,"No","no",1.33,1.9,"low_verbal",21,15,112,62.4236000013351,"subtract",1,1,1
"391","5WF1GwNy","uncued",460,1175503,"rhyme-phon_sim-task_switching-same_different",2076.20000004768,"task_switching","experiment",13,16,1,"add",NA,22,NA,"No","no",1.33,1.9,"low_verbal",16,10,113,62.4236000013351,"add",1,1,1
"392","5WF1GwNy","uncued",461,1177158,"rhyme-phon_sim-task_switching-same_different",1653.40000009537,"task_switching","experiment",35,32,1,"subtract",NA,23,NA,"No","no",1.33,1.9,"low_verbal",38,32,114,62.4236000013351,"subtract",1,1,1
"393","5WF1GwNy","uncued",462,1179021,"rhyme-phon_sim-task_switching-same_different",1860.40000009537,"task_switching","experiment",66,69,1,"add",NA,24,NA,"No","no",1.33,1.9,"low_verbal",69,63,115,62.4236000013351,"add",1,1,1
"394","5WF1GwNy","uncued",463,1182589,"rhyme-phon_sim-task_switching-same_different",3566.10000014305,"task_switching","experiment",68,95,0,"subtract",NA,25,NA,"No","no",1.33,1.9,"low_verbal",71,65,116,62.4236000013351,"add",0,0,0
"395","5WF1GwNy","uncued",464,1184534,"rhyme-phon_sim-task_switching-same_different",1943.20000004768,"task_switching","experiment",44,47,1,"add",NA,26,NA,"No","no",1.33,1.9,"low_verbal",47,41,117,62.4236000013351,"add",1,1,0
"396","5WF1GwNy","uncued",465,1187218,"rhyme-phon_sim-task_switching-same_different",2682.40000009537,"task_switching","experiment",81,78,1,"subtract",NA,27,NA,"No","no",1.33,1.9,"low_verbal",84,78,118,62.4236000013351,"subtract",1,1,1
"397","5WF1GwNy","uncued",466,1188751,"rhyme-phon_sim-task_switching-same_different",1531.40000009537,"task_switching","experiment",90,93,1,"add",NA,28,NA,"No","no",1.33,1.9,"low_verbal",93,87,119,62.4236000013351,"add",1,1,1
"398","5WF1GwNy","uncued",467,1190721,"rhyme-phon_sim-task_switching-same_different",1968.90000009537,"task_switching","experiment",50,47,1,"subtract",NA,29,NA,"No","no",1.33,1.9,"low_verbal",53,47,120,62.4236000013351,"subtract",1,1,1
"399","79p4hVcb","uncued",189,1277496,"phon_sim-task_switching-same_different-rhyme",7427.10000002384,"task_switching","experiment",74,77,1,"add",NA,0,NA,"Yes","Nothing else to add.",4.5,4.1,"high_verbal",77,71,61,83.1956999998093,"add",1,1,1
"400","79p4hVcb","uncued",190,1282360,"phon_sim-task_switching-same_different-rhyme",4861.29999995232,"task_switching","experiment",78,75,1,"subtract",NA,1,NA,"Yes","Nothing else to add.",4.5,4.1,"high_verbal",81,75,62,83.1956999998093,"subtract",1,1,1
"401","79p4hVcb","uncued",191,1285720,"phon_sim-task_switching-same_different-rhyme",3358.69999992847,"task_switching","experiment",76,79,1,"add",NA,2,NA,"Yes","Nothing else to add.",4.5,4.1,"high_verbal",79,73,63,83.1956999998093,"add",1,1,1
"402","79p4hVcb","uncued",192,1293992,"phon_sim-task_switching-same_different-rhyme",8270,"task_switching","experiment",48,45,1,"subtract",NA,3,NA,"Yes","Nothing else to add.",4.5,4.1,"high_verbal",51,45,64,83.1956999998093,"subtract",1,1,1
"403","79p4hVcb","uncued",193,1297064,"phon_sim-task_switching-same_different-rhyme",3069.69999992847,"task_switching","experiment",34,37,1,"add",NA,4,NA,"Yes","Nothing else to add.",4.5,4.1,"high_verbal",37,31,65,83.1956999998093,"add",1,1,1
"404","79p4hVcb","uncued",194,1300480,"phon_sim-task_switching-same_different-rhyme",3413.89999997616,"task_switching","experiment",66,63,1,"subtract",NA,5,NA,"Yes","Nothing else to add.",4.5,4.1,"high_verbal",69,63,66,83.1956999998093,"subtract",1,1,1
"405","79p4hVcb","uncued",195,1302928,"phon_sim-task_switching-same_different-rhyme",2445.89999997616,"task_switching","experiment",67,70,1,"add",NA,6,NA,"Yes","Nothing else to add.",4.5,4.1,"high_verbal",70,64,67,83.1956999998093,"add",1,1,1
