"success","timeout","failed_images","failed_audio","failed_video","trial_type","trial_index","time_elapsed","internal_node_id","worker_id","start_time","experiment_order","view_history","rt","experiment","stimulus","response","wait_time","correct","phase","image_1","image_2","cor_key","type","question_order","talk_out_loud","strategy_free_ans","judgment_type","stim_1","stim_2","inverted","answer","true_neg","false_neg","true_pos","false_pos","word_1","word_2","word_3","word_4","word_5","original_word_set","response_1","response_2","response_3","response_4","response_5","condition","operation","trial_no","symbol_cue"
"true","false","[]","[]","[]","preload","0","3175","0.0-0.0","A304UJAE051J89","2022-05-19T12:34:06.060Z","rhyme-same_different-phon_sim-task_switching","","","","","","","","","","","","","","","","","","","","","","","","","","","","","","","","","","","","","","",""
"","","","","","instructions","1","55398","0.0-1.0","A304UJAE051J89","2022-05-19T12:34:06.060Z","rhyme-same_different-phon_sim-task_switching","[{""page_index"":0,""viewing_time"":52220.60000002384}]","52221","","","","","","","","","","","","","","","","","","","","","","","","","","","","","","","","","","","","",""
"true","","","","","fullscreen","2","774011","0.0-2.0","A304UJAE051J89","2022-05-19T12:34:06.060Z","rhyme-same_different-phon_sim-task_switching","","","","","","","","","","","","","","","","","","","","","","","","","","","","","","","","","","","","","","",""
"","","","","","instructions","3","819713","0.0-3.0","A304UJAE051J89","2022-05-19T12:34:06.060Z","rhyme-same_different-phon_sim-task_switching","[{""page_index"":0,""viewing_time"":45699.5}]","45700","rhyme","","","","","","","","","","","","","","","","","","","","","","","","","","","","","","","","","","","",""
"","","","","","html-keyboard-response","4","820222","0.0-4.0-0.0","A304UJAE051J89","2022-05-19T12:34:06.060Z","rhyme-same_different-phon_sim-task_switching","","null","rhyme","<div style=""font-size:60px;"">+</div>","null","500","","","","","","","","","","","","","","","","","","","","","","","","","","","","","","","","",""
"","","","","","html-keyboard-response","5","820738","0.0-4.0-1.0","A304UJAE051J89","2022-05-19T12:34:06.060Z","rhyme-same_different-phon_sim-task_switching","","null","rhyme","<img src=""square.png"" width=""306"" height=""306"" style=""position: fixed;left:14%;top:30%""><img src=""square.png"" width=""306"" height=""306"" style=""position: fixed;left:64%;top:30%"">","null","","","","","","","","","","","","","","","","","","","","","","","","","","","","","","","","","",""
"","","","","","categorize-html","6","824283","0.0-4.0-2.0","A304UJAE051J89","2022-05-19T12:34:06.060Z","rhyme-same_different-phon_sim-task_switching","","2519.199999988079","rhyme","<div style=""border: 3px solid #000000; position: fixed;left:14%;top:30%""><img src=""visual/house.png"" width=""300""></div><div style=""border: 3px solid #000000; position: fixed;left:64%;top:30%""><img src=""visual/mouse.png"" width=""300""></div>","arrowup","","true","training","visual/house.png","visual/mouse.png","ArrowUp","NA","","","","","","","","","","","","","","","","","","","","","","","","","","",""
"","","","","","html-keyboard-response","7","824547","0.0-4.0-0.1","A304UJAE051J89","2022-05-19T12:34:06.060Z","rhyme-same_different-phon_sim-task_switching","","null","rhyme","<div style=""font-size:60px;"">+</div>","null","250","","","","","","","","","","","","","","","","","","","","","","","","","","","","","","","","",""
"","","","","","html-keyboard-response","8","825058","0.0-4.0-1.1","A304UJAE051J89","2022-05-19T12:34:06.060Z","rhyme-same_different-phon_sim-task_switching","","null","rhyme","<img src=""square.png"" width=""306"" height=""306"" style=""position: fixed;left:14%;top:30%""><img src=""square.png"" width=""306"" height=""306"" style=""position: fixed;left:64%;top:30%"">","null","","","","","","","","","","","","","","","","","","","","","","","","","","","","","","","","","",""
"","","","","","categorize-html","9","827926","0.0-4.0-2.1","A304UJAE051J89","2022-05-19T12:34:06.060Z","rhyme-same_different-phon_sim-task_switching","","1845","rhyme","<div style=""border: 3px solid #000000; position: fixed;left:14%;top:30%""><img src=""visual/dress.png"" width=""300""></div><div style=""border: 3px solid #000000; position: fixed;left:64%;top:30%""><img src=""visual/chess.png"" width=""300""></div>","arrowup","","true","training","visual/dress.png","visual/chess.png","ArrowUp","NA","","","","","","","","","","","","","","","","","","","","","","","","","","",""
"","","","","","html-keyboard-response","10","828438","0.0-4.0-0.2","A304UJAE051J89","2022-05-19T12:34:06.060Z","rhyme-same_different-phon_sim-task_switching","","null","rhyme","<div style=""font-size:60px;"">+</div>","null","500","","","","","","","","","","","","","","","","","","","","","","","","","","","","","","","","",""
"","","","","","html-keyboard-response","11","828944","0.0-4.0-1.2","A304UJAE051J89","2022-05-19T12:34:06.060Z","rhyme-same_different-phon_sim-task_switching","","null","rhyme","<img src=""square.png"" width=""306"" height=""306"" style=""position: fixed;left:14%;top:30%""><img src=""square.png"" width=""306"" height=""306"" style=""position: fixed;left:64%;top:30%"">","null","","","","","","","","","","","","","","","","","","","","","","","","","","","","","","","","","",""
"","","","","","categorize-html","12","831579","0.0-4.0-2.2","A304UJAE051J89","2022-05-19T12:34:06.060Z","rhyme-same_different-phon_sim-task_switching","","1612.800000011921","rhyme","<div style=""border: 3px solid #000000; position: fixed;left:14%;top:30%""><img src=""visual/chess.png"" width=""300""></div><div style=""border: 3px solid #000000; position: fixed;left:64%;top:30%""><img src=""visual/suit.png"" width=""300""></div>","arrowdown","","true","training","visual/chess.png","visual/suit.png","ArrowDown","NA","","","","","","","","","","","","","","","","","","","","","","","","","","",""
"","","","","","html-keyboard-response","13","831833","0.0-4.0-0.3","A304UJAE051J89","2022-05-19T12:34:06.060Z","rhyme-same_different-phon_sim-task_switching","","null","rhyme","<div style=""font-size:60px;"">+</div>","null","250","","","","","","","","","","","","","","","","","","","","","","","","","","","","","","","","",""
"","","","","","html-keyboard-response","14","832346","0.0-4.0-1.3","A304UJAE051J89","2022-05-19T12:34:06.060Z","rhyme-same_different-phon_sim-task_switching","","null","rhyme","<img src=""square.png"" width=""306"" height=""306"" style=""position: fixed;left:14%;top:30%""><img src=""square.png"" width=""306"" height=""306"" style=""position: fixed;left:64%;top:30%"">","null","","","","","","","","","","","","","","","","","","","","","","","","","","","","","","","","","",""
"","","","","","categorize-html","15","835013","0.0-4.0-2.3","A304UJAE051J89","2022-05-19T12:34:06.060Z","rhyme-same_different-phon_sim-task_switching","","1648.5","rhyme","<div style=""border: 3px solid #000000; position: fixed;left:14%;top:30%""><img src=""visual/mouse.png"" width=""300""></div><div style=""border: 3px solid #000000; position: fixed;left:64%;top:30%""><img src=""visual/dress.png"" width=""300""></div>","arrowdown","","true","training","visual/mouse.png","visual/dress.png","ArrowDown","NA","","","","","","","","","","","","","","","","","","","","","","","","","","",""
"","","","","","instructions","16","2375019","0.0-5.0","A304UJAE051J89","2022-05-19T12:34:06.060Z","rhyme-same_different-phon_sim-task_switching","[{""page_index"":0,""viewing_time"":1540009.800000012}]","1540010.3999999762","","","","","","","","","","","","","","","","","","","","","","","","","","","","","","","","","","","","",""
"","","","","","html-keyboard-response","17","2376036","0.0-6.0-0.0","A304UJAE051J89","2022-05-19T12:34:06.060Z","rhyme-same_different-phon_sim-task_switching","","null","rhyme","<div style=""font-size:60px;"">+</div>","null","1000","","","","","","","","","","","","","","","","","","","","","","","","","","","","","","","","",""
"","","","","","html-keyboard-response","18","2376552","0.0-6.0-1.0","A304UJAE051J89","2022-05-19T12:34:06.060Z","rhyme-same_different-phon_sim-task_switching","","null","rhyme","<img src=""square.png"" width=""306"" height=""306"" style=""position: fixed;left:14%;top:30%""><img src=""square.png"" width=""306"" height=""306"" style=""position: fixed;left:64%;top:30%"">","null","","","","","","","","","","","","","","","","","","","","","","","","","","","","","","","","","",""
"","","","","","html-keyboard-response","19","2379038","0.0-6.0-2.0","A304UJAE051J89","2022-05-19T12:34:06.060Z","rhyme-same_different-phon_sim-task_switching","","2479.800000011921","rhyme","<div style=""border: 3px solid #000000; position: fixed;left:14%;top:30%""><img src=""visual/egg.png"" width=""300""></div><div style=""border: 3px solid #000000; position: fixed;left:64%;top:30%""><img src=""visual/leg.png"" width=""300""></div>","arrowup","","true","experiment","visual/egg.png","visual/leg.png","ArrowUp","ortho","","","","","","","","","","","","","","","","","","","","","","","","","","",""
"","","","","","html-keyboard-response","20","2379301","0.0-6.0-0.1","A304UJAE051J89","2022-05-19T12:34:06.060Z","rhyme-same_different-phon_sim-task_switching","","null","rhyme","<div style=""font-size:60px;"">+</div>","null","250","","","","","","","","","","","","","","","","","","","","","","","","","","","","","","","","",""
"","","","","","html-keyboard-response","21","2379820","0.0-6.0-1.1","A304UJAE051J89","2022-05-19T12:34:06.060Z","rhyme-same_different-phon_sim-task_switching","","null","rhyme","<img src=""square.png"" width=""306"" height=""306"" style=""position: fixed;left:14%;top:30%""><img src=""square.png"" width=""306"" height=""306"" style=""position: fixed;left:64%;top:30%"">","null","","","","","","","","","","","","","","","","","","","","","","","","","","","","","","","","","",""
"","","","","","html-keyboard-response","22","2381537","0.0-6.0-2.1","A304UJAE051J89","2022-05-19T12:34:06.060Z","rhyme-same_different-phon_sim-task_switching","","1713","rhyme","<div style=""border: 3px solid #000000; position: fixed;left:14%;top:30%""><img src=""visual/egg.png"" width=""300""></div><div style=""border: 3px solid #000000; position: fixed;left:64%;top:30%""><img src=""visual/ring.png"" width=""300""></div>","arrowdown","","true","experiment","visual/egg.png","visual/ring.png","ArrowDown","NR","","","","","","","","","","","","","","","","","","","","","","","","","","",""
"","","","","","html-keyboard-response","23","2382551","0.0-6.0-0.2","A304UJAE051J89","2022-05-19T12:34:06.060Z","rhyme-same_different-phon_sim-task_switching","","null","rhyme","<div style=""font-size:60px;"">+</div>","null","1000","","","","","","","","","","","","","","","","","","","","","","","","","","","","","","","","",""
"","","","","","html-keyboard-response","24","2383073","0.0-6.0-1.2","A304UJAE051J89","2022-05-19T12:34:06.060Z","rhyme-same_different-phon_sim-task_switching","","null","rhyme","<img src=""square.png"" width=""306"" height=""306"" style=""position: fixed;left:14%;top:30%""><img src=""square.png"" width=""306"" height=""306"" style=""position: fixed;left:64%;top:30%"">","null","","","","","","","","","","","","","","","","","","","","","","","","","","","","","","","","","",""
"","","","","","html-keyboard-response","25","2385508","0.0-6.0-2.2","A304UJAE051J89","2022-05-19T12:34:06.060Z","rhyme-same_different-phon_sim-task_switching","","2429.100000023842","rhyme","<div style=""border: 3px solid #000000; position: fixed;left:14%;top:30%""><img src=""visual/eye.png"" width=""300""></div><div style=""border: 3px solid #000000; position: fixed;left:64%;top:30%""><img src=""visual/tie.png"" width=""300""></div>","arrowup","","true","experiment","visual/eye.png","visual/tie.png","ArrowUp","non-ortho","","","","","","","","","","","","","","","","","","","","","","","","","","",""
"","","","","","html-keyboard-response","26","2385769","0.0-6.0-0.3","A304UJAE051J89","2022-05-19T12:34:06.060Z","rhyme-same_different-phon_sim-task_switching","","null","rhyme","<div style=""font-size:60px;"">+</div>","null","250","","","","","","","","","","","","","","","","","","","","","","","","","","","","","","","","",""
"","","","","","html-keyboard-response","27","2386284","0.0-6.0-1.3","A304UJAE051J89","2022-05-19T12:34:06.060Z","rhyme-same_different-phon_sim-task_switching","","null","rhyme","<img src=""square.png"" width=""306"" height=""306"" style=""position: fixed;left:14%;top:30%""><img src=""square.png"" width=""306"" height=""306"" style=""position: fixed;left:64%;top:30%"">","null","","","","","","","","","","","","","","","","","","","","","","","","","","","","","","","","","",""
"","","","","","html-keyboard-response","28","2388538","0.0-6.0-2.3","A304UJAE051J89","2022-05-19T12:34:06.060Z","rhyme-same_different-phon_sim-task_switching","","2248.5","rhyme","<div style=""border: 3px solid #000000; position: fixed;left:14%;top:30%""><img src=""visual/tree.png"" width=""300""></div><div style=""border: 3px solid #000000; position: fixed;left:64%;top:30%""><img src=""visual/door.png"" width=""300""></div>","arrowdown","","true","experiment","visual/tree.png","visual/door.png","ArrowDown","NR","","","","","","","","","","","","","","","","","","","","","","","","","","",""
"","","","","","html-keyboard-response","29","2388791","0.0-6.0-0.4","A304UJAE051J89","2022-05-19T12:34:06.060Z","rhyme-same_different-phon_sim-task_switching","","null","rhyme","<div style=""font-size:60px;"">+</div>","null","250","","","","","","","","","","","","","","","","","","","","","","","","","","","","","","","","",""
"","","","","","html-keyboard-response","30","2389301","0.0-6.0-1.4","A304UJAE051J89","2022-05-19T12:34:06.060Z","rhyme-same_different-phon_sim-task_switching","","null","rhyme","<img src=""square.png"" width=""306"" height=""306"" style=""position: fixed;left:14%;top:30%""><img src=""square.png"" width=""306"" height=""306"" style=""position: fixed;left:64%;top:30%"">","null","","","","","","","","","","","","","","","","","","","","","","","","","","","","","","","","","",""
"","","","","","html-keyboard-response","31","2392682","0.0-6.0-2.4","A304UJAE051J89","2022-05-19T12:34:06.060Z","rhyme-same_different-phon_sim-task_switching","","3375","rhyme","<div style=""border: 3px solid #000000; position: fixed;left:14%;top:30%""><img src=""visual/bear.png"" width=""300""></div><div style=""border: 3px solid #000000; position: fixed;left:64%;top:30%""><img src=""visual/crane.png"" width=""300""></div>","arrowdown","","true","experiment","visual/bear.png","visual/crane.png","ArrowDown","NR","","","","","","","","","","","","","","","","","","","","","","","","","","",""
"","","","","","html-keyboard-response","32","2392950","0.0-6.0-0.5","A304UJAE051J89","2022-05-19T12:34:06.060Z","rhyme-same_different-phon_sim-task_switching","","null","rhyme","<div style=""font-size:60px;"">+</div>","null","250","","","","","","","","","","","","","","","","","","","","","","","","","","","","","","","","",""
"","","","","","html-keyboard-response","33","2393472","0.0-6.0-1.5","A304UJAE051J89","2022-05-19T12:34:06.060Z","rhyme-same_different-phon_sim-task_switching","","null","rhyme","<img src=""square.png"" width=""306"" height=""306"" style=""position: fixed;left:14%;top:30%""><img src=""square.png"" width=""306"" height=""306"" style=""position: fixed;left:64%;top:30%"">","null","","","","","","","","","","","","","","","","","","","","","","","","","","","","","","","","","",""
"","","","","","html-keyboard-response","34","2395715","0.0-6.0-2.5","A304UJAE051J89","2022-05-19T12:34:06.060Z","rhyme-same_different-phon_sim-task_switching","","2235.5","rhyme","<div style=""border: 3px solid #000000; position: fixed;left:14%;top:30%""><img src=""visual/spoon.png"" width=""300""></div><div style=""border: 3px solid #000000; position: fixed;left:64%;top:30%""><img src=""visual/moon.png"" width=""300""></div>","arrowup","","true","experiment","visual/spoon.png","visual/moon.png","ArrowUp","ortho","","","","","","","","","","","","","","","","","","","","","","","","","","",""
"","","","","","html-keyboard-response","35","2396469","0.0-6.0-0.6","A304UJAE051J89","2022-05-19T12:34:06.060Z","rhyme-same_different-phon_sim-task_switching","","null","rhyme","<div style=""font-size:60px;"">+</div>","null","750","","","","","","","","","","","","","","","","","","","","","","","","","","","","","","","","",""
"","","","","","html-keyboard-response","36","2396984","0.0-6.0-1.6","A304UJAE051J89","2022-05-19T12:34:06.060Z","rhyme-same_different-phon_sim-task_switching","","null","rhyme","<img src=""square.png"" width=""306"" height=""306"" style=""position: fixed;left:14%;top:30%""><img src=""square.png"" width=""306"" height=""306"" style=""position: fixed;left:64%;top:30%"">","null","","","","","","","","","","","","","","","","","","","","","","","","","","","","","","","","","",""
"","","","","","html-keyboard-response","37","2399641","0.0-6.0-2.6","A304UJAE051J89","2022-05-19T12:34:06.060Z","rhyme-same_different-phon_sim-task_switching","","2653.100000023842","rhyme","<div style=""border: 3px solid #000000; position: fixed;left:14%;top:30%""><img src=""visual/cab.png"" width=""300""></div><div style=""border: 3px solid #000000; position: fixed;left:64%;top:30%""><img src=""visual/crab.png"" width=""300""></div>","arrowdown","","false","experiment","visual/cab.png","visual/crab.png","ArrowUp","ortho","","","","","","","","","","","","","","","","","","","","","","","","","","",""
"","","","","","html-keyboard-response","38","2400651","0.0-6.0-0.7","A304UJAE051J89","2022-05-19T12:34:06.060Z","rhyme-same_different-phon_sim-task_switching","","null","rhyme","<div style=""font-size:60px;"">+</div>","null","1000","","","","","","","","","","","","","","","","","","","","","","","","","","","","","","","","",""
"","","","","","html-keyboard-response","39","2401167","0.0-6.0-1.7","A304UJAE051J89","2022-05-19T12:34:06.060Z","rhyme-same_different-phon_sim-task_switching","","null","rhyme","<img src=""square.png"" width=""306"" height=""306"" style=""position: fixed;left:14%;top:30%""><img src=""square.png"" width=""306"" height=""306"" style=""position: fixed;left:64%;top:30%"">","null","","","","","","","","","","","","","","","","","","","","","","","","","","","","","","","","","",""
"","","","","","html-keyboard-response","40","2402598","0.0-6.0-2.7","A304UJAE051J89","2022-05-19T12:34:06.060Z","rhyme-same_different-phon_sim-task_switching","","1423.5","rhyme","<div style=""border: 3px solid #000000; position: fixed;left:14%;top:30%""><img src=""visual/star.png"" width=""300""></div><div style=""border: 3px solid #000000; position: fixed;left:64%;top:30%""><img src=""visual/jar.png"" width=""300""></div>","arrowup","","true","experiment","visual/star.png","visual/jar.png","ArrowUp","ortho","","","","","","","","","","","","","","","","","","","","","","","","","","",""
"","","","","","html-keyboard-response","41","2403109","0.0-6.0-0.8","A304UJAE051J89","2022-05-19T12:34:06.060Z","rhyme-same_different-phon_sim-task_switching","","null","rhyme","<div style=""font-size:60px;"">+</div>","null","500","","","","","","","","","","","","","","","","","","","","","","","","","","","","","","","","",""
"","","","","","html-keyboard-response","42","2403620","0.0-6.0-1.8","A304UJAE051J89","2022-05-19T12:34:06.060Z","rhyme-same_different-phon_sim-task_switching","","null","rhyme","<img src=""square.png"" width=""306"" height=""306"" style=""position: fixed;left:14%;top:30%""><img src=""square.png"" width=""306"" height=""306"" style=""position: fixed;left:64%;top:30%"">","null","","","","","","","","","","","","","","","","","","","","","","","","","","","","","","","","","",""
"","","","","","html-keyboard-response","43","2405764","0.0-6.0-2.8","A304UJAE051J89","2022-05-19T12:34:06.060Z","rhyme-same_different-phon_sim-task_switching","","2137.600000023842","rhyme","<div style=""border: 3px solid #000000; position: fixed;left:14%;top:30%""><img src=""visual/jar.png"" width=""300""></div><div style=""border: 3px solid #000000; position: fixed;left:64%;top:30%""><img src=""visual/whale.png"" width=""300""></div>","arrowdown","","true","experiment","visual/jar.png","visual/whale.png","ArrowDown","NR","","","","","","","","","","","","","","","","","","","","","","","","","","",""
"","","","","","html-keyboard-response","44","2406772","0.0-6.0-0.9","A304UJAE051J89","2022-05-19T12:34:06.060Z","rhyme-same_different-phon_sim-task_switching","","null","rhyme","<div style=""font-size:60px;"">+</div>","null","1000","","","","","","","","","","","","","","","","","","","","","","","","","","","","","","","","",""
"","","","","","html-keyboard-response","45","2407285","0.0-6.0-1.9","A304UJAE051J89","2022-05-19T12:34:06.060Z","rhyme-same_different-phon_sim-task_switching","","null","rhyme","<img src=""square.png"" width=""306"" height=""306"" style=""position: fixed;left:14%;top:30%""><img src=""square.png"" width=""306"" height=""306"" style=""position: fixed;left:64%;top:30%"">","null","","","","","","","","","","","","","","","","","","","","","","","","","","","","","","","","","",""
"","","","","","html-keyboard-response","46","2409343","0.0-6.0-2.9","A304UJAE051J89","2022-05-19T12:34:06.060Z","rhyme-same_different-phon_sim-task_switching","","2052.600000023842","rhyme","<div style=""border: 3px solid #000000; position: fixed;left:14%;top:30%""><img src=""visual/nose.png"" width=""300""></div><div style=""border: 3px solid #000000; position: fixed;left:64%;top:30%""><img src=""visual/bell.png"" width=""300""></div>","arrowdown","","true","experiment","visual/nose.png","visual/bell.png","ArrowDown","NR","","","","","","","","","","","","","","","","","","","","","","","","","","",""
"","","","","","html-keyboard-response","47","2410104","0.0-6.0-0.10","A304UJAE051J89","2022-05-19T12:34:06.060Z","rhyme-same_different-phon_sim-task_switching","","null","rhyme","<div style=""font-size:60px;"">+</div>","null","750","","","","","","","","","","","","","","","","","","","","","","","","","","","","","","","","",""
"","","","","","html-keyboard-response","48","2410616","0.0-6.0-1.10","A304UJAE051J89","2022-05-19T12:34:06.060Z","rhyme-same_different-phon_sim-task_switching","","null","rhyme","<img src=""square.png"" width=""306"" height=""306"" style=""position: fixed;left:14%;top:30%""><img src=""square.png"" width=""306"" height=""306"" style=""position: fixed;left:64%;top:30%"">","null","","","","","","","","","","","","","","","","","","","","","","","","","","","","","","","","","",""
"","","","","","html-keyboard-response","49","2412457","0.0-6.0-2.10","A304UJAE051J89","2022-05-19T12:34:06.060Z","rhyme-same_different-phon_sim-task_switching","","1836.800000011921","rhyme","<div style=""border: 3px solid #000000; position: fixed;left:14%;top:30%""><img src=""visual/shark.png"" width=""300""></div><div style=""border: 3px solid #000000; position: fixed;left:64%;top:30%""><img src=""visual/moon.png"" width=""300""></div>","arrowdown","","true","experiment","visual/shark.png","visual/moon.png","ArrowDown","NR","","","","","","","","","","","","","","","","","","","","","","","","","","",""
"","","","","","html-keyboard-response","50","2413219","0.0-6.0-0.11","A304UJAE051J89","2022-05-19T12:34:06.060Z","rhyme-same_different-phon_sim-task_switching","","null","rhyme","<div style=""font-size:60px;"">+</div>","null","750","","","","","","","","","","","","","","","","","","","","","","","","","","","","","","","","",""
"","","","","","html-keyboard-response","51","2413740","0.0-6.0-1.11","A304UJAE051J89","2022-05-19T12:34:06.060Z","rhyme-same_different-phon_sim-task_switching","","null","rhyme","<img src=""square.png"" width=""306"" height=""306"" style=""position: fixed;left:14%;top:30%""><img src=""square.png"" width=""306"" height=""306"" style=""position: fixed;left:64%;top:30%"">","null","","","","","","","","","","","","","","","","","","","","","","","","","","","","","","","","","",""
"","","","","","html-keyboard-response","52","2417111","0.0-6.0-2.11","A304UJAE051J89","2022-05-19T12:34:06.060Z","rhyme-same_different-phon_sim-task_switching","","3365.7000000476837","rhyme","<div style=""border: 3px solid #000000; position: fixed;left:14%;top:30%""><img src=""visual/fly.png"" width=""300""></div><div style=""border: 3px solid #000000; position: fixed;left:64%;top:30%""><img src=""visual/plane.png"" width=""300""></div>","arrowdown","","true","experiment","visual/fly.png","visual/plane.png","ArrowDown","NR","","","","","","","","","","","","","","","","","","","","","","","","","","",""
"","","","","","html-keyboard-response","53","2417623","0.0-6.0-0.12","A304UJAE051J89","2022-05-19T12:34:06.060Z","rhyme-same_different-phon_sim-task_switching","","null","rhyme","<div style=""font-size:60px;"">+</div>","null","500","","","","","","","","","","","","","","","","","","","","","","","","","","","","","","","","",""
"","","","","","html-keyboard-response","54","2418126","0.0-6.0-1.12","A304UJAE051J89","2022-05-19T12:34:06.060Z","rhyme-same_different-phon_sim-task_switching","","null","rhyme","<img src=""square.png"" width=""306"" height=""306"" style=""position: fixed;left:14%;top:30%""><img src=""square.png"" width=""306"" height=""306"" style=""position: fixed;left:64%;top:30%"">","null","","","","","","","","","","","","","","","","","","","","","","","","","","","","","","","","","",""
"","","","","","html-keyboard-response","55","2421081","0.0-6.0-2.12","A304UJAE051J89","2022-05-19T12:34:06.060Z","rhyme-same_different-phon_sim-task_switching","","2949.600000023842","rhyme","<div style=""border: 3px solid #000000; position: fixed;left:14%;top:30%""><img src=""visual/socks.png"" width=""300""></div><div style=""border: 3px solid #000000; position: fixed;left:64%;top:30%""><img src=""visual/fox.png"" width=""300""></div>","arrowup","","true","experiment","visual/socks.png","visual/fox.png","ArrowUp","non-ortho","","","","","","","","","","","","","","","","","","","","","","","","","","",""
"","","","","","html-keyboard-response","56","2422094","0.0-6.0-0.13","A304UJAE051J89","2022-05-19T12:34:06.060Z","rhyme-same_different-phon_sim-task_switching","","null","rhyme","<div style=""font-size:60px;"">+</div>","null","1000","","","","","","","","","","","","","","","","","","","","","","","","","","","","","","","","",""
"","","","","","html-keyboard-response","57","2422606","0.0-6.0-1.13","A304UJAE051J89","2022-05-19T12:34:06.060Z","rhyme-same_different-phon_sim-task_switching","","null","rhyme","<img src=""square.png"" width=""306"" height=""306"" style=""position: fixed;left:14%;top:30%""><img src=""square.png"" width=""306"" height=""306"" style=""position: fixed;left:64%;top:30%"">","null","","","","","","","","","","","","","","","","","","","","","","","","","","","","","","","","","",""
"","","","","","html-keyboard-response","58","2427623","0.0-6.0-2.13","A304UJAE051J89","2022-05-19T12:34:06.060Z","rhyme-same_different-phon_sim-task_switching","","null","rhyme","<div style=""border: 3px solid #000000; position: fixed;left:14%;top:30%""><img src=""visual/nail.png"" width=""300""></div><div style=""border: 3px solid #000000; position: fixed;left:64%;top:30%""><img src=""visual/whale.png"" width=""300""></div>","null","","false","experiment","visual/nail.png","visual/whale.png","ArrowUp","non-ortho","","","","","","","","","","","","","","","","","","","","","","","","","","",""
"","","","","","html-keyboard-response","59","2428139","0.0-6.0-0.14","A304UJAE051J89","2022-05-19T12:34:06.060Z","rhyme-same_different-phon_sim-task_switching","","null","rhyme","<div style=""font-size:60px;"">+</div>","null","500","","","","","","","","","","","","","","","","","","","","","","","","","","","","","","","","",""
"","","","","","html-keyboard-response","60","2428656","0.0-6.0-1.14","A304UJAE051J89","2022-05-19T12:34:06.060Z","rhyme-same_different-phon_sim-task_switching","","null","rhyme","<img src=""square.png"" width=""306"" height=""306"" style=""position: fixed;left:14%;top:30%""><img src=""square.png"" width=""306"" height=""306"" style=""position: fixed;left:64%;top:30%"">","null","","","","","","","","","","","","","","","","","","","","","","","","","","","","","","","","","",""
"","","","","","html-keyboard-response","61","2431124","0.0-6.0-2.14","A304UJAE051J89","2022-05-19T12:34:06.060Z","rhyme-same_different-phon_sim-task_switching","","2461.699999988079","rhyme","<div style=""border: 3px solid #000000; position: fixed;left:14%;top:30%""><img src=""visual/cake.png"" width=""300""></div><div style=""border: 3px solid #000000; position: fixed;left:64%;top:30%""><img src=""visual/rake.png"" width=""300""></div>","arrowdown","","false","experiment","visual/cake.png","visual/rake.png","ArrowUp","ortho","","","","","","","","","","","","","","","","","","","","","","","","","","",""
"","","","","","html-keyboard-response","62","2431640","0.0-6.0-0.15","A304UJAE051J89","2022-05-19T12:34:06.060Z","rhyme-same_different-phon_sim-task_switching","","null","rhyme","<div style=""font-size:60px;"">+</div>","null","500","","","","","","","","","","","","","","","","","","","","","","","","","","","","","","","","",""
"","","","","","html-keyboard-response","63","2432143","0.0-6.0-1.15","A304UJAE051J89","2022-05-19T12:34:06.060Z","rhyme-same_different-phon_sim-task_switching","","null","rhyme","<img src=""square.png"" width=""306"" height=""306"" style=""position: fixed;left:14%;top:30%""><img src=""square.png"" width=""306"" height=""306"" style=""position: fixed;left:64%;top:30%"">","null","","","","","","","","","","","","","","","","","","","","","","","","","","","","","","","","","",""
"","","","","","html-keyboard-response","64","2434664","0.0-6.0-2.15","A304UJAE051J89","2022-05-19T12:34:06.060Z","rhyme-same_different-phon_sim-task_switching","","2515","rhyme","<div style=""border: 3px solid #000000; position: fixed;left:14%;top:30%""><img src=""visual/train.png"" width=""300""></div><div style=""border: 3px solid #000000; position: fixed;left:64%;top:30%""><img src=""visual/screw.png"" width=""300""></div>","arrowdown","","true","experiment","visual/train.png","visual/screw.png","ArrowDown","NR","","","","","","","","","","","","","","","","","","","","","","","","","","",""
"","","","","","html-keyboard-response","65","2434925","0.0-6.0-0.16","A304UJAE051J89","2022-05-19T12:34:06.060Z","rhyme-same_different-phon_sim-task_switching","","null","rhyme","<div style=""font-size:60px;"">+</div>","null","250","","","","","","","","","","","","","","","","","","","","","","","","","","","","","","","","",""
"","","","","","html-keyboard-response","66","2435441","0.0-6.0-1.16","A304UJAE051J89","2022-05-19T12:34:06.060Z","rhyme-same_different-phon_sim-task_switching","","null","rhyme","<img src=""square.png"" width=""306"" height=""306"" style=""position: fixed;left:14%;top:30%""><img src=""square.png"" width=""306"" height=""306"" style=""position: fixed;left:64%;top:30%"">","null","","","","","","","","","","","","","","","","","","","","","","","","","","","","","","","","","",""
"","","","","","html-keyboard-response","67","2437097","0.0-6.0-2.16","A304UJAE051J89","2022-05-19T12:34:06.060Z","rhyme-same_different-phon_sim-task_switching","","1649.5","rhyme","<div style=""border: 3px solid #000000; position: fixed;left:14%;top:30%""><img src=""visual/bear.png"" width=""300""></div><div style=""border: 3px solid #000000; position: fixed;left:64%;top:30%""><img src=""visual/hair.png"" width=""300""></div>","arrowup","","true","experiment","visual/bear.png","visual/hair.png","ArrowUp","non-ortho","","","","","","","","","","","","","","","","","","","","","","","","","","",""
"","","","","","html-keyboard-response","68","2437608","0.0-6.0-0.17","A304UJAE051J89","2022-05-19T12:34:06.060Z","rhyme-same_different-phon_sim-task_switching","","null","rhyme","<div style=""font-size:60px;"">+</div>","null","500","","","","","","","","","","","","","","","","","","","","","","","","","","","","","","","","",""
"","","","","","html-keyboard-response","69","2438122","0.0-6.0-1.17","A304UJAE051J89","2022-05-19T12:34:06.060Z","rhyme-same_different-phon_sim-task_switching","","null","rhyme","<img src=""square.png"" width=""306"" height=""306"" style=""position: fixed;left:14%;top:30%""><img src=""square.png"" width=""306"" height=""306"" style=""position: fixed;left:64%;top:30%"">","null","","","","","","","","","","","","","","","","","","","","","","","","","","","","","","","","","",""
"","","","","","html-keyboard-response","70","2440184","0.0-6.0-2.17","A304UJAE051J89","2022-05-19T12:34:06.060Z","rhyme-same_different-phon_sim-task_switching","","2057.899999976158","rhyme","<div style=""border: 3px solid #000000; position: fixed;left:14%;top:30%""><img src=""visual/spoon.png"" width=""300""></div><div style=""border: 3px solid #000000; position: fixed;left:64%;top:30%""><img src=""visual/crab.png"" width=""300""></div>","arrowdown","","true","experiment","visual/spoon.png","visual/crab.png","ArrowDown","NR","","","","","","","","","","","","","","","","","","","","","","","","","","",""
"","","","","","html-keyboard-response","71","2440448","0.0-6.0-0.18","A304UJAE051J89","2022-05-19T12:34:06.060Z","rhyme-same_different-phon_sim-task_switching","","null","rhyme","<div style=""font-size:60px;"">+</div>","null","250","","","","","","","","","","","","","","","","","","","","","","","","","","","","","","","","",""
"","","","","","html-keyboard-response","72","2440959","0.0-6.0-1.18","A304UJAE051J89","2022-05-19T12:34:06.060Z","rhyme-same_different-phon_sim-task_switching","","null","rhyme","<img src=""square.png"" width=""306"" height=""306"" style=""position: fixed;left:14%;top:30%""><img src=""square.png"" width=""306"" height=""306"" style=""position: fixed;left:64%;top:30%"">","null","","","","","","","","","","","","","","","","","","","","","","","","","","","","","","","","","",""
"","","","","","html-keyboard-response","73","2442890","0.0-6.0-2.18","A304UJAE051J89","2022-05-19T12:34:06.060Z","rhyme-same_different-phon_sim-task_switching","","1926.5","rhyme","<div style=""border: 3px solid #000000; position: fixed;left:14%;top:30%""><img src=""visual/drawer.png"" width=""300""></div><div style=""border: 3px solid #000000; position: fixed;left:64%;top:30%""><img src=""visual/door.png"" width=""300""></div>","arrowup","","true","experiment","visual/drawer.png","visual/door.png","ArrowUp","non-ortho","","","","","","","","","","","","","","","","","","","","","","","","","","",""
"","","","","","html-keyboard-response","74","2443155","0.0-6.0-0.19","A304UJAE051J89","2022-05-19T12:34:06.060Z","rhyme-same_different-phon_sim-task_switching","","null","rhyme","<div style=""font-size:60px;"">+</div>","null","250","","","","","","","","","","","","","","","","","","","","","","","","","","","","","","","","",""
"","","","","","html-keyboard-response","75","2443661","0.0-6.0-1.19","A304UJAE051J89","2022-05-19T12:34:06.060Z","rhyme-same_different-phon_sim-task_switching","","null","rhyme","<img src=""square.png"" width=""306"" height=""306"" style=""position: fixed;left:14%;top:30%""><img src=""square.png"" width=""306"" height=""306"" style=""position: fixed;left:64%;top:30%"">","null","","","","","","","","","","","","","","","","","","","","","","","","","","","","","","","","","",""
"","","","","","html-keyboard-response","76","2444826","0.0-6.0-2.19","A304UJAE051J89","2022-05-19T12:34:06.060Z","rhyme-same_different-phon_sim-task_switching","","1158.8999999761581","rhyme","<div style=""border: 3px solid #000000; position: fixed;left:14%;top:30%""><img src=""visual/rose.png"" width=""300""></div><div style=""border: 3px solid #000000; position: fixed;left:64%;top:30%""><img src=""visual/nose.png"" width=""300""></div>","arrowup","","true","experiment","visual/rose.png","visual/nose.png","ArrowUp","ortho","","","","","","","","","","","","","","","","","","","","","","","","","","",""
"","","","","","html-keyboard-response","77","2445588","0.0-6.0-0.20","A304UJAE051J89","2022-05-19T12:34:06.060Z","rhyme-same_different-phon_sim-task_switching","","null","rhyme","<div style=""font-size:60px;"">+</div>","null","750","","","","","","","","","","","","","","","","","","","","","","","","","","","","","","","","",""
"","","","","","html-keyboard-response","78","2446107","0.0-6.0-1.20","A304UJAE051J89","2022-05-19T12:34:06.060Z","rhyme-same_different-phon_sim-task_switching","","null","rhyme","<img src=""square.png"" width=""306"" height=""306"" style=""position: fixed;left:14%;top:30%""><img src=""square.png"" width=""306"" height=""306"" style=""position: fixed;left:64%;top:30%"">","null","","","","","","","","","","","","","","","","","","","","","","","","","","","","","","","","","",""
"","","","","","html-keyboard-response","79","2447340","0.0-6.0-2.20","A304UJAE051J89","2022-05-19T12:34:06.060Z","rhyme-same_different-phon_sim-task_switching","","1228.699999988079","rhyme","<div style=""border: 3px solid #000000; position: fixed;left:14%;top:30%""><img src=""visual/tie.png"" width=""300""></div><div style=""border: 3px solid #000000; position: fixed;left:64%;top:30%""><img src=""visual/fly.png"" width=""300""></div>","arrowup","","true","experiment","visual/tie.png","visual/fly.png","ArrowUp","non-ortho","","","","","","","","","","","","","","","","","","","","","","","","","","",""
"","","","","","html-keyboard-response","80","2448093","0.0-6.0-0.21","A304UJAE051J89","2022-05-19T12:34:06.060Z","rhyme-same_different-phon_sim-task_switching","","null","rhyme","<div style=""font-size:60px;"">+</div>","null","750","","","","","","","","","","","","","","","","","","","","","","","","","","","","","","","","",""
"","","","","","html-keyboard-response","81","2448605","0.0-6.0-1.21","A304UJAE051J89","2022-05-19T12:34:06.060Z","rhyme-same_different-phon_sim-task_switching","","null","rhyme","<img src=""square.png"" width=""306"" height=""306"" style=""position: fixed;left:14%;top:30%""><img src=""square.png"" width=""306"" height=""306"" style=""position: fixed;left:64%;top:30%"">","null","","","","","","","","","","","","","","","","","","","","","","","","","","","","","","","","","",""
"","","","","","html-keyboard-response","82","2450113","0.0-6.0-2.21","A304UJAE051J89","2022-05-19T12:34:06.060Z","rhyme-same_different-phon_sim-task_switching","","1503.6000000238419","rhyme","<div style=""border: 3px solid #000000; position: fixed;left:14%;top:30%""><img src=""visual/soap.png"" width=""300""></div><div style=""border: 3px solid #000000; position: fixed;left:64%;top:30%""><img src=""visual/rope.png"" width=""300""></div>","arrowup","","true","experiment","visual/soap.png","visual/rope.png","ArrowUp","non-ortho","","","","","","","","","","","","","","","","","","","","","","","","","","",""
"","","","","","html-keyboard-response","83","2450873","0.0-6.0-0.22","A304UJAE051J89","2022-05-19T12:34:06.060Z","rhyme-same_different-phon_sim-task_switching","","null","rhyme","<div style=""font-size:60px;"">+</div>","null","750","","","","","","","","","","","","","","","","","","","","","","","","","","","","","","","","",""
"","","","","","html-keyboard-response","84","2451388","0.0-6.0-1.22","A304UJAE051J89","2022-05-19T12:34:06.060Z","rhyme-same_different-phon_sim-task_switching","","null","rhyme","<img src=""square.png"" width=""306"" height=""306"" style=""position: fixed;left:14%;top:30%""><img src=""square.png"" width=""306"" height=""306"" style=""position: fixed;left:64%;top:30%"">","null","","","","","","","","","","","","","","","","","","","","","","","","","","","","","","","","","",""
"","","","","","html-keyboard-response","85","2453431","0.0-6.0-2.22","A304UJAE051J89","2022-05-19T12:34:06.060Z","rhyme-same_different-phon_sim-task_switching","","2038.699999988079","rhyme","<div style=""border: 3px solid #000000; position: fixed;left:14%;top:30%""><img src=""visual/box.png"" width=""300""></div><div style=""border: 3px solid #000000; position: fixed;left:64%;top:30%""><img src=""visual/fox.png"" width=""300""></div>","arrowup","","true","experiment","visual/box.png","visual/fox.png","ArrowUp","ortho","","","","","","","","","","","","","","","","","","","","","","","","","","",""
"","","","","","html-keyboard-response","86","2453692","0.0-6.0-0.23","A304UJAE051J89","2022-05-19T12:34:06.060Z","rhyme-same_different-phon_sim-task_switching","","null","rhyme","<div style=""font-size:60px;"">+</div>","null","250","","","","","","","","","","","","","","","","","","","","","","","","","","","","","","","","",""
"","","","","","html-keyboard-response","87","2454205","0.0-6.0-1.23","A304UJAE051J89","2022-05-19T12:34:06.060Z","rhyme-same_different-phon_sim-task_switching","","null","rhyme","<img src=""square.png"" width=""306"" height=""306"" style=""position: fixed;left:14%;top:30%""><img src=""square.png"" width=""306"" height=""306"" style=""position: fixed;left:64%;top:30%"">","null","","","","","","","","","","","","","","","","","","","","","","","","","","","","","","","","","",""
"","","","","","html-keyboard-response","88","2455859","0.0-6.0-2.23","A304UJAE051J89","2022-05-19T12:34:06.060Z","rhyme-same_different-phon_sim-task_switching","","1647.5","rhyme","<div style=""border: 3px solid #000000; position: fixed;left:14%;top:30%""><img src=""visual/flag.png"" width=""300""></div><div style=""border: 3px solid #000000; position: fixed;left:64%;top:30%""><img src=""visual/bag.png"" width=""300""></div>","arrowup","","true","experiment","visual/flag.png","visual/bag.png","ArrowUp","ortho","","","","","","","","","","","","","","","","","","","","","","","","","","",""
"","","","","","html-keyboard-response","89","2456867","0.0-6.0-0.24","A304UJAE051J89","2022-05-19T12:34:06.060Z","rhyme-same_different-phon_sim-task_switching","","null","rhyme","<div style=""font-size:60px;"">+</div>","null","1000","","","","","","","","","","","","","","","","","","","","","","","","","","","","","","","","",""
"","","","","","html-keyboard-response","90","2457375","0.0-6.0-1.24","A304UJAE051J89","2022-05-19T12:34:06.060Z","rhyme-same_different-phon_sim-task_switching","","null","rhyme","<img src=""square.png"" width=""306"" height=""306"" style=""position: fixed;left:14%;top:30%""><img src=""square.png"" width=""306"" height=""306"" style=""position: fixed;left:64%;top:30%"">","null","","","","","","","","","","","","","","","","","","","","","","","","","","","","","","","","","",""
"","","","","","html-keyboard-response","91","2460364","0.0-6.0-2.24","A304UJAE051J89","2022-05-19T12:34:06.060Z","rhyme-same_different-phon_sim-task_switching","","2983.399999976158","rhyme","<div style=""border: 3px solid #000000; position: fixed;left:14%;top:30%""><img src=""visual/well.png"" width=""300""></div><div style=""border: 3px solid #000000; position: fixed;left:64%;top:30%""><img src=""visual/bell.png"" width=""300""></div>","arrowup","","true","experiment","visual/well.png","visual/bell.png","ArrowUp","ortho","","","","","","","","","","","","","","","","","","","","","","","","","","",""
"","","","","","html-keyboard-response","92","2460876","0.0-6.0-0.25","A304UJAE051J89","2022-05-19T12:34:06.060Z","rhyme-same_different-phon_sim-task_switching","","null","rhyme","<div style=""font-size:60px;"">+</div>","null","500","","","","","","","","","","","","","","","","","","","","","","","","","","","","","","","","",""
"","","","","","html-keyboard-response","93","2461387","0.0-6.0-1.25","A304UJAE051J89","2022-05-19T12:34:06.060Z","rhyme-same_different-phon_sim-task_switching","","null","rhyme","<img src=""square.png"" width=""306"" height=""306"" style=""position: fixed;left:14%;top:30%""><img src=""square.png"" width=""306"" height=""306"" style=""position: fixed;left:64%;top:30%"">","null","","","","","","","","","","","","","","","","","","","","","","","","","","","","","","","","","",""
"","","","","","html-keyboard-response","94","2464659","0.0-6.0-2.25","A304UJAE051J89","2022-05-19T12:34:06.060Z","rhyme-same_different-phon_sim-task_switching","","3266.600000023842","rhyme","<div style=""border: 3px solid #000000; position: fixed;left:14%;top:30%""><img src=""visual/wheel.png"" width=""300""></div><div style=""border: 3px solid #000000; position: fixed;left:64%;top:30%""><img src=""visual/seal.png"" width=""300""></div>","arrowdown","","false","experiment","visual/wheel.png","visual/seal.png","ArrowUp","non-ortho","","","","","","","","","","","","","","","","","","","","","","","","","","",""
"","","","","","html-keyboard-response","95","2465171","0.0-6.0-0.26","A304UJAE051J89","2022-05-19T12:34:06.060Z","rhyme-same_different-phon_sim-task_switching","","null","rhyme","<div style=""font-size:60px;"">+</div>","null","500","","","","","","","","","","","","","","","","","","","","","","","","","","","","","","","","",""
"","","","","","html-keyboard-response","96","2465690","0.0-6.0-1.26","A304UJAE051J89","2022-05-19T12:34:06.060Z","rhyme-same_different-phon_sim-task_switching","","null","rhyme","<img src=""square.png"" width=""306"" height=""306"" style=""position: fixed;left:14%;top:30%""><img src=""square.png"" width=""306"" height=""306"" style=""position: fixed;left:64%;top:30%"">","null","","","","","","","","","","","","","","","","","","","","","","","","","","","","","","","","","",""
"","","","","","html-keyboard-response","97","2470412","0.0-6.0-2.26","A304UJAE051J89","2022-05-19T12:34:06.060Z","rhyme-same_different-phon_sim-task_switching","","4714.099999964237","rhyme","<div style=""border: 3px solid #000000; position: fixed;left:14%;top:30%""><img src=""visual/pope.png"" width=""300""></div><div style=""border: 3px solid #000000; position: fixed;left:64%;top:30%""><img src=""visual/soap.png"" width=""300""></div>","arrowup","","true","experiment","visual/pope.png","visual/soap.png","ArrowUp","non-ortho","","","","","","","","","","","","","","","","","","","","","","","","","","",""
"","","","","","html-keyboard-response","98","2470916","0.0-6.0-0.27","A304UJAE051J89","2022-05-19T12:34:06.060Z","rhyme-same_different-phon_sim-task_switching","","null","rhyme","<div style=""font-size:60px;"">+</div>","null","500","","","","","","","","","","","","","","","","","","","","","","","","","","","","","","","","",""
"","","","","","html-keyboard-response","99","2471427","0.0-6.0-1.27","A304UJAE051J89","2022-05-19T12:34:06.060Z","rhyme-same_different-phon_sim-task_switching","","null","rhyme","<img src=""square.png"" width=""306"" height=""306"" style=""position: fixed;left:14%;top:30%""><img src=""square.png"" width=""306"" height=""306"" style=""position: fixed;left:64%;top:30%"">","null","","","","","","","","","","","","","","","","","","","","","","","","","","","","","","","","","",""
"","","","","","html-keyboard-response","100","2473652","0.0-6.0-2.27","A304UJAE051J89","2022-05-19T12:34:06.060Z","rhyme-same_different-phon_sim-task_switching","","2219.899999976158","rhyme","<div style=""border: 3px solid #000000; position: fixed;left:14%;top:30%""><img src=""visual/train.png"" width=""300""></div><div style=""border: 3px solid #000000; position: fixed;left:64%;top:30%""><img src=""visual/crane.png"" width=""300""></div>","arrowdown","","false","experiment","visual/train.png","visual/crane.png","ArrowUp","non-ortho","","","","","","","","","","","","","","","","","","","","","","","","","","",""
"","","","","","html-keyboard-response","101","2473913","0.0-6.0-0.28","A304UJAE051J89","2022-05-19T12:34:06.060Z","rhyme-same_different-phon_sim-task_switching","","null","rhyme","<div style=""font-size:60px;"">+</div>","null","250","","","","","","","","","","","","","","","","","","","","","","","","","","","","","","","","",""
"","","","","","html-keyboard-response","102","2474428","0.0-6.0-1.28","A304UJAE051J89","2022-05-19T12:34:06.060Z","rhyme-same_different-phon_sim-task_switching","","null","rhyme","<img src=""square.png"" width=""306"" height=""306"" style=""position: fixed;left:14%;top:30%""><img src=""square.png"" width=""306"" height=""306"" style=""position: fixed;left:64%;top:30%"">","null","","","","","","","","","","","","","","","","","","","","","","","","","","","","","","","","","",""
"","","","","","html-keyboard-response","103","2476610","0.0-6.0-2.28","A304UJAE051J89","2022-05-19T12:34:06.060Z","rhyme-same_different-phon_sim-task_switching","","2173.400000035763","rhyme","<div style=""border: 3px solid #000000; position: fixed;left:14%;top:30%""><img src=""visual/bear.png"" width=""300""></div><div style=""border: 3px solid #000000; position: fixed;left:64%;top:30%""><img src=""visual/square_rhyme.png"" width=""300""></div>","arrowup","","true","experiment","visual/bear.png","visual/square_rhyme.png","ArrowUp","non-ortho","","","","","","","","","","","","","","","","","","","","","","","","","","",""
"","","","","","html-keyboard-response","104","2477122","0.0-6.0-0.29","A304UJAE051J89","2022-05-19T12:34:06.060Z","rhyme-same_different-phon_sim-task_switching","","null","rhyme","<div style=""font-size:60px;"">+</div>","null","500","","","","","","","","","","","","","","","","","","","","","","","","","","","","","","","","",""
"","","","","","html-keyboard-response","105","2477637","0.0-6.0-1.29","A304UJAE051J89","2022-05-19T12:34:06.060Z","rhyme-same_different-phon_sim-task_switching","","null","rhyme","<img src=""square.png"" width=""306"" height=""306"" style=""position: fixed;left:14%;top:30%""><img src=""square.png"" width=""306"" height=""306"" style=""position: fixed;left:64%;top:30%"">","null","","","","","","","","","","","","","","","","","","","","","","","","","","","","","","","","","",""
"","","","","","html-keyboard-response","106","2478836","0.0-6.0-2.29","A304UJAE051J89","2022-05-19T12:34:06.060Z","rhyme-same_different-phon_sim-task_switching","","1193.199999988079","rhyme","<div style=""border: 3px solid #000000; position: fixed;left:14%;top:30%""><img src=""visual/drum.png"" width=""300""></div><div style=""border: 3px solid #000000; position: fixed;left:64%;top:30%""><img src=""visual/thumb.png"" width=""300""></div>","arrowup","","true","experiment","visual/drum.png","visual/thumb.png","ArrowUp","non-ortho","","","","","","","","","","","","","","","","","","","","","","","","","","",""
"","","","","","html-keyboard-response","107","2479340","0.0-6.0-0.30","A304UJAE051J89","2022-05-19T12:34:06.060Z","rhyme-same_different-phon_sim-task_switching","","null","rhyme","<div style=""font-size:60px;"">+</div>","null","500","","","","","","","","","","","","","","","","","","","","","","","","","","","","","","","","",""
"","","","","","html-keyboard-response","108","2479853","0.0-6.0-1.30","A304UJAE051J89","2022-05-19T12:34:06.060Z","rhyme-same_different-phon_sim-task_switching","","null","rhyme","<img src=""square.png"" width=""306"" height=""306"" style=""position: fixed;left:14%;top:30%""><img src=""square.png"" width=""306"" height=""306"" style=""position: fixed;left:64%;top:30%"">","null","","","","","","","","","","","","","","","","","","","","","","","","","","","","","","","","","",""
"","","","","","html-keyboard-response","109","2482467","0.0-6.0-2.30","A304UJAE051J89","2022-05-19T12:34:06.060Z","rhyme-same_different-phon_sim-task_switching","","2608.600000023842","rhyme","<div style=""border: 3px solid #000000; position: fixed;left:14%;top:30%""><img src=""visual/claw.png"" width=""300""></div><div style=""border: 3px solid #000000; position: fixed;left:64%;top:30%""><img src=""visual/beer.png"" width=""300""></div>","arrowdown","","true","experiment","visual/claw.png","visual/beer.png","ArrowDown","NR","","","","","","","","","","","","","","","","","","","","","","","","","","",""
"","","","","","html-keyboard-response","110","2482728","0.0-6.0-0.31","A304UJAE051J89","2022-05-19T12:34:06.060Z","rhyme-same_different-phon_sim-task_switching","","null","rhyme","<div style=""font-size:60px;"">+</div>","null","250","","","","","","","","","","","","","","","","","","","","","","","","","","","","","","","","",""
"","","","","","html-keyboard-response","111","2483245","0.0-6.0-1.31","A304UJAE051J89","2022-05-19T12:34:06.060Z","rhyme-same_different-phon_sim-task_switching","","null","rhyme","<img src=""square.png"" width=""306"" height=""306"" style=""position: fixed;left:14%;top:30%""><img src=""square.png"" width=""306"" height=""306"" style=""position: fixed;left:64%;top:30%"">","null","","","","","","","","","","","","","","","","","","","","","","","","","","","","","","","","","",""
"","","","","","html-keyboard-response","112","2488251","0.0-6.0-2.31","A304UJAE051J89","2022-05-19T12:34:06.060Z","rhyme-same_different-phon_sim-task_switching","","null","rhyme","<div style=""border: 3px solid #000000; position: fixed;left:14%;top:30%""><img src=""visual/bed.png"" width=""300""></div><div style=""border: 3px solid #000000; position: fixed;left:64%;top:30%""><img src=""visual/bread.png"" width=""300""></div>","null","","false","experiment","visual/bed.png","visual/bread.png","ArrowUp","non-ortho","","","","","","","","","","","","","","","","","","","","","","","","","","",""
"","","","","","html-keyboard-response","113","2488519","0.0-6.0-0.32","A304UJAE051J89","2022-05-19T12:34:06.060Z","rhyme-same_different-phon_sim-task_switching","","null","rhyme","<div style=""font-size:60px;"">+</div>","null","250","","","","","","","","","","","","","","","","","","","","","","","","","","","","","","","","",""
"","","","","","html-keyboard-response","114","2489036","0.0-6.0-1.32","A304UJAE051J89","2022-05-19T12:34:06.060Z","rhyme-same_different-phon_sim-task_switching","","null","rhyme","<img src=""square.png"" width=""306"" height=""306"" style=""position: fixed;left:14%;top:30%""><img src=""square.png"" width=""306"" height=""306"" style=""position: fixed;left:64%;top:30%"">","null","","","","","","","","","","","","","","","","","","","","","","","","","","","","","","","","","",""
"","","","","","html-keyboard-response","115","2493123","0.0-6.0-2.32","A304UJAE051J89","2022-05-19T12:34:06.060Z","rhyme-same_different-phon_sim-task_switching","","4081","rhyme","<div style=""border: 3px solid #000000; position: fixed;left:14%;top:30%""><img src=""visual/snail.png"" width=""300""></div><div style=""border: 3px solid #000000; position: fixed;left:64%;top:30%""><img src=""visual/whale.png"" width=""300""></div>","arrowup","","true","experiment","visual/snail.png","visual/whale.png","ArrowUp","non-ortho","","","","","","","","","","","","","","","","","","","","","","","","","","",""
"","","","","","html-keyboard-response","116","2493636","0.0-6.0-0.33","A304UJAE051J89","2022-05-19T12:34:06.060Z","rhyme-same_different-phon_sim-task_switching","","null","rhyme","<div style=""font-size:60px;"">+</div>","null","500","","","","","","","","","","","","","","","","","","","","","","","","","","","","","","","","",""
"","","","","","html-keyboard-response","117","2494139","0.0-6.0-1.33","A304UJAE051J89","2022-05-19T12:34:06.060Z","rhyme-same_different-phon_sim-task_switching","","null","rhyme","<img src=""square.png"" width=""306"" height=""306"" style=""position: fixed;left:14%;top:30%""><img src=""square.png"" width=""306"" height=""306"" style=""position: fixed;left:64%;top:30%"">","null","","","","","","","","","","","","","","","","","","","","","","","","","","","","","","","","","",""
"","","","","","html-keyboard-response","118","2497513","0.0-6.0-2.33","A304UJAE051J89","2022-05-19T12:34:06.060Z","rhyme-same_different-phon_sim-task_switching","","3368.100000023842","rhyme","<div style=""border: 3px solid #000000; position: fixed;left:14%;top:30%""><img src=""visual/king.png"" width=""300""></div><div style=""border: 3px solid #000000; position: fixed;left:64%;top:30%""><img src=""visual/cab.png"" width=""300""></div>","arrowdown","","true","experiment","visual/king.png","visual/cab.png","ArrowDown","NR","","","","","","","","","","","","","","","","","","","","","","","","","","",""
"","","","","","html-keyboard-response","119","2498524","0.0-6.0-0.34","A304UJAE051J89","2022-05-19T12:34:06.060Z","rhyme-same_different-phon_sim-task_switching","","null","rhyme","<div style=""font-size:60px;"">+</div>","null","1000","","","","","","","","","","","","","","","","","","","","","","","","","","","","","","","","",""
"","","","","","html-keyboard-response","120","2499042","0.0-6.0-1.34","A304UJAE051J89","2022-05-19T12:34:06.060Z","rhyme-same_different-phon_sim-task_switching","","null","rhyme","<img src=""square.png"" width=""306"" height=""306"" style=""position: fixed;left:14%;top:30%""><img src=""square.png"" width=""306"" height=""306"" style=""position: fixed;left:64%;top:30%"">","null","","","","","","","","","","","","","","","","","","","","","","","","","","","","","","","","","",""
"","","","","","html-keyboard-response","121","2501233","0.0-6.0-2.34","A304UJAE051J89","2022-05-19T12:34:06.060Z","rhyme-same_different-phon_sim-task_switching","","2184.899999976158","rhyme","<div style=""border: 3px solid #000000; position: fixed;left:14%;top:30%""><img src=""visual/king.png"" width=""300""></div><div style=""border: 3px solid #000000; position: fixed;left:64%;top:30%""><img src=""visual/ring.png"" width=""300""></div>","arrowup","","true","experiment","visual/king.png","visual/ring.png","ArrowUp","ortho","","","","","","","","","","","","","","","","","","","","","","","","","","",""
"","","","","","html-keyboard-response","122","2501489","0.0-6.0-0.35","A304UJAE051J89","2022-05-19T12:34:06.060Z","rhyme-same_different-phon_sim-task_switching","","null","rhyme","<div style=""font-size:60px;"">+</div>","null","250","","","","","","","","","","","","","","","","","","","","","","","","","","","","","","","","",""
"","","","","","html-keyboard-response","123","2502007","0.0-6.0-1.35","A304UJAE051J89","2022-05-19T12:34:06.060Z","rhyme-same_different-phon_sim-task_switching","","null","rhyme","<img src=""square.png"" width=""306"" height=""306"" style=""position: fixed;left:14%;top:30%""><img src=""square.png"" width=""306"" height=""306"" style=""position: fixed;left:64%;top:30%"">","null","","","","","","","","","","","","","","","","","","","","","","","","","","","","","","","","","",""
"","","","","","html-keyboard-response","124","2506334","0.0-6.0-2.35","A304UJAE051J89","2022-05-19T12:34:06.060Z","rhyme-same_different-phon_sim-task_switching","","4320.300000011921","rhyme","<div style=""border: 3px solid #000000; position: fixed;left:14%;top:30%""><img src=""visual/plane.png"" width=""300""></div><div style=""border: 3px solid #000000; position: fixed;left:64%;top:30%""><img src=""visual/train.png"" width=""300""></div>","arrowdown","","false","experiment","visual/plane.png","visual/train.png","ArrowUp","non-ortho","","","","","","","","","","","","","","","","","","","","","","","","","","",""
"","","","","","html-keyboard-response","125","2507352","0.0-6.0-0.36","A304UJAE051J89","2022-05-19T12:34:06.060Z","rhyme-same_different-phon_sim-task_switching","","null","rhyme","<div style=""font-size:60px;"">+</div>","null","1000","","","","","","","","","","","","","","","","","","","","","","","","","","","","","","","","",""
"","","","","","html-keyboard-response","126","2507869","0.0-6.0-1.36","A304UJAE051J89","2022-05-19T12:34:06.060Z","rhyme-same_different-phon_sim-task_switching","","null","rhyme","<img src=""square.png"" width=""306"" height=""306"" style=""position: fixed;left:14%;top:30%""><img src=""square.png"" width=""306"" height=""306"" style=""position: fixed;left:64%;top:30%"">","null","","","","","","","","","","","","","","","","","","","","","","","","","","","","","","","","","",""
"","","","","","html-keyboard-response","127","2509302","0.0-6.0-2.36","A304UJAE051J89","2022-05-19T12:34:06.060Z","rhyme-same_different-phon_sim-task_switching","","1427.3999999761581","rhyme","<div style=""border: 3px solid #000000; position: fixed;left:14%;top:30%""><img src=""visual/key.png"" width=""300""></div><div style=""border: 3px solid #000000; position: fixed;left:64%;top:30%""><img src=""visual/tree.png"" width=""300""></div>","arrowdown","","false","experiment","visual/key.png","visual/tree.png","ArrowUp","non-ortho","","","","","","","","","","","","","","","","","","","","","","","","","","",""
"","","","","","html-keyboard-response","128","2509560","0.0-6.0-0.37","A304UJAE051J89","2022-05-19T12:34:06.060Z","rhyme-same_different-phon_sim-task_switching","","null","rhyme","<div style=""font-size:60px;"">+</div>","null","250","","","","","","","","","","","","","","","","","","","","","","","","","","","","","","","","",""
"","","","","","html-keyboard-response","129","2510071","0.0-6.0-1.37","A304UJAE051J89","2022-05-19T12:34:06.060Z","rhyme-same_different-phon_sim-task_switching","","null","rhyme","<img src=""square.png"" width=""306"" height=""306"" style=""position: fixed;left:14%;top:30%""><img src=""square.png"" width=""306"" height=""306"" style=""position: fixed;left:64%;top:30%"">","null","","","","","","","","","","","","","","","","","","","","","","","","","","","","","","","","","",""
"","","","","","html-keyboard-response","130","2513095","0.0-6.0-2.37","A304UJAE051J89","2022-05-19T12:34:06.060Z","rhyme-same_different-phon_sim-task_switching","","3019.399999976158","rhyme","<div style=""border: 3px solid #000000; position: fixed;left:14%;top:30%""><img src=""visual/dart.png"" width=""300""></div><div style=""border: 3px solid #000000; position: fixed;left:64%;top:30%""><img src=""visual/tie.png"" width=""300""></div>","arrowdown","","true","experiment","visual/dart.png","visual/tie.png","ArrowDown","NR","","","","","","","","","","","","","","","","","","","","","","","","","","",""
"","","","","","html-keyboard-response","131","2513356","0.0-6.0-0.38","A304UJAE051J89","2022-05-19T12:34:06.060Z","rhyme-same_different-phon_sim-task_switching","","null","rhyme","<div style=""font-size:60px;"">+</div>","null","250","","","","","","","","","","","","","","","","","","","","","","","","","","","","","","","","",""
"","","","","","html-keyboard-response","132","2513868","0.0-6.0-1.38","A304UJAE051J89","2022-05-19T12:34:06.060Z","rhyme-same_different-phon_sim-task_switching","","null","rhyme","<img src=""square.png"" width=""306"" height=""306"" style=""position: fixed;left:14%;top:30%""><img src=""square.png"" width=""306"" height=""306"" style=""position: fixed;left:64%;top:30%"">","null","","","","","","","","","","","","","","","","","","","","","","","","","","","","","","","","","",""
"","","","","","html-keyboard-response","133","2517380","0.0-6.0-2.38","A304UJAE051J89","2022-05-19T12:34:06.060Z","rhyme-same_different-phon_sim-task_switching","","3505.400000035763","rhyme","<div style=""border: 3px solid #000000; position: fixed;left:14%;top:30%""><img src=""visual/sock.png"" width=""300""></div><div style=""border: 3px solid #000000; position: fixed;left:64%;top:30%""><img src=""visual/clock.png"" width=""300""></div>","arrowup","","true","experiment","visual/sock.png","visual/clock.png","ArrowUp","ortho","","","","","","","","","","","","","","","","","","","","","","","","","","",""
"","","","","","html-keyboard-response","134","2517641","0.0-6.0-0.39","A304UJAE051J89","2022-05-19T12:34:06.060Z","rhyme-same_different-phon_sim-task_switching","","null","rhyme","<div style=""font-size:60px;"">+</div>","null","250","","","","","","","","","","","","","","","","","","","","","","","","","","","","","","","","",""
"","","","","","html-keyboard-response","135","2518152","0.0-6.0-1.39","A304UJAE051J89","2022-05-19T12:34:06.060Z","rhyme-same_different-phon_sim-task_switching","","null","rhyme","<img src=""square.png"" width=""306"" height=""306"" style=""position: fixed;left:14%;top:30%""><img src=""square.png"" width=""306"" height=""306"" style=""position: fixed;left:64%;top:30%"">","null","","","","","","","","","","","","","","","","","","","","","","","","","","","","","","","","","",""
"","","","","","html-keyboard-response","136","2521543","0.0-6.0-2.39","A304UJAE051J89","2022-05-19T12:34:06.060Z","rhyme-same_different-phon_sim-task_switching","","3384.800000011921","rhyme","<div style=""border: 3px solid #000000; position: fixed;left:14%;top:30%""><img src=""visual/screw.png"" width=""300""></div><div style=""border: 3px solid #000000; position: fixed;left:64%;top:30%""><img src=""visual/shoe.png"" width=""300""></div>","arrowup","","true","experiment","visual/screw.png","visual/shoe.png","ArrowUp","non-ortho","","","","","","","","","","","","","","","","","","","","","","","","","","",""
"","","","","","html-keyboard-response","137","2521804","0.0-6.0-0.40","A304UJAE051J89","2022-05-19T12:34:06.060Z","rhyme-same_different-phon_sim-task_switching","","null","rhyme","<div style=""font-size:60px;"">+</div>","null","250","","","","","","","","","","","","","","","","","","","","","","","","","","","","","","","","",""
"","","","","","html-keyboard-response","138","2522319","0.0-6.0-1.40","A304UJAE051J89","2022-05-19T12:34:06.060Z","rhyme-same_different-phon_sim-task_switching","","null","rhyme","<img src=""square.png"" width=""306"" height=""306"" style=""position: fixed;left:14%;top:30%""><img src=""square.png"" width=""306"" height=""306"" style=""position: fixed;left:64%;top:30%"">","null","","","","","","","","","","","","","","","","","","","","","","","","","","","","","","","","","",""
"","","","","","html-keyboard-response","139","2523695","0.0-6.0-2.40","A304UJAE051J89","2022-05-19T12:34:06.060Z","rhyme-same_different-phon_sim-task_switching","","1370.7000000476837","rhyme","<div style=""border: 3px solid #000000; position: fixed;left:14%;top:30%""><img src=""visual/plane.png"" width=""300""></div><div style=""border: 3px solid #000000; position: fixed;left:64%;top:30%""><img src=""visual/chain.png"" width=""300""></div>","arrowup","","true","experiment","visual/plane.png","visual/chain.png","ArrowUp","non-ortho","","","","","","","","","","","","","","","","","","","","","","","","","","",""
"","","","","","html-keyboard-response","140","2524710","0.0-6.0-0.41","A304UJAE051J89","2022-05-19T12:34:06.060Z","rhyme-same_different-phon_sim-task_switching","","null","rhyme","<div style=""font-size:60px;"">+</div>","null","1000","","","","","","","","","","","","","","","","","","","","","","","","","","","","","","","","",""
"","","","","","html-keyboard-response","141","2525221","0.0-6.0-1.41","A304UJAE051J89","2022-05-19T12:34:06.060Z","rhyme-same_different-phon_sim-task_switching","","null","rhyme","<img src=""square.png"" width=""306"" height=""306"" style=""position: fixed;left:14%;top:30%""><img src=""square.png"" width=""306"" height=""306"" style=""position: fixed;left:64%;top:30%"">","null","","","","","","","","","","","","","","","","","","","","","","","","","","","","","","","","","",""
"","","","","","html-keyboard-response","142","2527092","0.0-6.0-2.41","A304UJAE051J89","2022-05-19T12:34:06.060Z","rhyme-same_different-phon_sim-task_switching","","1867","rhyme","<div style=""border: 3px solid #000000; position: fixed;left:14%;top:30%""><img src=""visual/deer.png"" width=""300""></div><div style=""border: 3px solid #000000; position: fixed;left:64%;top:30%""><img src=""visual/beer.png"" width=""300""></div>","arrowup","","true","experiment","visual/deer.png","visual/beer.png","ArrowUp","ortho","","","","","","","","","","","","","","","","","","","","","","","","","","",""
"","","","","","html-keyboard-response","143","2527604","0.0-6.0-0.42","A304UJAE051J89","2022-05-19T12:34:06.060Z","rhyme-same_different-phon_sim-task_switching","","null","rhyme","<div style=""font-size:60px;"">+</div>","null","500","","","","","","","","","","","","","","","","","","","","","","","","","","","","","","","","",""
"","","","","","html-keyboard-response","144","2528123","0.0-6.0-1.42","A304UJAE051J89","2022-05-19T12:34:06.060Z","rhyme-same_different-phon_sim-task_switching","","null","rhyme","<img src=""square.png"" width=""306"" height=""306"" style=""position: fixed;left:14%;top:30%""><img src=""square.png"" width=""306"" height=""306"" style=""position: fixed;left:64%;top:30%"">","null","","","","","","","","","","","","","","","","","","","","","","","","","","","","","","","","","",""
"","","","","","html-keyboard-response","145","2532545","0.0-6.0-2.42","A304UJAE051J89","2022-05-19T12:34:06.060Z","rhyme-same_different-phon_sim-task_switching","","4414.899999976158","rhyme","<div style=""border: 3px solid #000000; position: fixed;left:14%;top:30%""><img src=""visual/fan.png"" width=""300""></div><div style=""border: 3px solid #000000; position: fixed;left:64%;top:30%""><img src=""visual/man.png"" width=""300""></div>","arrowdown","","false","experiment","visual/fan.png","visual/man.png","ArrowUp","ortho","","","","","","","","","","","","","","","","","","","","","","","","","","",""
"","","","","","html-keyboard-response","146","2533300","0.0-6.0-0.43","A304UJAE051J89","2022-05-19T12:34:06.060Z","rhyme-same_different-phon_sim-task_switching","","null","rhyme","<div style=""font-size:60px;"">+</div>","null","750","","","","","","","","","","","","","","","","","","","","","","","","","","","","","","","","",""
"","","","","","html-keyboard-response","147","2533818","0.0-6.0-1.43","A304UJAE051J89","2022-05-19T12:34:06.060Z","rhyme-same_different-phon_sim-task_switching","","null","rhyme","<img src=""square.png"" width=""306"" height=""306"" style=""position: fixed;left:14%;top:30%""><img src=""square.png"" width=""306"" height=""306"" style=""position: fixed;left:64%;top:30%"">","null","","","","","","","","","","","","","","","","","","","","","","","","","","","","","","","","","",""
"","","","","","html-keyboard-response","148","2536655","0.0-6.0-2.43","A304UJAE051J89","2022-05-19T12:34:06.060Z","rhyme-same_different-phon_sim-task_switching","","2831.199999988079","rhyme","<div style=""border: 3px solid #000000; position: fixed;left:14%;top:30%""><img src=""visual/rake.png"" width=""300""></div><div style=""border: 3px solid #000000; position: fixed;left:64%;top:30%""><img src=""visual/park.png"" width=""300""></div>","arrowdown","","true","experiment","visual/rake.png","visual/park.png","ArrowDown","NR","","","","","","","","","","","","","","","","","","","","","","","","","","",""
"","","","","","html-keyboard-response","149","2537667","0.0-6.0-0.44","A304UJAE051J89","2022-05-19T12:34:06.060Z","rhyme-same_different-phon_sim-task_switching","","null","rhyme","<div style=""font-size:60px;"">+</div>","null","1000","","","","","","","","","","","","","","","","","","","","","","","","","","","","","","","","",""
"","","","","","html-keyboard-response","150","2538192","0.0-6.0-1.44","A304UJAE051J89","2022-05-19T12:34:06.060Z","rhyme-same_different-phon_sim-task_switching","","null","rhyme","<img src=""square.png"" width=""306"" height=""306"" style=""position: fixed;left:14%;top:30%""><img src=""square.png"" width=""306"" height=""306"" style=""position: fixed;left:64%;top:30%"">","null","","","","","","","","","","","","","","","","","","","","","","","","","","","","","","","","","",""
"","","","","","html-keyboard-response","151","2540028","0.0-6.0-2.44","A304UJAE051J89","2022-05-19T12:34:06.060Z","rhyme-same_different-phon_sim-task_switching","","1828.5","rhyme","<div style=""border: 3px solid #000000; position: fixed;left:14%;top:30%""><img src=""visual/shark.png"" width=""300""></div><div style=""border: 3px solid #000000; position: fixed;left:64%;top:30%""><img src=""visual/park.png"" width=""300""></div>","arrowdown","","false","experiment","visual/shark.png","visual/park.png","ArrowUp","ortho","","","","","","","","","","","","","","","","","","","","","","","","","","",""
"","","","","","html-keyboard-response","152","2540290","0.0-6.0-0.45","A304UJAE051J89","2022-05-19T12:34:06.060Z","rhyme-same_different-phon_sim-task_switching","","null","rhyme","<div style=""font-size:60px;"">+</div>","null","250","","","","","","","","","","","","","","","","","","","","","","","","","","","","","","","","",""
"","","","","","html-keyboard-response","153","2540810","0.0-6.0-1.45","A304UJAE051J89","2022-05-19T12:34:06.060Z","rhyme-same_different-phon_sim-task_switching","","null","rhyme","<img src=""square.png"" width=""306"" height=""306"" style=""position: fixed;left:14%;top:30%""><img src=""square.png"" width=""306"" height=""306"" style=""position: fixed;left:64%;top:30%"">","null","","","","","","","","","","","","","","","","","","","","","","","","","","","","","","","","","",""
"","","","","","html-keyboard-response","154","2544322","0.0-6.0-2.45","A304UJAE051J89","2022-05-19T12:34:06.060Z","rhyme-same_different-phon_sim-task_switching","","3506.199999988079","rhyme","<div style=""border: 3px solid #000000; position: fixed;left:14%;top:30%""><img src=""visual/dart.png"" width=""300""></div><div style=""border: 3px solid #000000; position: fixed;left:64%;top:30%""><img src=""visual/heart.png"" width=""300""></div>","arrowup","","true","experiment","visual/dart.png","visual/heart.png","ArrowUp","non-ortho","","","","","","","","","","","","","","","","","","","","","","","","","","",""
"","","","","","html-keyboard-response","155","2544835","0.0-6.0-0.46","A304UJAE051J89","2022-05-19T12:34:06.060Z","rhyme-same_different-phon_sim-task_switching","","null","rhyme","<div style=""font-size:60px;"">+</div>","null","500","","","","","","","","","","","","","","","","","","","","","","","","","","","","","","","","",""
"","","","","","html-keyboard-response","156","2545350","0.0-6.0-1.46","A304UJAE051J89","2022-05-19T12:34:06.060Z","rhyme-same_different-phon_sim-task_switching","","null","rhyme","<img src=""square.png"" width=""306"" height=""306"" style=""position: fixed;left:14%;top:30%""><img src=""square.png"" width=""306"" height=""306"" style=""position: fixed;left:64%;top:30%"">","null","","","","","","","","","","","","","","","","","","","","","","","","","","","","","","","","","",""
"","","","","","html-keyboard-response","157","2546703","0.0-6.0-2.46","A304UJAE051J89","2022-05-19T12:34:06.060Z","rhyme-same_different-phon_sim-task_switching","","1344.0999999642372","rhyme","<div style=""border: 3px solid #000000; position: fixed;left:14%;top:30%""><img src=""visual/bone.png"" width=""300""></div><div style=""border: 3px solid #000000; position: fixed;left:64%;top:30%""><img src=""visual/cone.png"" width=""300""></div>","arrowup","","true","experiment","visual/bone.png","visual/cone.png","ArrowUp","ortho","","","","","","","","","","","","","","","","","","","","","","","","","","",""
"","","","","","html-keyboard-response","158","2546971","0.0-6.0-0.47","A304UJAE051J89","2022-05-19T12:34:06.060Z","rhyme-same_different-phon_sim-task_switching","","null","rhyme","<div style=""font-size:60px;"">+</div>","null","250","","","","","","","","","","","","","","","","","","","","","","","","","","","","","","","","",""
"","","","","","html-keyboard-response","159","2547483","0.0-6.0-1.47","A304UJAE051J89","2022-05-19T12:34:06.060Z","rhyme-same_different-phon_sim-task_switching","","null","rhyme","<img src=""square.png"" width=""306"" height=""306"" style=""position: fixed;left:14%;top:30%""><img src=""square.png"" width=""306"" height=""306"" style=""position: fixed;left:64%;top:30%"">","null","","","","","","","","","","","","","","","","","","","","","","","","","","","","","","","","","",""
"","","","","","html-keyboard-response","160","2549736","0.0-6.0-2.47","A304UJAE051J89","2022-05-19T12:34:06.060Z","rhyme-same_different-phon_sim-task_switching","","2249.199999988079","rhyme","<div style=""border: 3px solid #000000; position: fixed;left:14%;top:30%""><img src=""visual/brain.png"" width=""300""></div><div style=""border: 3px solid #000000; position: fixed;left:64%;top:30%""><img src=""visual/clock.png"" width=""300""></div>","arrowdown","","true","experiment","visual/brain.png","visual/clock.png","ArrowDown","NR","","","","","","","","","","","","","","","","","","","","","","","","","","",""
"","","","","","html-keyboard-response","161","2550500","0.0-6.0-0.48","A304UJAE051J89","2022-05-19T12:34:06.060Z","rhyme-same_different-phon_sim-task_switching","","null","rhyme","<div style=""font-size:60px;"">+</div>","null","750","","","","","","","","","","","","","","","","","","","","","","","","","","","","","","","","",""
"","","","","","html-keyboard-response","162","2551018","0.0-6.0-1.48","A304UJAE051J89","2022-05-19T12:34:06.060Z","rhyme-same_different-phon_sim-task_switching","","null","rhyme","<img src=""square.png"" width=""306"" height=""306"" style=""position: fixed;left:14%;top:30%""><img src=""square.png"" width=""306"" height=""306"" style=""position: fixed;left:64%;top:30%"">","null","","","","","","","","","","","","","","","","","","","","","","","","","","","","","","","","","",""
"","","","","","html-keyboard-response","163","2552966","0.0-6.0-2.48","A304UJAE051J89","2022-05-19T12:34:06.060Z","rhyme-same_different-phon_sim-task_switching","","1941.800000011921","rhyme","<div style=""border: 3px solid #000000; position: fixed;left:14%;top:30%""><img src=""visual/key.png"" width=""300""></div><div style=""border: 3px solid #000000; position: fixed;left:64%;top:30%""><img src=""visual/snail.png"" width=""300""></div>","arrowdown","","true","experiment","visual/key.png","visual/snail.png","ArrowDown","NR","","","","","","","","","","","","","","","","","","","","","","","","","","",""
"","","","","","html-keyboard-response","164","2553469","0.0-6.0-0.49","A304UJAE051J89","2022-05-19T12:34:06.060Z","rhyme-same_different-phon_sim-task_switching","","null","rhyme","<div style=""font-size:60px;"">+</div>","null","500","","","","","","","","","","","","","","","","","","","","","","","","","","","","","","","","",""
"","","","","","html-keyboard-response","165","2553983","0.0-6.0-1.49","A304UJAE051J89","2022-05-19T12:34:06.060Z","rhyme-same_different-phon_sim-task_switching","","null","rhyme","<img src=""square.png"" width=""306"" height=""306"" style=""position: fixed;left:14%;top:30%""><img src=""square.png"" width=""306"" height=""306"" style=""position: fixed;left:64%;top:30%"">","null","","","","","","","","","","","","","","","","","","","","","","","","","","","","","","","","","",""
"","","","","","html-keyboard-response","166","2556485","0.0-6.0-2.49","A304UJAE051J89","2022-05-19T12:34:06.060Z","rhyme-same_different-phon_sim-task_switching","","2491.400000035763","rhyme","<div style=""border: 3px solid #000000; position: fixed;left:14%;top:30%""><img src=""visual/wave.png"" width=""300""></div><div style=""border: 3px solid #000000; position: fixed;left:64%;top:30%""><img src=""visual/cave.png"" width=""300""></div>","arrowdown","","false","experiment","visual/wave.png","visual/cave.png","ArrowUp","ortho","","","","","","","","","","","","","","","","","","","","","","","","","","",""
"","","","","","html-keyboard-response","167","2557000","0.0-6.0-0.50","A304UJAE051J89","2022-05-19T12:34:06.060Z","rhyme-same_different-phon_sim-task_switching","","null","rhyme","<div style=""font-size:60px;"">+</div>","null","500","","","","","","","","","","","","","","","","","","","","","","","","","","","","","","","","",""
"","","","","","html-keyboard-response","168","2557518","0.0-6.0-1.50","A304UJAE051J89","2022-05-19T12:34:06.060Z","rhyme-same_different-phon_sim-task_switching","","null","rhyme","<img src=""square.png"" width=""306"" height=""306"" style=""position: fixed;left:14%;top:30%""><img src=""square.png"" width=""306"" height=""306"" style=""position: fixed;left:64%;top:30%"">","null","","","","","","","","","","","","","","","","","","","","","","","","","","","","","","","","","",""
"","","","","","html-keyboard-response","169","2559144","0.0-6.0-2.50","A304UJAE051J89","2022-05-19T12:34:06.060Z","rhyme-same_different-phon_sim-task_switching","","1621.2000000476837","rhyme","<div style=""border: 3px solid #000000; position: fixed;left:14%;top:30%""><img src=""visual/drawer.png"" width=""300""></div><div style=""border: 3px solid #000000; position: fixed;left:64%;top:30%""><img src=""visual/chair.png"" width=""300""></div>","arrowdown","","true","experiment","visual/drawer.png","visual/chair.png","ArrowDown","NR","","","","","","","","","","","","","","","","","","","","","","","","","","",""
"","","","","","html-keyboard-response","170","2559406","0.0-6.0-0.51","A304UJAE051J89","2022-05-19T12:34:06.060Z","rhyme-same_different-phon_sim-task_switching","","null","rhyme","<div style=""font-size:60px;"">+</div>","null","250","","","","","","","","","","","","","","","","","","","","","","","","","","","","","","","","",""
"","","","","","html-keyboard-response","171","2559916","0.0-6.0-1.51","A304UJAE051J89","2022-05-19T12:34:06.060Z","rhyme-same_different-phon_sim-task_switching","","null","rhyme","<img src=""square.png"" width=""306"" height=""306"" style=""position: fixed;left:14%;top:30%""><img src=""square.png"" width=""306"" height=""306"" style=""position: fixed;left:64%;top:30%"">","null","","","","","","","","","","","","","","","","","","","","","","","","","","","","","","","","","",""
"","","","","","html-keyboard-response","172","2562813","0.0-6.0-2.51","A304UJAE051J89","2022-05-19T12:34:06.060Z","rhyme-same_different-phon_sim-task_switching","","2890.399999976158","rhyme","<div style=""border: 3px solid #000000; position: fixed;left:14%;top:30%""><img src=""visual/bin.png"" width=""300""></div><div style=""border: 3px solid #000000; position: fixed;left:64%;top:30%""><img src=""visual/chin.png"" width=""300""></div>","arrowdown","","false","experiment","visual/bin.png","visual/chin.png","ArrowUp","ortho","","","","","","","","","","","","","","","","","","","","","","","","","","",""
"","","","","","html-keyboard-response","173","2563826","0.0-6.0-0.52","A304UJAE051J89","2022-05-19T12:34:06.060Z","rhyme-same_different-phon_sim-task_switching","","null","rhyme","<div style=""font-size:60px;"">+</div>","null","1000","","","","","","","","","","","","","","","","","","","","","","","","","","","","","","","","",""
"","","","","","html-keyboard-response","174","2564338","0.0-6.0-1.52","A304UJAE051J89","2022-05-19T12:34:06.060Z","rhyme-same_different-phon_sim-task_switching","","null","rhyme","<img src=""square.png"" width=""306"" height=""306"" style=""position: fixed;left:14%;top:30%""><img src=""square.png"" width=""306"" height=""306"" style=""position: fixed;left:64%;top:30%"">","null","","","","","","","","","","","","","","","","","","","","","","","","","","","","","","","","","",""
"","","","","","html-keyboard-response","175","2566236","0.0-6.0-2.52","A304UJAE051J89","2022-05-19T12:34:06.060Z","rhyme-same_different-phon_sim-task_switching","","1890.800000011921","rhyme","<div style=""border: 3px solid #000000; position: fixed;left:14%;top:30%""><img src=""visual/chain.png"" width=""300""></div><div style=""border: 3px solid #000000; position: fixed;left:64%;top:30%""><img src=""visual/brain.png"" width=""300""></div>","arrowup","","true","experiment","visual/chain.png","visual/brain.png","ArrowUp","ortho","","","","","","","","","","","","","","","","","","","","","","","","","","",""
"","","","","","html-keyboard-response","176","2567249","0.0-6.0-0.53","A304UJAE051J89","2022-05-19T12:34:06.060Z","rhyme-same_different-phon_sim-task_switching","","null","rhyme","<div style=""font-size:60px;"">+</div>","null","1000","","","","","","","","","","","","","","","","","","","","","","","","","","","","","","","","",""
"","","","","","html-keyboard-response","177","2567766","0.0-6.0-1.53","A304UJAE051J89","2022-05-19T12:34:06.060Z","rhyme-same_different-phon_sim-task_switching","","null","rhyme","<img src=""square.png"" width=""306"" height=""306"" style=""position: fixed;left:14%;top:30%""><img src=""square.png"" width=""306"" height=""306"" style=""position: fixed;left:64%;top:30%"">","null","","","","","","","","","","","","","","","","","","","","","","","","","","","","","","","","","",""
"","","","","","html-keyboard-response","178","2571956","0.0-6.0-2.53","A304UJAE051J89","2022-05-19T12:34:06.060Z","rhyme-same_different-phon_sim-task_switching","","4186.199999988079","rhyme","<div style=""border: 3px solid #000000; position: fixed;left:14%;top:30%""><img src=""visual/cat.png"" width=""300""></div><div style=""border: 3px solid #000000; position: fixed;left:64%;top:30%""><img src=""visual/sock.png"" width=""300""></div>","arrowdown","","true","experiment","visual/cat.png","visual/sock.png","ArrowDown","NR","","","","","","","","","","","","","","","","","","","","","","","","","","",""
"","","","","","html-keyboard-response","179","2572717","0.0-6.0-0.54","A304UJAE051J89","2022-05-19T12:34:06.060Z","rhyme-same_different-phon_sim-task_switching","","null","rhyme","<div style=""font-size:60px;"">+</div>","null","750","","","","","","","","","","","","","","","","","","","","","","","","","","","","","","","","",""
"","","","","","html-keyboard-response","180","2573232","0.0-6.0-1.54","A304UJAE051J89","2022-05-19T12:34:06.060Z","rhyme-same_different-phon_sim-task_switching","","null","rhyme","<img src=""square.png"" width=""306"" height=""306"" style=""position: fixed;left:14%;top:30%""><img src=""square.png"" width=""306"" height=""306"" style=""position: fixed;left:64%;top:30%"">","null","","","","","","","","","","","","","","","","","","","","","","","","","","","","","","","","","",""
"","","","","","html-keyboard-response","181","2575322","0.0-6.0-2.54","A304UJAE051J89","2022-05-19T12:34:06.060Z","rhyme-same_different-phon_sim-task_switching","","2081.199999988079","rhyme","<div style=""border: 3px solid #000000; position: fixed;left:14%;top:30%""><img src=""visual/cat.png"" width=""300""></div><div style=""border: 3px solid #000000; position: fixed;left:64%;top:30%""><img src=""visual/hat.png"" width=""300""></div>","arrowup","","true","experiment","visual/cat.png","visual/hat.png","ArrowUp","ortho","","","","","","","","","","","","","","","","","","","","","","","","","","",""
"","","","","","html-keyboard-response","182","2576082","0.0-6.0-0.55","A304UJAE051J89","2022-05-19T12:34:06.060Z","rhyme-same_different-phon_sim-task_switching","","null","rhyme","<div style=""font-size:60px;"">+</div>","null","750","","","","","","","","","","","","","","","","","","","","","","","","","","","","","","","","",""
"","","","","","html-keyboard-response","183","2576600","0.0-6.0-1.55","A304UJAE051J89","2022-05-19T12:34:06.060Z","rhyme-same_different-phon_sim-task_switching","","null","rhyme","<img src=""square.png"" width=""306"" height=""306"" style=""position: fixed;left:14%;top:30%""><img src=""square.png"" width=""306"" height=""306"" style=""position: fixed;left:64%;top:30%"">","null","","","","","","","","","","","","","","","","","","","","","","","","","","","","","","","","","",""
"","","","","","html-keyboard-response","184","2578852","0.0-6.0-2.55","A304UJAE051J89","2022-05-19T12:34:06.060Z","rhyme-same_different-phon_sim-task_switching","","2245.600000023842","rhyme","<div style=""border: 3px solid #000000; position: fixed;left:14%;top:30%""><img src=""visual/soap.png"" width=""300""></div><div style=""border: 3px solid #000000; position: fixed;left:64%;top:30%""><img src=""visual/shoe.png"" width=""300""></div>","arrowdown","","true","experiment","visual/soap.png","visual/shoe.png","ArrowDown","NR","","","","","","","","","","","","","","","","","","","","","","","","","","",""
"","","","","","html-keyboard-response","185","2579615","0.0-6.0-0.56","A304UJAE051J89","2022-05-19T12:34:06.060Z","rhyme-same_different-phon_sim-task_switching","","null","rhyme","<div style=""font-size:60px;"">+</div>","null","750","","","","","","","","","","","","","","","","","","","","","","","","","","","","","","","","",""
"","","","","","html-keyboard-response","186","2580118","0.0-6.0-1.56","A304UJAE051J89","2022-05-19T12:34:06.060Z","rhyme-same_different-phon_sim-task_switching","","null","rhyme","<img src=""square.png"" width=""306"" height=""306"" style=""position: fixed;left:14%;top:30%""><img src=""square.png"" width=""306"" height=""306"" style=""position: fixed;left:64%;top:30%"">","null","","","","","","","","","","","","","","","","","","","","","","","","","","","","","","","","","",""
"","","","","","html-keyboard-response","187","2581641","0.0-6.0-2.56","A304UJAE051J89","2022-05-19T12:34:06.060Z","rhyme-same_different-phon_sim-task_switching","","1516.5","rhyme","<div style=""border: 3px solid #000000; position: fixed;left:14%;top:30%""><img src=""visual/chair.png"" width=""300""></div><div style=""border: 3px solid #000000; position: fixed;left:64%;top:30%""><img src=""visual/pear.png"" width=""300""></div>","arrowup","","true","experiment","visual/chair.png","visual/pear.png","ArrowUp","non-ortho","","","","","","","","","","","","","","","","","","","","","","","","","","",""
"","","","","","html-keyboard-response","188","2582401","0.0-6.0-0.57","A304UJAE051J89","2022-05-19T12:34:06.060Z","rhyme-same_different-phon_sim-task_switching","","null","rhyme","<div style=""font-size:60px;"">+</div>","null","750","","","","","","","","","","","","","","","","","","","","","","","","","","","","","","","","",""
"","","","","","html-keyboard-response","189","2582915","0.0-6.0-1.57","A304UJAE051J89","2022-05-19T12:34:06.060Z","rhyme-same_different-phon_sim-task_switching","","null","rhyme","<img src=""square.png"" width=""306"" height=""306"" style=""position: fixed;left:14%;top:30%""><img src=""square.png"" width=""306"" height=""306"" style=""position: fixed;left:64%;top:30%"">","null","","","","","","","","","","","","","","","","","","","","","","","","","","","","","","","","","",""
"","","","","","html-keyboard-response","190","2584437","0.0-6.0-2.57","A304UJAE051J89","2022-05-19T12:34:06.060Z","rhyme-same_different-phon_sim-task_switching","","1518.2000000476837","rhyme","<div style=""border: 3px solid #000000; position: fixed;left:14%;top:30%""><img src=""visual/saw.png"" width=""300""></div><div style=""border: 3px solid #000000; position: fixed;left:64%;top:30%""><img src=""visual/claw.png"" width=""300""></div>","arrowup","","true","experiment","visual/saw.png","visual/claw.png","ArrowUp","ortho","","","","","","","","","","","","","","","","","","","","","","","","","","",""
"","","","","","html-keyboard-response","191","2584698","0.0-6.0-0.58","A304UJAE051J89","2022-05-19T12:34:06.060Z","rhyme-same_different-phon_sim-task_switching","","null","rhyme","<div style=""font-size:60px;"">+</div>","null","250","","","","","","","","","","","","","","","","","","","","","","","","","","","","","","","","",""
"","","","","","html-keyboard-response","192","2585217","0.0-6.0-1.58","A304UJAE051J89","2022-05-19T12:34:06.060Z","rhyme-same_different-phon_sim-task_switching","","null","rhyme","<img src=""square.png"" width=""306"" height=""306"" style=""position: fixed;left:14%;top:30%""><img src=""square.png"" width=""306"" height=""306"" style=""position: fixed;left:64%;top:30%"">","null","","","","","","","","","","","","","","","","","","","","","","","","","","","","","","","","","",""
"","","","","","html-keyboard-response","193","2588836","0.0-6.0-2.58","A304UJAE051J89","2022-05-19T12:34:06.060Z","rhyme-same_different-phon_sim-task_switching","","3615","rhyme","<div style=""border: 3px solid #000000; position: fixed;left:14%;top:30%""><img src=""visual/well.png"" width=""300""></div><div style=""border: 3px solid #000000; position: fixed;left:64%;top:30%""><img src=""visual/rose.png"" width=""300""></div>","arrowdown","","true","experiment","visual/well.png","visual/rose.png","ArrowDown","NR","","","","","","","","","","","","","","","","","","","","","","","","","","",""
"","","","","","html-keyboard-response","194","2589341","0.0-6.0-0.59","A304UJAE051J89","2022-05-19T12:34:06.060Z","rhyme-same_different-phon_sim-task_switching","","null","rhyme","<div style=""font-size:60px;"">+</div>","null","500","","","","","","","","","","","","","","","","","","","","","","","","","","","","","","","","",""
"","","","","","html-keyboard-response","195","2589854","0.0-6.0-1.59","A304UJAE051J89","2022-05-19T12:34:06.060Z","rhyme-same_different-phon_sim-task_switching","","null","rhyme","<img src=""square.png"" width=""306"" height=""306"" style=""position: fixed;left:14%;top:30%""><img src=""square.png"" width=""306"" height=""306"" style=""position: fixed;left:64%;top:30%"">","null","","","","","","","","","","","","","","","","","","","","","","","","","","","","","","","","","",""
"","","","","","html-keyboard-response","196","2591362","0.0-6.0-2.59","A304UJAE051J89","2022-05-19T12:34:06.060Z","rhyme-same_different-phon_sim-task_switching","","1502.0999999642372","rhyme","<div style=""border: 3px solid #000000; position: fixed;left:14%;top:30%""><img src=""visual/pear.png"" width=""300""></div><div style=""border: 3px solid #000000; position: fixed;left:64%;top:30%""><img src=""visual/rope.png"" width=""300""></div>","arrowdown","","true","experiment","visual/pear.png","visual/rope.png","ArrowDown","NR","","","","","","","","","","","","","","","","","","","","","","","","","","",""
"","","","","","survey-multi-choice","197","2595109","0.0-7.0","A304UJAE051J89","2022-05-19T12:34:06.060Z","rhyme-same_different-phon_sim-task_switching","","3741.699999988079","rhyme","","{""Q0"":""Yes""}","","","","","","","","[0]","Yes","","","","","","","","","","","","","","","","","","","","","","","","",""
"","","","","","survey-text","198","2627072","0.0-8.0","A304UJAE051J89","2022-05-19T12:34:06.060Z","rhyme-same_different-phon_sim-task_switching","","31950.100000023842","rhyme","","{""Q0"":""I just went with my gut intuition""}","","","","","","","","","","I just went with my gut intuition","","","","","","","","","","","","","","","","","","","","","","","",""
"","","","","","instructions","199","2628420","0.0-9.0","A304UJAE051J89","2022-05-19T12:34:06.060Z","rhyme-same_different-phon_sim-task_switching","[{""page_index"":0,""viewing_time"":1340.8999999761581}]","1341.5","rhyme","","","","","","","","","","","","","","","","","","","","","","","","","","","","","","","","","","","",""
"","","","","","instructions","200","3314211","0.0-10.0","A304UJAE051J89","2022-05-19T12:34:06.060Z","rhyme-same_different-phon_sim-task_switching","[{""page_index"":0,""viewing_time"":685789.9000000358}]","685790.9000000358","same_different","","","","","","","","","","","","","","","","","","","","","","","","","","","","","","","","","","","",""
"","","","","","instructions","201","3794875","0.0-11.0","A304UJAE051J89","2022-05-19T12:34:06.060Z","rhyme-same_different-phon_sim-task_switching","[{""page_index"":0,""viewing_time"":480660.89999997616}]","480661.3000000119","","","","","","","","","","","","","","","","","","","","","","","","","","","","","","","","","","","","",""
"","","","","","html-keyboard-response","202","3795635","0.0-12.0-0.0","A304UJAE051J89","2022-05-19T12:34:06.060Z","rhyme-same_different-phon_sim-task_switching","","null","same_different","<div style=""font-size:60px"">+</div>","null","","","","","","","","","","","","","","","","","","","","","","","","","","","","","","","","","",""
"","","","","","html-keyboard-response","203","3797282","0.0-12.0-1.0","A304UJAE051J89","2022-05-19T12:34:06.060Z","rhyme-same_different-phon_sim-task_switching","","1636.7999999523163","same_different","[""<img src=\""square.png\"" width=\""100\"" height=\""100\"" style=\""position: fixed;left:39%;top:47%\""><img src=\""square.png\"" width=\""100\"" height=\""100\"" style=\""position: fixed;left:54%;top:47%\""><img src=\""square.png\"" width=\""100\"" height=\""100\"" style=\""position: fixed;left:46.5%;top:32%\""><img src=\""square.png\"" width=\""100\"" height=\""100\"" style=\""position: fixed;left:46.5%;top:61%\""><div style=\""font-size:60px;text-align: center;margin-top:35.2%\"">+</div><div id=\""first\"" style=\""position: fixed;visibility: hidden;left:40%;top:48%\""><img src=\""same_diff_imgs/C09.gif\"" style=\""-webkit-transform: scaleX(-1);transform: scaleX(-1);\""></div><div id=\""delayed\"" style=\""position: fixed;visibility: hidden;left:48%;top:62%\""><img src=\""same_diff_imgs/D11.gif\"" style=\""-webkit-transform: scaleX(-1);transform: scaleX(-1);\""></div>""]","arrowdown","","true","","","","","","","","","categorical_image","same_diff_imgs/C09.gif","same_diff_imgs/D11.gif","yes","different","1","","","","","","","","","","","","","","","","","",""
"","","","","","html-keyboard-response","204","3797291","0.0-12.0-2.0","A304UJAE051J89","2022-05-19T12:34:06.060Z","rhyme-same_different-phon_sim-task_switching","","null",""," ","null","","","","","","","","","","","","","","","","","","","","","","","","","","","","","","","","","",""
"","","","","","html-keyboard-response","205","3797604","0.0-12.0-3.0","A304UJAE051J89","2022-05-19T12:34:06.060Z","rhyme-same_different-phon_sim-task_switching","","null","same_different"," ","null","","","","","","","","","","","","","","","","","","","","","","","","","","","","","","","","","",""
"","","","","","html-keyboard-response","206","3798366","0.0-12.0-0.1","A304UJAE051J89","2022-05-19T12:34:06.060Z","rhyme-same_different-phon_sim-task_switching","","null","same_different","<div style=""font-size:60px"">+</div>","null","","","","","","","","","","","","","","","","","","","","","","","","","","","","","","","","","",""
"","","","","","html-keyboard-response","207","3799959","0.0-12.0-1.1","A304UJAE051J89","2022-05-19T12:34:06.060Z","rhyme-same_different-phon_sim-task_switching","","1587.2999999523163","same_different","[""<img src=\""square.png\"" width=\""100\"" height=\""100\"" style=\""position: fixed;left:39%;top:47%\""><img src=\""square.png\"" width=\""100\"" height=\""100\"" style=\""position: fixed;left:54%;top:47%\""><img src=\""square.png\"" width=\""100\"" height=\""100\"" style=\""position: fixed;left:46.5%;top:32%\""><img src=\""square.png\"" width=\""100\"" height=\""100\"" style=\""position: fixed;left:46.5%;top:61%\""><div style=\""font-size:60px; text-align: center;margin-top:35.2%\"">+</div><div id=\""first\"" style=\""position: fixed;visibility: hidden;left:55%;top:49%\""><img src=\""same_diff_imgs/D07.gif\""></div><div id=\""delayed\"" style=\""position: fixed;visibility: hidden;left:40%;top:48%\""><img src=\""same_diff_imgs/C09.gif\""></div>""]","arrowdown","","true","","","","","","","","","categorical_image","same_diff_imgs/D07.gif","same_diff_imgs/C09.gif","no","different","1","","","","","","","","","","","","","","","","","",""
"","","","","","html-keyboard-response","208","3799964","0.0-12.0-2.1","A304UJAE051J89","2022-05-19T12:34:06.060Z","rhyme-same_different-phon_sim-task_switching","","null",""," ","null","","","","","","","","","","","","","","","","","","","","","","","","","","","","","","","","","",""
"","","","","","html-keyboard-response","209","3800271","0.0-12.0-3.1","A304UJAE051J89","2022-05-19T12:34:06.060Z","rhyme-same_different-phon_sim-task_switching","","null","same_different"," ","null","","","","","","","","","","","","","","","","","","","","","","","","","","","","","","","","","",""
"","","","","","html-keyboard-response","210","3801026","0.0-12.0-0.2","A304UJAE051J89","2022-05-19T12:34:06.060Z","rhyme-same_different-phon_sim-task_switching","","null","same_different","<div style=""font-size:60px"">+</div>","null","","","","","","","","","","","","","","","","","","","","","","","","","","","","","","","","","",""
