"success","timeout","failed_images","failed_audio","failed_video","trial_type","trial_index","time_elapsed","internal_node_id","worker_id","start_time","experiment_order","view_history","rt","experiment","stimulus","response","judgment_type","stim_1","stim_2","inverted","answer","true_pos","correct","true_neg","false_pos","false_neg","question_order","talk_out_loud","strategy_free_ans","phase","condition","operation","color_cue","trial_no","symbol_cue","wait_time","image_1","image_2","cor_key","type","word_1","word_2","word_3","word_4","word_5","original_word_set","response_1","response_2","response_3","response_4","response_5"
"true","false","[]","[]","[]","preload","0","2925","0.0-0.0","A2WDF40FA670T9","2022-05-19T10:43:03.943Z","same_different-task_switching-rhyme-phon_sim","","","","","","","","","","","","","","","","","","","","","","","","","","","","","","","","","","","","","","","",""
"","","","","","instructions","1","23332","0.0-1.0","A2WDF40FA670T9","2022-05-19T10:43:03.943Z","same_different-task_switching-rhyme-phon_sim","[{""page_index"":0,""viewing_time"":20404.699999999255}]","20405.5","","","","","","","","","","","","","","","","","","","","","","","","","","","","","","","","","","","","","",""
"true","","","","","fullscreen","2","28821","0.0-2.0","A2WDF40FA670T9","2022-05-19T10:43:03.943Z","same_different-task_switching-rhyme-phon_sim","","","","","","","","","","","","","","","","","","","","","","","","","","","","","","","","","","","","","","","",""
"","","","","","instructions","3","46218","0.0-3.0","A2WDF40FA670T9","2022-05-19T10:43:03.943Z","same_different-task_switching-rhyme-phon_sim","[{""page_index"":0,""viewing_time"":17395.29999999702}]","17396","same_different","","","","","","","","","","","","","","","","","","","","","","","","","","","","","","","","","","","","",""
"","","","","","instructions","4","61450","0.0-4.0","A2WDF40FA670T9","2022-05-19T10:43:03.943Z","same_different-task_switching-rhyme-phon_sim","[{""page_index"":0,""viewing_time"":15228.5}]","15229.199999999255","","","","","","","","","","","","","","","","","","","","","","","","","","","","","","","","","","","","","",""
"","","","","","html-keyboard-response","5","62204","0.0-5.0-0.0","A2WDF40FA670T9","2022-05-19T10:43:03.943Z","same_different-task_switching-rhyme-phon_sim","","null","same_different","<div style=""font-size:60px"">+</div>","null","","","","","","","","","","","","","","","","","","","","","","","","","","","","","","","","","","",""
"","","","","","html-keyboard-response","6","65709","0.0-5.0-1.0","A2WDF40FA670T9","2022-05-19T10:43:03.943Z","same_different-task_switching-rhyme-phon_sim","","3498","same_different","[""<img src=\""square.png\"" width=\""100\"" height=\""100\"" style=\""position: fixed;left:39%;top:47%\""><img src=\""square.png\"" width=\""100\"" height=\""100\"" style=\""position: fixed;left:54%;top:47%\""><img src=\""square.png\"" width=\""100\"" height=\""100\"" style=\""position: fixed;left:46.5%;top:32%\""><img src=\""square.png\"" width=\""100\"" height=\""100\"" style=\""position: fixed;left:46.5%;top:61%\""><div style=\""font-size:60px; text-align: center;margin-top:45.5%\"">+</div><div id=\""first\"" style=\""position: fixed;visibility: hidden;left:48%;top:34%\""><img src=\""same_diff_imgs/D07.gif\""></div><div id=\""delayed\"" style=\""position: fixed;visibility: hidden;left:48%;top:62%\""><img src=\""same_diff_imgs/D07.gif\""></div>""]","arrowup","identical_image","same_diff_imgs/D07.gif","same_diff_imgs/D07.gif","no","same","1","true","","","","","","","","","","","","","","","","","","","","","","","","","","","",""
"","","","","","html-keyboard-response","7","65713","0.0-5.0-2.0","A2WDF40FA670T9","2022-05-19T10:43:03.943Z","same_different-task_switching-rhyme-phon_sim","","null",""," ","null","","","","","","","","","","","","","","","","","","","","","","","","","","","","","","","","","","",""
"","","","","","html-keyboard-response","8","66015","0.0-5.0-3.0","A2WDF40FA670T9","2022-05-19T10:43:03.943Z","same_different-task_switching-rhyme-phon_sim","","null","same_different"," ","null","","","","","","","","","","","","","","","","","","","","","","","","","","","","","","","","","","",""
"","","","","","html-keyboard-response","9","66768","0.0-5.0-0.1","A2WDF40FA670T9","2022-05-19T10:43:03.943Z","same_different-task_switching-rhyme-phon_sim","","null","same_different","<div style=""font-size:60px"">+</div>","null","","","","","","","","","","","","","","","","","","","","","","","","","","","","","","","","","","",""
"","","","","","html-keyboard-response","10","68908","0.0-5.0-1.1","A2WDF40FA670T9","2022-05-19T10:43:03.943Z","same_different-task_switching-rhyme-phon_sim","","2136.599999997765","same_different","[""<img src=\""square.png\"" width=\""100\"" height=\""100\"" style=\""position: fixed;left:39%;top:47%\""><img src=\""square.png\"" width=\""100\"" height=\""100\"" style=\""position: fixed;left:54%;top:47%\""><img src=\""square.png\"" width=\""100\"" height=\""100\"" style=\""position: fixed;left:46.5%;top:32%\""><img src=\""square.png\"" width=\""100\"" height=\""100\"" style=\""position: fixed;left:46.5%;top:61%\""><div style=\""font-size:60px; text-align: center;margin-top:45.5%\"">+</div><div id=\""first\"" style=\""position: fixed;visibility: hidden;left:40%;top:48%\""><img src=\""same_diff_imgs/C09.gif\""></div><div id=\""delayed\"" style=\""position: fixed;visibility: hidden;left:55%;top:49%\""><img src=\""same_diff_imgs/C09.gif\""></div>""]","arrowup","identical_image","same_diff_imgs/C09.gif","same_diff_imgs/C09.gif","no","same","1","true","","","","","","","","","","","","","","","","","","","","","","","","","","","",""
"","","","","","html-keyboard-response","11","68911","0.0-5.0-2.1","A2WDF40FA670T9","2022-05-19T10:43:03.943Z","same_different-task_switching-rhyme-phon_sim","","null",""," ","null","","","","","","","","","","","","","","","","","","","","","","","","","","","","","","","","","","",""
"","","","","","html-keyboard-response","12","69213","0.0-5.0-3.1","A2WDF40FA670T9","2022-05-19T10:43:03.943Z","same_different-task_switching-rhyme-phon_sim","","null","same_different"," ","null","","","","","","","","","","","","","","","","","","","","","","","","","","","","","","","","","","",""
"","","","","","html-keyboard-response","13","69965","0.0-5.0-0.2","A2WDF40FA670T9","2022-05-19T10:43:03.943Z","same_different-task_switching-rhyme-phon_sim","","null","same_different","<div style=""font-size:60px"">+</div>","null","","","","","","","","","","","","","","","","","","","","","","","","","","","","","","","","","","",""
"","","","","","html-keyboard-response","14","71723","0.0-5.0-1.2","A2WDF40FA670T9","2022-05-19T10:43:03.943Z","same_different-task_switching-rhyme-phon_sim","","1754.199999999255","same_different","[""<img src=\""square.png\"" width=\""100\"" height=\""100\"" style=\""position: fixed;left:39%;top:47%\""><img src=\""square.png\"" width=\""100\"" height=\""100\"" style=\""position: fixed;left:54%;top:47%\""><img src=\""square.png\"" width=\""100\"" height=\""100\"" style=\""position: fixed;left:46.5%;top:32%\""><img src=\""square.png\"" width=\""100\"" height=\""100\"" style=\""position: fixed;left:46.5%;top:61%\""><div style=\""font-size:60px; text-align: center;margin-top:45.5%\"">+</div><div id=\""first\"" style=\""position: fixed;visibility: hidden;left:48%;top:62%\""><img src=\""same_diff_imgs/C14.gif\""></div><div id=\""delayed\"" style=\""position: fixed;visibility: hidden;left:55%;top:49%\""><img src=\""same_diff_imgs/D11.gif\""></div>""]","arrowdown","identical_image","same_diff_imgs/C14.gif","same_diff_imgs/D11.gif","no","different","","true","1","","","","","","","","","","","","","","","","","","","","","","","","","","",""
"","","","","","html-keyboard-response","15","71726","0.0-5.0-2.2","A2WDF40FA670T9","2022-05-19T10:43:03.943Z","same_different-task_switching-rhyme-phon_sim","","null",""," ","null","","","","","","","","","","","","","","","","","","","","","","","","","","","","","","","","","","",""
"","","","","","html-keyboard-response","16","72028","0.0-5.0-3.2","A2WDF40FA670T9","2022-05-19T10:43:03.943Z","same_different-task_switching-rhyme-phon_sim","","null","same_different"," ","null","","","","","","","","","","","","","","","","","","","","","","","","","","","","","","","","","","",""
"","","","","","html-keyboard-response","17","72780","0.0-5.0-0.3","A2WDF40FA670T9","2022-05-19T10:43:03.943Z","same_different-task_switching-rhyme-phon_sim","","null","same_different","<div style=""font-size:60px"">+</div>","null","","","","","","","","","","","","","","","","","","","","","","","","","","","","","","","","","","",""
"","","","","","html-keyboard-response","18","74496","0.0-5.0-1.3","A2WDF40FA670T9","2022-05-19T10:43:03.943Z","same_different-task_switching-rhyme-phon_sim","","1711.2999999970198","same_different","[""<img src=\""square.png\"" width=\""100\"" height=\""100\"" style=\""position: fixed;left:39%;top:47%\""><img src=\""square.png\"" width=\""100\"" height=\""100\"" style=\""position: fixed;left:54%;top:47%\""><img src=\""square.png\"" width=\""100\"" height=\""100\"" style=\""position: fixed;left:46.5%;top:32%\""><img src=\""square.png\"" width=\""100\"" height=\""100\"" style=\""position: fixed;left:46.5%;top:61%\""><div style=\""font-size:60px;text-align: center;margin-top:45.5%\"">+</div><div id=\""first\"" style=\""position: fixed;visibility: hidden;left:55%;top:49%\""><img src=\""same_diff_imgs/C14.gif\"" style=\""-webkit-transform: scaleX(-1);transform: scaleX(-1);\""></div><div id=\""delayed\"" style=\""position: fixed;visibility: hidden;left:40%;top:48%\""><img src=\""same_diff_imgs/C09.gif\"" style=\""-webkit-transform: scaleX(-1);transform: scaleX(-1);\""></div>""]","arrowdown","identical_image","same_diff_imgs/C14.gif","same_diff_imgs/C09.gif","yes","different","","true","1","","","","","","","","","","","","","","","","","","","","","","","","","","",""
"","","","","","html-keyboard-response","19","74499","0.0-5.0-2.3","A2WDF40FA670T9","2022-05-19T10:43:03.943Z","same_different-task_switching-rhyme-phon_sim","","null",""," ","null","","","","","","","","","","","","","","","","","","","","","","","","","","","","","","","","","","",""
"","","","","","html-keyboard-response","20","74801","0.0-5.0-3.3","A2WDF40FA670T9","2022-05-19T10:43:03.943Z","same_different-task_switching-rhyme-phon_sim","","null","same_different"," ","null","","","","","","","","","","","","","","","","","","","","","","","","","","","","","","","","","","",""
"","","","","","html-keyboard-response","21","75553","0.0-5.0-0.4","A2WDF40FA670T9","2022-05-19T10:43:03.943Z","same_different-task_switching-rhyme-phon_sim","","null","same_different","<div style=""font-size:60px"">+</div>","null","","","","","","","","","","","","","","","","","","","","","","","","","","","","","","","","","","",""
"","","","","","html-keyboard-response","22","77275","0.0-5.0-1.4","A2WDF40FA670T9","2022-05-19T10:43:03.943Z","same_different-task_switching-rhyme-phon_sim","","1718.7000000029802","same_different","[""<img src=\""square.png\"" width=\""100\"" height=\""100\"" style=\""position: fixed;left:39%;top:47%\""><img src=\""square.png\"" width=\""100\"" height=\""100\"" style=\""position: fixed;left:54%;top:47%\""><img src=\""square.png\"" width=\""100\"" height=\""100\"" style=\""position: fixed;left:46.5%;top:32%\""><img src=\""square.png\"" width=\""100\"" height=\""100\"" style=\""position: fixed;left:46.5%;top:61%\""><div style=\""font-size:60px;text-align: center;margin-top:45.5%\"">+</div><div id=\""first\"" style=\""position: fixed;visibility: hidden;left:48%;top:34%\""><img src=\""same_diff_imgs/C04.gif\"" style=\""-webkit-transform: scaleX(-1);transform: scaleX(-1);\""></div><div id=\""delayed\"" style=\""position: fixed;visibility: hidden;left:55%;top:49%\""><img src=\""same_diff_imgs/D09.gif\"" style=\""-webkit-transform: scaleX(-1);transform: scaleX(-1);\""></div>""]","arrowdown","identical_image","same_diff_imgs/C04.gif","same_diff_imgs/D09.gif","yes","different","","true","1","","","","","","","","","","","","","","","","","","","","","","","","","","",""
"","","","","","html-keyboard-response","23","77277","0.0-5.0-2.4","A2WDF40FA670T9","2022-05-19T10:43:03.943Z","same_different-task_switching-rhyme-phon_sim","","null",""," ","null","","","","","","","","","","","","","","","","","","","","","","","","","","","","","","","","","","",""
"","","","","","html-keyboard-response","24","77578","0.0-5.0-3.4","A2WDF40FA670T9","2022-05-19T10:43:03.943Z","same_different-task_switching-rhyme-phon_sim","","null","same_different"," ","null","","","","","","","","","","","","","","","","","","","","","","","","","","","","","","","","","","",""
"","","","","","html-keyboard-response","25","78330","0.0-5.0-0.5","A2WDF40FA670T9","2022-05-19T10:43:03.943Z","same_different-task_switching-rhyme-phon_sim","","null","same_different","<div style=""font-size:60px"">+</div>","null","","","","","","","","","","","","","","","","","","","","","","","","","","","","","","","","","","",""
"","","","","","html-keyboard-response","26","79929","0.0-5.0-1.5","A2WDF40FA670T9","2022-05-19T10:43:03.943Z","same_different-task_switching-rhyme-phon_sim","","1594.4000000022352","same_different","[""<img src=\""square.png\"" width=\""100\"" height=\""100\"" style=\""position: fixed;left:39%;top:47%\""><img src=\""square.png\"" width=\""100\"" height=\""100\"" style=\""position: fixed;left:54%;top:47%\""><img src=\""square.png\"" width=\""100\"" height=\""100\"" style=\""position: fixed;left:46.5%;top:32%\""><img src=\""square.png\"" width=\""100\"" height=\""100\"" style=\""position: fixed;left:46.5%;top:61%\""><div style=\""font-size:60px; text-align: center;margin-top:45.5%\"">+</div><div id=\""first\"" style=\""position: fixed;visibility: hidden;left:55%;top:49%\""><img src=\""same_diff_imgs/C04.gif\""></div><div id=\""delayed\"" style=\""position: fixed;visibility: hidden;left:40%;top:48%\""><img src=\""same_diff_imgs/C04.gif\""></div>""]","arrowup","identical_image","same_diff_imgs/C04.gif","same_diff_imgs/C04.gif","no","same","1","true","","","","","","","","","","","","","","","","","","","","","","","","","","","",""
"","","","","","html-keyboard-response","27","79932","0.0-5.0-2.5","A2WDF40FA670T9","2022-05-19T10:43:03.943Z","same_different-task_switching-rhyme-phon_sim","","null",""," ","null","","","","","","","","","","","","","","","","","","","","","","","","","","","","","","","","","","",""
"","","","","","html-keyboard-response","28","80233","0.0-5.0-3.5","A2WDF40FA670T9","2022-05-19T10:43:03.943Z","same_different-task_switching-rhyme-phon_sim","","null","same_different"," ","null","","","","","","","","","","","","","","","","","","","","","","","","","","","","","","","","","","",""
"","","","","","html-keyboard-response","29","80984","0.0-5.0-0.6","A2WDF40FA670T9","2022-05-19T10:43:03.943Z","same_different-task_switching-rhyme-phon_sim","","null","same_different","<div style=""font-size:60px"">+</div>","null","","","","","","","","","","","","","","","","","","","","","","","","","","","","","","","","","","",""
"","","","","","html-keyboard-response","30","82488","0.0-5.0-1.6","A2WDF40FA670T9","2022-05-19T10:43:03.943Z","same_different-task_switching-rhyme-phon_sim","","1500.5","same_different","[""<img src=\""square.png\"" width=\""100\"" height=\""100\"" style=\""position: fixed;left:39%;top:47%\""><img src=\""square.png\"" width=\""100\"" height=\""100\"" style=\""position: fixed;left:54%;top:47%\""><img src=\""square.png\"" width=\""100\"" height=\""100\"" style=\""position: fixed;left:46.5%;top:32%\""><img src=\""square.png\"" width=\""100\"" height=\""100\"" style=\""position: fixed;left:46.5%;top:61%\""><div style=\""font-size:60px; text-align: center;margin-top:45.5%\"">+</div><div id=\""first\"" style=\""position: fixed;visibility: hidden;left:48%;top:62%\""><img src=\""same_diff_imgs/C14.gif\""></div><div id=\""delayed\"" style=\""position: fixed;visibility: hidden;left:48%;top:34%\""><img src=\""same_diff_imgs/C14.gif\""></div>""]","arrowup","identical_image","same_diff_imgs/C14.gif","same_diff_imgs/C14.gif","no","same","1","true","","","","","","","","","","","","","","","","","","","","","","","","","","","",""
"","","","","","html-keyboard-response","31","82490","0.0-5.0-2.6","A2WDF40FA670T9","2022-05-19T10:43:03.943Z","same_different-task_switching-rhyme-phon_sim","","null",""," ","null","","","","","","","","","","","","","","","","","","","","","","","","","","","","","","","","","","",""
"","","","","","html-keyboard-response","32","82791","0.0-5.0-3.6","A2WDF40FA670T9","2022-05-19T10:43:03.943Z","same_different-task_switching-rhyme-phon_sim","","null","same_different"," ","null","","","","","","","","","","","","","","","","","","","","","","","","","","","","","","","","","","",""
"","","","","","html-keyboard-response","33","83543","0.0-5.0-0.7","A2WDF40FA670T9","2022-05-19T10:43:03.943Z","same_different-task_switching-rhyme-phon_sim","","null","same_different","<div style=""font-size:60px"">+</div>","null","","","","","","","","","","","","","","","","","","","","","","","","","","","","","","","","","","",""
"","","","","","html-keyboard-response","34","85453","0.0-5.0-1.7","A2WDF40FA670T9","2022-05-19T10:43:03.943Z","same_different-task_switching-rhyme-phon_sim","","1906.800000000745","same_different","[""<img src=\""square.png\"" width=\""100\"" height=\""100\"" style=\""position: fixed;left:39%;top:47%\""><img src=\""square.png\"" width=\""100\"" height=\""100\"" style=\""position: fixed;left:54%;top:47%\""><img src=\""square.png\"" width=\""100\"" height=\""100\"" style=\""position: fixed;left:46.5%;top:32%\""><img src=\""square.png\"" width=\""100\"" height=\""100\"" style=\""position: fixed;left:46.5%;top:61%\""><div style=\""font-size:60px; text-align: center;margin-top:45.5%\"">+</div><div id=\""first\"" style=\""position: fixed;visibility: hidden;left:48%;top:62%\""><img src=\""same_diff_imgs/C04.gif\""></div><div id=\""delayed\"" style=\""position: fixed;visibility: hidden;left:48%;top:34%\""><img src=\""same_diff_imgs/C04.gif\""></div>""]","arrowup","identical_image","same_diff_imgs/C04.gif","same_diff_imgs/C04.gif","no","same","1","true","","","","","","","","","","","","","","","","","","","","","","","","","","","",""
"","","","","","html-keyboard-response","35","85456","0.0-5.0-2.7","A2WDF40FA670T9","2022-05-19T10:43:03.943Z","same_different-task_switching-rhyme-phon_sim","","null",""," ","null","","","","","","","","","","","","","","","","","","","","","","","","","","","","","","","","","","",""
"","","","","","html-keyboard-response","36","85757","0.0-5.0-3.7","A2WDF40FA670T9","2022-05-19T10:43:03.943Z","same_different-task_switching-rhyme-phon_sim","","null","same_different"," ","null","","","","","","","","","","","","","","","","","","","","","","","","","","","","","","","","","","",""
"","","","","","html-keyboard-response","37","86509","0.0-5.0-0.8","A2WDF40FA670T9","2022-05-19T10:43:03.943Z","same_different-task_switching-rhyme-phon_sim","","null","same_different","<div style=""font-size:60px"">+</div>","null","","","","","","","","","","","","","","","","","","","","","","","","","","","","","","","","","","",""
"","","","","","html-keyboard-response","38","88409","0.0-5.0-1.8","A2WDF40FA670T9","2022-05-19T10:43:03.943Z","same_different-task_switching-rhyme-phon_sim","","1894.699999999255","same_different","[""<img src=\""square.png\"" width=\""100\"" height=\""100\"" style=\""position: fixed;left:39%;top:47%\""><img src=\""square.png\"" width=\""100\"" height=\""100\"" style=\""position: fixed;left:54%;top:47%\""><img src=\""square.png\"" width=\""100\"" height=\""100\"" style=\""position: fixed;left:46.5%;top:32%\""><img src=\""square.png\"" width=\""100\"" height=\""100\"" style=\""position: fixed;left:46.5%;top:61%\""><div style=\""font-size:60px;text-align: center;margin-top:45.5%\"">+</div><div id=\""first\"" style=\""position: fixed;visibility: hidden;left:40%;top:48%\""><img src=\""same_diff_imgs/C09.gif\"" style=\""-webkit-transform: scaleX(-1);transform: scaleX(-1);\""></div><div id=\""delayed\"" style=\""position: fixed;visibility: hidden;left:48%;top:34%\""><img src=\""same_diff_imgs/C04.gif\"" style=\""-webkit-transform: scaleX(-1);transform: scaleX(-1);\""></div>""]","arrowdown","identical_image","same_diff_imgs/C09.gif","same_diff_imgs/C04.gif","yes","different","","true","1","","","","","","","","","","","","","","","","","","","","","","","","","","",""
"","","","","","html-keyboard-response","39","88411","0.0-5.0-2.8","A2WDF40FA670T9","2022-05-19T10:43:03.943Z","same_different-task_switching-rhyme-phon_sim","","null",""," ","null","","","","","","","","","","","","","","","","","","","","","","","","","","","","","","","","","","",""
"","","","","","html-keyboard-response","40","88713","0.0-5.0-3.8","A2WDF40FA670T9","2022-05-19T10:43:03.943Z","same_different-task_switching-rhyme-phon_sim","","null","same_different"," ","null","","","","","","","","","","","","","","","","","","","","","","","","","","","","","","","","","","",""
"","","","","","html-keyboard-response","41","89465","0.0-5.0-0.9","A2WDF40FA670T9","2022-05-19T10:43:03.943Z","same_different-task_switching-rhyme-phon_sim","","null","same_different","<div style=""font-size:60px"">+</div>","null","","","","","","","","","","","","","","","","","","","","","","","","","","","","","","","","","","",""
"","","","","","html-keyboard-response","42","91103","0.0-5.0-1.9","A2WDF40FA670T9","2022-05-19T10:43:03.943Z","same_different-task_switching-rhyme-phon_sim","","1634","same_different","[""<img src=\""square.png\"" width=\""100\"" height=\""100\"" style=\""position: fixed;left:39%;top:47%\""><img src=\""square.png\"" width=\""100\"" height=\""100\"" style=\""position: fixed;left:54%;top:47%\""><img src=\""square.png\"" width=\""100\"" height=\""100\"" style=\""position: fixed;left:46.5%;top:32%\""><img src=\""square.png\"" width=\""100\"" height=\""100\"" style=\""position: fixed;left:46.5%;top:61%\""><div style=\""font-size:60px; text-align: center;margin-top:45.5%\"">+</div><div id=\""first\"" style=\""position: fixed;visibility: hidden;left:48%;top:34%\""><img src=\""same_diff_imgs/D11.gif\""></div><div id=\""delayed\"" style=\""position: fixed;visibility: hidden;left:55%;top:49%\""><img src=\""same_diff_imgs/D11.gif\""></div>""]","arrowup","identical_image","same_diff_imgs/D11.gif","same_diff_imgs/D11.gif","no","same","1","true","","","","","","","","","","","","","","","","","","","","","","","","","","","",""
"","","","","","html-keyboard-response","43","91106","0.0-5.0-2.9","A2WDF40FA670T9","2022-05-19T10:43:03.943Z","same_different-task_switching-rhyme-phon_sim","","null",""," ","null","","","","","","","","","","","","","","","","","","","","","","","","","","","","","","","","","","",""
"","","","","","html-keyboard-response","44","91407","0.0-5.0-3.9","A2WDF40FA670T9","2022-05-19T10:43:03.943Z","same_different-task_switching-rhyme-phon_sim","","null","same_different"," ","null","","","","","","","","","","","","","","","","","","","","","","","","","","","","","","","","","","",""
"","","","","","html-keyboard-response","45","92159","0.0-5.0-0.10","A2WDF40FA670T9","2022-05-19T10:43:03.943Z","same_different-task_switching-rhyme-phon_sim","","null","same_different","<div style=""font-size:60px"">+</div>","null","","","","","","","","","","","","","","","","","","","","","","","","","","","","","","","","","","",""
"","","","","","html-keyboard-response","46","94159","0.0-5.0-1.10","A2WDF40FA670T9","2022-05-19T10:43:03.943Z","same_different-task_switching-rhyme-phon_sim","","1996.3999999985099","same_different","[""<img src=\""square.png\"" width=\""100\"" height=\""100\"" style=\""position: fixed;left:39%;top:47%\""><img src=\""square.png\"" width=\""100\"" height=\""100\"" style=\""position: fixed;left:54%;top:47%\""><img src=\""square.png\"" width=\""100\"" height=\""100\"" style=\""position: fixed;left:46.5%;top:32%\""><img src=\""square.png\"" width=\""100\"" height=\""100\"" style=\""position: fixed;left:46.5%;top:61%\""><div style=\""font-size:60px; text-align: center;margin-top:45.5%\"">+</div><div id=\""first\"" style=\""position: fixed;visibility: hidden;left:48%;top:62%\""><img src=\""same_diff_imgs/D11.gif\""></div><div id=\""delayed\"" style=\""position: fixed;visibility: hidden;left:40%;top:48%\""><img src=\""same_diff_imgs/D09.gif\""></div>""]","arrowdown","identical_image","same_diff_imgs/D11.gif","same_diff_imgs/D09.gif","no","different","","true","1","","","","","","","","","","","","","","","","","","","","","","","","","","",""
"","","","","","html-keyboard-response","47","94161","0.0-5.0-2.10","A2WDF40FA670T9","2022-05-19T10:43:03.943Z","same_different-task_switching-rhyme-phon_sim","","null",""," ","null","","","","","","","","","","","","","","","","","","","","","","","","","","","","","","","","","","",""
"","","","","","html-keyboard-response","48","94462","0.0-5.0-3.10","A2WDF40FA670T9","2022-05-19T10:43:03.943Z","same_different-task_switching-rhyme-phon_sim","","null","same_different"," ","null","","","","","","","","","","","","","","","","","","","","","","","","","","","","","","","","","","",""
"","","","","","html-keyboard-response","49","95214","0.0-5.0-0.11","A2WDF40FA670T9","2022-05-19T10:43:03.943Z","same_different-task_switching-rhyme-phon_sim","","null","same_different","<div style=""font-size:60px"">+</div>","null","","","","","","","","","","","","","","","","","","","","","","","","","","","","","","","","","","",""
"","","","","","html-keyboard-response","50","97128","0.0-5.0-1.11","A2WDF40FA670T9","2022-05-19T10:43:03.943Z","same_different-task_switching-rhyme-phon_sim","","1909.3999999985099","same_different","[""<img src=\""square.png\"" width=\""100\"" height=\""100\"" style=\""position: fixed;left:39%;top:47%\""><img src=\""square.png\"" width=\""100\"" height=\""100\"" style=\""position: fixed;left:54%;top:47%\""><img src=\""square.png\"" width=\""100\"" height=\""100\"" style=\""position: fixed;left:46.5%;top:32%\""><img src=\""square.png\"" width=\""100\"" height=\""100\"" style=\""position: fixed;left:46.5%;top:61%\""><div style=\""font-size:60px;text-align: center;margin-top:45.5%\"">+</div><div id=\""first\"" style=\""position: fixed;visibility: hidden;left:48%;top:62%\""><img src=\""same_diff_imgs/D07.gif\"" style=\""-webkit-transform: scaleX(-1);transform: scaleX(-1);\""></div><div id=\""delayed\"" style=\""position: fixed;visibility: hidden;left:48%;top:34%\""><img src=\""same_diff_imgs/C14.gif\"" style=\""-webkit-transform: scaleX(-1);transform: scaleX(-1);\""></div>""]","arrowdown","identical_image","same_diff_imgs/D07.gif","same_diff_imgs/C14.gif","yes","different","","true","1","","","","","","","","","","","","","","","","","","","","","","","","","","",""
"","","","","","html-keyboard-response","51","97129","0.0-5.0-2.11","A2WDF40FA670T9","2022-05-19T10:43:03.943Z","same_different-task_switching-rhyme-phon_sim","","null",""," ","null","","","","","","","","","","","","","","","","","","","","","","","","","","","","","","","","","","",""
"","","","","","html-keyboard-response","52","97431","0.0-5.0-3.11","A2WDF40FA670T9","2022-05-19T10:43:03.943Z","same_different-task_switching-rhyme-phon_sim","","null","same_different"," ","null","","","","","","","","","","","","","","","","","","","","","","","","","","","","","","","","","","",""
"","","","","","html-keyboard-response","53","98182","0.0-5.0-0.12","A2WDF40FA670T9","2022-05-19T10:43:03.943Z","same_different-task_switching-rhyme-phon_sim","","null","same_different","<div style=""font-size:60px"">+</div>","null","","","","","","","","","","","","","","","","","","","","","","","","","","","","","","","","","","",""
"","","","","","html-keyboard-response","54","99951","0.0-5.0-1.12","A2WDF40FA670T9","2022-05-19T10:43:03.943Z","same_different-task_switching-rhyme-phon_sim","","1765.1000000014901","same_different","[""<img src=\""square.png\"" width=\""100\"" height=\""100\"" style=\""position: fixed;left:39%;top:47%\""><img src=\""square.png\"" width=\""100\"" height=\""100\"" style=\""position: fixed;left:54%;top:47%\""><img src=\""square.png\"" width=\""100\"" height=\""100\"" style=\""position: fixed;left:46.5%;top:32%\""><img src=\""square.png\"" width=\""100\"" height=\""100\"" style=\""position: fixed;left:46.5%;top:61%\""><div style=\""font-size:60px; text-align: center;margin-top:45.5%\"">+</div><div id=\""first\"" style=\""position: fixed;visibility: hidden;left:55%;top:49%\""><img src=\""same_diff_imgs/D09.gif\""></div><div id=\""delayed\"" style=\""position: fixed;visibility: hidden;left:40%;top:48%\""><img src=\""same_diff_imgs/D09.gif\""></div>""]","arrowup","identical_image","same_diff_imgs/D09.gif","same_diff_imgs/D09.gif","no","same","1","true","","","","","","","","","","","","","","","","","","","","","","","","","","","",""
"","","","","","html-keyboard-response","55","99955","0.0-5.0-2.12","A2WDF40FA670T9","2022-05-19T10:43:03.943Z","same_different-task_switching-rhyme-phon_sim","","null",""," ","null","","","","","","","","","","","","","","","","","","","","","","","","","","","","","","","","","","",""
"","","","","","html-keyboard-response","56","100256","0.0-5.0-3.12","A2WDF40FA670T9","2022-05-19T10:43:03.943Z","same_different-task_switching-rhyme-phon_sim","","null","same_different"," ","null","","","","","","","","","","","","","","","","","","","","","","","","","","","","","","","","","","",""
"","","","","","html-keyboard-response","57","101008","0.0-5.0-0.13","A2WDF40FA670T9","2022-05-19T10:43:03.943Z","same_different-task_switching-rhyme-phon_sim","","null","same_different","<div style=""font-size:60px"">+</div>","null","","","","","","","","","","","","","","","","","","","","","","","","","","","","","","","","","","",""
"","","","","","html-keyboard-response","58","102819","0.0-5.0-1.13","A2WDF40FA670T9","2022-05-19T10:43:03.943Z","same_different-task_switching-rhyme-phon_sim","","1806.2999999970198","same_different","[""<img src=\""square.png\"" width=\""100\"" height=\""100\"" style=\""position: fixed;left:39%;top:47%\""><img src=\""square.png\"" width=\""100\"" height=\""100\"" style=\""position: fixed;left:54%;top:47%\""><img src=\""square.png\"" width=\""100\"" height=\""100\"" style=\""position: fixed;left:46.5%;top:32%\""><img src=\""square.png\"" width=\""100\"" height=\""100\"" style=\""position: fixed;left:46.5%;top:61%\""><div style=\""font-size:60px; text-align: center;margin-top:45.5%\"">+</div><div id=\""first\"" style=\""position: fixed;visibility: hidden;left:48%;top:62%\""><img src=\""same_diff_imgs/D09.gif\""></div><div id=\""delayed\"" style=\""position: fixed;visibility: hidden;left:40%;top:48%\""><img src=\""same_diff_imgs/D09.gif\""></div>""]","arrowup","identical_image","same_diff_imgs/D09.gif","same_diff_imgs/D09.gif","no","same","1","true","","","","","","","","","","","","","","","","","","","","","","","","","","","",""
"","","","","","html-keyboard-response","59","102822","0.0-5.0-2.13","A2WDF40FA670T9","2022-05-19T10:43:03.943Z","same_different-task_switching-rhyme-phon_sim","","null",""," ","null","","","","","","","","","","","","","","","","","","","","","","","","","","","","","","","","","","",""
"","","","","","html-keyboard-response","60","103123","0.0-5.0-3.13","A2WDF40FA670T9","2022-05-19T10:43:03.943Z","same_different-task_switching-rhyme-phon_sim","","null","same_different"," ","null","","","","","","","","","","","","","","","","","","","","","","","","","","","","","","","","","","",""
"","","","","","html-keyboard-response","61","103875","0.0-5.0-0.14","A2WDF40FA670T9","2022-05-19T10:43:03.943Z","same_different-task_switching-rhyme-phon_sim","","null","same_different","<div style=""font-size:60px"">+</div>","null","","","","","","","","","","","","","","","","","","","","","","","","","","","","","","","","","","",""
"","","","","","html-keyboard-response","62","105384","0.0-5.0-1.14","A2WDF40FA670T9","2022-05-19T10:43:03.943Z","same_different-task_switching-rhyme-phon_sim","","1505.699999999255","same_different","[""<img src=\""square.png\"" width=\""100\"" height=\""100\"" style=\""position: fixed;left:39%;top:47%\""><img src=\""square.png\"" width=\""100\"" height=\""100\"" style=\""position: fixed;left:54%;top:47%\""><img src=\""square.png\"" width=\""100\"" height=\""100\"" style=\""position: fixed;left:46.5%;top:32%\""><img src=\""square.png\"" width=\""100\"" height=\""100\"" style=\""position: fixed;left:46.5%;top:61%\""><div style=\""font-size:60px; text-align: center;margin-top:45.5%\"">+</div><div id=\""first\"" style=\""position: fixed;visibility: hidden;left:40%;top:48%\""><img src=\""same_diff_imgs/D11.gif\""></div><div id=\""delayed\"" style=\""position: fixed;visibility: hidden;left:55%;top:49%\""><img src=\""same_diff_imgs/D11.gif\""></div>""]","arrowup","identical_image","same_diff_imgs/D11.gif","same_diff_imgs/D11.gif","no","same","1","true","","","","","","","","","","","","","","","","","","","","","","","","","","","",""
"","","","","","html-keyboard-response","63","105387","0.0-5.0-2.14","A2WDF40FA670T9","2022-05-19T10:43:03.943Z","same_different-task_switching-rhyme-phon_sim","","null",""," ","null","","","","","","","","","","","","","","","","","","","","","","","","","","","","","","","","","","",""
"","","","","","html-keyboard-response","64","105689","0.0-5.0-3.14","A2WDF40FA670T9","2022-05-19T10:43:03.943Z","same_different-task_switching-rhyme-phon_sim","","null","same_different"," ","null","","","","","","","","","","","","","","","","","","","","","","","","","","","","","","","","","","",""
"","","","","","html-keyboard-response","65","106440","0.0-5.0-0.15","A2WDF40FA670T9","2022-05-19T10:43:03.943Z","same_different-task_switching-rhyme-phon_sim","","null","same_different","<div style=""font-size:60px"">+</div>","null","","","","","","","","","","","","","","","","","","","","","","","","","","","","","","","","","","",""
"","","","","","html-keyboard-response","66","107929","0.0-5.0-1.15","A2WDF40FA670T9","2022-05-19T10:43:03.943Z","same_different-task_switching-rhyme-phon_sim","","1482.1000000014901","same_different","[""<img src=\""square.png\"" width=\""100\"" height=\""100\"" style=\""position: fixed;left:39%;top:47%\""><img src=\""square.png\"" width=\""100\"" height=\""100\"" style=\""position: fixed;left:54%;top:47%\""><img src=\""square.png\"" width=\""100\"" height=\""100\"" style=\""position: fixed;left:46.5%;top:32%\""><img src=\""square.png\"" width=\""100\"" height=\""100\"" style=\""position: fixed;left:46.5%;top:61%\""><div style=\""font-size:60px; text-align: center;margin-top:45.5%\"">+</div><div id=\""first\"" style=\""position: fixed;visibility: hidden;left:48%;top:62%\""><img src=\""same_diff_imgs/D09.gif\""></div><div id=\""delayed\"" style=\""position: fixed;visibility: hidden;left:40%;top:48%\""><img src=\""same_diff_imgs/D09.gif\""></div>""]","arrowup","identical_image","same_diff_imgs/D09.gif","same_diff_imgs/D09.gif","no","same","1","true","","","","","","","","","","","","","","","","","","","","","","","","","","","",""
"","","","","","html-keyboard-response","67","107931","0.0-5.0-2.15","A2WDF40FA670T9","2022-05-19T10:43:03.943Z","same_different-task_switching-rhyme-phon_sim","","null",""," ","null","","","","","","","","","","","","","","","","","","","","","","","","","","","","","","","","","","",""
"","","","","","html-keyboard-response","68","108232","0.0-5.0-3.15","A2WDF40FA670T9","2022-05-19T10:43:03.943Z","same_different-task_switching-rhyme-phon_sim","","null","same_different"," ","null","","","","","","","","","","","","","","","","","","","","","","","","","","","","","","","","","","",""
"","","","","","html-keyboard-response","69","108983","0.0-5.0-0.16","A2WDF40FA670T9","2022-05-19T10:43:03.943Z","same_different-task_switching-rhyme-phon_sim","","null","same_different","<div style=""font-size:60px"">+</div>","null","","","","","","","","","","","","","","","","","","","","","","","","","","","","","","","","","","",""
"","","","","","html-keyboard-response","70","110647","0.0-5.0-1.16","A2WDF40FA670T9","2022-05-19T10:43:03.943Z","same_different-task_switching-rhyme-phon_sim","","1660.3999999985099","same_different","[""<img src=\""square.png\"" width=\""100\"" height=\""100\"" style=\""position: fixed;left:39%;top:47%\""><img src=\""square.png\"" width=\""100\"" height=\""100\"" style=\""position: fixed;left:54%;top:47%\""><img src=\""square.png\"" width=\""100\"" height=\""100\"" style=\""position: fixed;left:46.5%;top:32%\""><img src=\""square.png\"" width=\""100\"" height=\""100\"" style=\""position: fixed;left:46.5%;top:61%\""><div style=\""font-size:60px;text-align: center;margin-top:45.5%\"">+</div><div id=\""first\"" style=\""position: fixed;visibility: hidden;left:40%;top:48%\""><img src=\""same_diff_imgs/C14.gif\"" style=\""-webkit-transform: scaleX(-1);transform: scaleX(-1);\""></div><div id=\""delayed\"" style=\""position: fixed;visibility: hidden;left:48%;top:34%\""><img src=\""same_diff_imgs/C04.gif\"" style=\""-webkit-transform: scaleX(-1);transform: scaleX(-1);\""></div>""]","arrowdown","identical_image","same_diff_imgs/C14.gif","same_diff_imgs/C04.gif","yes","different","","true","1","","","","","","","","","","","","","","","","","","","","","","","","","","",""
"","","","","","html-keyboard-response","71","110649","0.0-5.0-2.16","A2WDF40FA670T9","2022-05-19T10:43:03.943Z","same_different-task_switching-rhyme-phon_sim","","null",""," ","null","","","","","","","","","","","","","","","","","","","","","","","","","","","","","","","","","","",""
"","","","","","html-keyboard-response","72","110950","0.0-5.0-3.16","A2WDF40FA670T9","2022-05-19T10:43:03.943Z","same_different-task_switching-rhyme-phon_sim","","null","same_different"," ","null","","","","","","","","","","","","","","","","","","","","","","","","","","","","","","","","","","",""
"","","","","","html-keyboard-response","73","111702","0.0-5.0-0.17","A2WDF40FA670T9","2022-05-19T10:43:03.943Z","same_different-task_switching-rhyme-phon_sim","","null","same_different","<div style=""font-size:60px"">+</div>","null","","","","","","","","","","","","","","","","","","","","","","","","","","","","","","","","","","",""
"","","","","","html-keyboard-response","74","113315","0.0-5.0-1.17","A2WDF40FA670T9","2022-05-19T10:43:03.943Z","same_different-task_switching-rhyme-phon_sim","","1610.3999999985099","same_different","[""<img src=\""square.png\"" width=\""100\"" height=\""100\"" style=\""position: fixed;left:39%;top:47%\""><img src=\""square.png\"" width=\""100\"" height=\""100\"" style=\""position: fixed;left:54%;top:47%\""><img src=\""square.png\"" width=\""100\"" height=\""100\"" style=\""position: fixed;left:46.5%;top:32%\""><img src=\""square.png\"" width=\""100\"" height=\""100\"" style=\""position: fixed;left:46.5%;top:61%\""><div style=\""font-size:60px; text-align: center;margin-top:45.5%\"">+</div><div id=\""first\"" style=\""position: fixed;visibility: hidden;left:48%;top:34%\""><img src=\""same_diff_imgs/C04.gif\""></div><div id=\""delayed\"" style=\""position: fixed;visibility: hidden;left:48%;top:62%\""><img src=\""same_diff_imgs/C04.gif\""></div>""]","arrowup","identical_image","same_diff_imgs/C04.gif","same_diff_imgs/C04.gif","no","same","1","true","","","","","","","","","","","","","","","","","","","","","","","","","","","",""
"","","","","","html-keyboard-response","75","113318","0.0-5.0-2.17","A2WDF40FA670T9","2022-05-19T10:43:03.943Z","same_different-task_switching-rhyme-phon_sim","","null",""," ","null","","","","","","","","","","","","","","","","","","","","","","","","","","","","","","","","","","",""
"","","","","","html-keyboard-response","76","113619","0.0-5.0-3.17","A2WDF40FA670T9","2022-05-19T10:43:03.943Z","same_different-task_switching-rhyme-phon_sim","","null","same_different"," ","null","","","","","","","","","","","","","","","","","","","","","","","","","","","","","","","","","","",""
"","","","","","html-keyboard-response","77","114371","0.0-5.0-0.18","A2WDF40FA670T9","2022-05-19T10:43:03.943Z","same_different-task_switching-rhyme-phon_sim","","null","same_different","<div style=""font-size:60px"">+</div>","null","","","","","","","","","","","","","","","","","","","","","","","","","","","","","","","","","","",""
"","","","","","html-keyboard-response","78","115794","0.0-5.0-1.18","A2WDF40FA670T9","2022-05-19T10:43:03.943Z","same_different-task_switching-rhyme-phon_sim","","1418.5999999977648","same_different","[""<img src=\""square.png\"" width=\""100\"" height=\""100\"" style=\""position: fixed;left:39%;top:47%\""><img src=\""square.png\"" width=\""100\"" height=\""100\"" style=\""position: fixed;left:54%;top:47%\""><img src=\""square.png\"" width=\""100\"" height=\""100\"" style=\""position: fixed;left:46.5%;top:32%\""><img src=\""square.png\"" width=\""100\"" height=\""100\"" style=\""position: fixed;left:46.5%;top:61%\""><div style=\""font-size:60px; text-align: center;margin-top:45.5%\"">+</div><div id=\""first\"" style=\""position: fixed;visibility: hidden;left:40%;top:48%\""><img src=\""same_diff_imgs/C09.gif\""></div><div id=\""delayed\"" style=\""position: fixed;visibility: hidden;left:55%;top:49%\""><img src=\""same_diff_imgs/C09.gif\""></div>""]","arrowup","identical_image","same_diff_imgs/C09.gif","same_diff_imgs/C09.gif","no","same","1","true","","","","","","","","","","","","","","","","","","","","","","","","","","","",""
"","","","","","html-keyboard-response","79","115797","0.0-5.0-2.18","A2WDF40FA670T9","2022-05-19T10:43:03.943Z","same_different-task_switching-rhyme-phon_sim","","null",""," ","null","","","","","","","","","","","","","","","","","","","","","","","","","","","","","","","","","","",""
"","","","","","html-keyboard-response","80","116099","0.0-5.0-3.18","A2WDF40FA670T9","2022-05-19T10:43:03.943Z","same_different-task_switching-rhyme-phon_sim","","null","same_different"," ","null","","","","","","","","","","","","","","","","","","","","","","","","","","","","","","","","","","",""
"","","","","","html-keyboard-response","81","116850","0.0-5.0-0.19","A2WDF40FA670T9","2022-05-19T10:43:03.943Z","same_different-task_switching-rhyme-phon_sim","","null","same_different","<div style=""font-size:60px"">+</div>","null","","","","","","","","","","","","","","","","","","","","","","","","","","","","","","","","","","",""
"","","","","","html-keyboard-response","82","118353","0.0-5.0-1.19","A2WDF40FA670T9","2022-05-19T10:43:03.943Z","same_different-task_switching-rhyme-phon_sim","","1499.3999999985099","same_different","[""<img src=\""square.png\"" width=\""100\"" height=\""100\"" style=\""position: fixed;left:39%;top:47%\""><img src=\""square.png\"" width=\""100\"" height=\""100\"" style=\""position: fixed;left:54%;top:47%\""><img src=\""square.png\"" width=\""100\"" height=\""100\"" style=\""position: fixed;left:46.5%;top:32%\""><img src=\""square.png\"" width=\""100\"" height=\""100\"" style=\""position: fixed;left:46.5%;top:61%\""><div style=\""font-size:60px; text-align: center;margin-top:45.5%\"">+</div><div id=\""first\"" style=\""position: fixed;visibility: hidden;left:48%;top:34%\""><img src=\""same_diff_imgs/D09.gif\""></div><div id=\""delayed\"" style=\""position: fixed;visibility: hidden;left:48%;top:62%\""><img src=\""same_diff_imgs/D09.gif\""></div>""]","arrowup","identical_image","same_diff_imgs/D09.gif","same_diff_imgs/D09.gif","no","same","1","true","","","","","","","","","","","","","","","","","","","","","","","","","","","",""
"","","","","","html-keyboard-response","83","118356","0.0-5.0-2.19","A2WDF40FA670T9","2022-05-19T10:43:03.943Z","same_different-task_switching-rhyme-phon_sim","","null",""," ","null","","","","","","","","","","","","","","","","","","","","","","","","","","","","","","","","","","",""
"","","","","","html-keyboard-response","84","118657","0.0-5.0-3.19","A2WDF40FA670T9","2022-05-19T10:43:03.943Z","same_different-task_switching-rhyme-phon_sim","","null","same_different"," ","null","","","","","","","","","","","","","","","","","","","","","","","","","","","","","","","","","","",""
"","","","","","html-keyboard-response","85","119409","0.0-5.0-0.20","A2WDF40FA670T9","2022-05-19T10:43:03.943Z","same_different-task_switching-rhyme-phon_sim","","null","same_different","<div style=""font-size:60px"">+</div>","null","","","","","","","","","","","","","","","","","","","","","","","","","","","","","","","","","","",""
"","","","","","html-keyboard-response","86","121122","0.0-5.0-1.20","A2WDF40FA670T9","2022-05-19T10:43:03.943Z","same_different-task_switching-rhyme-phon_sim","","1709.199999999255","same_different","[""<img src=\""square.png\"" width=\""100\"" height=\""100\"" style=\""position: fixed;left:39%;top:47%\""><img src=\""square.png\"" width=\""100\"" height=\""100\"" style=\""position: fixed;left:54%;top:47%\""><img src=\""square.png\"" width=\""100\"" height=\""100\"" style=\""position: fixed;left:46.5%;top:32%\""><img src=\""square.png\"" width=\""100\"" height=\""100\"" style=\""position: fixed;left:46.5%;top:61%\""><div style=\""font-size:60px;text-align: center;margin-top:45.5%\"">+</div><div id=\""first\"" style=\""position: fixed;visibility: hidden;left:55%;top:49%\""><img src=\""same_diff_imgs/D07.gif\"" style=\""-webkit-transform: scaleX(-1);transform: scaleX(-1);\""></div><div id=\""delayed\"" style=\""position: fixed;visibility: hidden;left:40%;top:48%\""><img src=\""same_diff_imgs/C04.gif\"" style=\""-webkit-transform: scaleX(-1);transform: scaleX(-1);\""></div>""]","arrowdown","identical_image","same_diff_imgs/D07.gif","same_diff_imgs/C04.gif","yes","different","","true","1","","","","","","","","","","","","","","","","","","","","","","","","","","",""
"","","","","","html-keyboard-response","87","121125","0.0-5.0-2.20","A2WDF40FA670T9","2022-05-19T10:43:03.943Z","same_different-task_switching-rhyme-phon_sim","","null",""," ","null","","","","","","","","","","","","","","","","","","","","","","","","","","","","","","","","","","",""
"","","","","","html-keyboard-response","88","121426","0.0-5.0-3.20","A2WDF40FA670T9","2022-05-19T10:43:03.943Z","same_different-task_switching-rhyme-phon_sim","","null","same_different"," ","null","","","","","","","","","","","","","","","","","","","","","","","","","","","","","","","","","","",""
"","","","","","html-keyboard-response","89","122178","0.0-5.0-0.21","A2WDF40FA670T9","2022-05-19T10:43:03.943Z","same_different-task_switching-rhyme-phon_sim","","null","same_different","<div style=""font-size:60px"">+</div>","null","","","","","","","","","","","","","","","","","","","","","","","","","","","","","","","","","","",""
"","","","","","html-keyboard-response","90","123555","0.0-5.0-1.21","A2WDF40FA670T9","2022-05-19T10:43:03.943Z","same_different-task_switching-rhyme-phon_sim","","1373.9000000022352","same_different","[""<img src=\""square.png\"" width=\""100\"" height=\""100\"" style=\""position: fixed;left:39%;top:47%\""><img src=\""square.png\"" width=\""100\"" height=\""100\"" style=\""position: fixed;left:54%;top:47%\""><img src=\""square.png\"" width=\""100\"" height=\""100\"" style=\""position: fixed;left:46.5%;top:32%\""><img src=\""square.png\"" width=\""100\"" height=\""100\"" style=\""position: fixed;left:46.5%;top:61%\""><div style=\""font-size:60px; text-align: center;margin-top:45.5%\"">+</div><div id=\""first\"" style=\""position: fixed;visibility: hidden;left:55%;top:49%\""><img src=\""same_diff_imgs/C04.gif\""></div><div id=\""delayed\"" style=\""position: fixed;visibility: hidden;left:40%;top:48%\""><img src=\""same_diff_imgs/C04.gif\""></div>""]","arrowup","identical_image","same_diff_imgs/C04.gif","same_diff_imgs/C04.gif","no","same","1","true","","","","","","","","","","","","","","","","","","","","","","","","","","","",""
"","","","","","html-keyboard-response","91","123557","0.0-5.0-2.21","A2WDF40FA670T9","2022-05-19T10:43:03.943Z","same_different-task_switching-rhyme-phon_sim","","null",""," ","null","","","","","","","","","","","","","","","","","","","","","","","","","","","","","","","","","","",""
"","","","","","html-keyboard-response","92","123858","0.0-5.0-3.21","A2WDF40FA670T9","2022-05-19T10:43:03.943Z","same_different-task_switching-rhyme-phon_sim","","null","same_different"," ","null","","","","","","","","","","","","","","","","","","","","","","","","","","","","","","","","","","",""
"","","","","","html-keyboard-response","93","124610","0.0-5.0-0.22","A2WDF40FA670T9","2022-05-19T10:43:03.943Z","same_different-task_switching-rhyme-phon_sim","","null","same_different","<div style=""font-size:60px"">+</div>","null","","","","","","","","","","","","","","","","","","","","","","","","","","","","","","","","","","",""
"","","","","","html-keyboard-response","94","126209","0.0-5.0-1.22","A2WDF40FA670T9","2022-05-19T10:43:03.943Z","same_different-task_switching-rhyme-phon_sim","","1596.5","same_different","[""<img src=\""square.png\"" width=\""100\"" height=\""100\"" style=\""position: fixed;left:39%;top:47%\""><img src=\""square.png\"" width=\""100\"" height=\""100\"" style=\""position: fixed;left:54%;top:47%\""><img src=\""square.png\"" width=\""100\"" height=\""100\"" style=\""position: fixed;left:46.5%;top:32%\""><img src=\""square.png\"" width=\""100\"" height=\""100\"" style=\""position: fixed;left:46.5%;top:61%\""><div style=\""font-size:60px;text-align: center;margin-top:45.5%\"">+</div><div id=\""first\"" style=\""position: fixed;visibility: hidden;left:48%;top:34%\""><img src=\""same_diff_imgs/D07.gif\"" style=\""-webkit-transform: scaleX(-1);transform: scaleX(-1);\""></div><div id=\""delayed\"" style=\""position: fixed;visibility: hidden;left:48%;top:62%\""><img src=\""same_diff_imgs/D11.gif\"" style=\""-webkit-transform: scaleX(-1);transform: scaleX(-1);\""></div>""]","arrowdown","identical_image","same_diff_imgs/D07.gif","same_diff_imgs/D11.gif","yes","different","","true","1","","","","","","","","","","","","","","","","","","","","","","","","","","",""
"","","","","","html-keyboard-response","95","126211","0.0-5.0-2.22","A2WDF40FA670T9","2022-05-19T10:43:03.943Z","same_different-task_switching-rhyme-phon_sim","","null",""," ","null","","","","","","","","","","","","","","","","","","","","","","","","","","","","","","","","","","",""
"","","","","","html-keyboard-response","96","126513","0.0-5.0-3.22","A2WDF40FA670T9","2022-05-19T10:43:03.943Z","same_different-task_switching-rhyme-phon_sim","","null","same_different"," ","null","","","","","","","","","","","","","","","","","","","","","","","","","","","","","","","","","","",""
"","","","","","html-keyboard-response","97","127264","0.0-5.0-0.23","A2WDF40FA670T9","2022-05-19T10:43:03.943Z","same_different-task_switching-rhyme-phon_sim","","null","same_different","<div style=""font-size:60px"">+</div>","null","","","","","","","","","","","","","","","","","","","","","","","","","","","","","","","","","","",""
"","","","","","html-keyboard-response","98","129109","0.0-5.0-1.23","A2WDF40FA670T9","2022-05-19T10:43:03.943Z","same_different-task_switching-rhyme-phon_sim","","1842.7999999970198","same_different","[""<img src=\""square.png\"" width=\""100\"" height=\""100\"" style=\""position: fixed;left:39%;top:47%\""><img src=\""square.png\"" width=\""100\"" height=\""100\"" style=\""position: fixed;left:54%;top:47%\""><img src=\""square.png\"" width=\""100\"" height=\""100\"" style=\""position: fixed;left:46.5%;top:32%\""><img src=\""square.png\"" width=\""100\"" height=\""100\"" style=\""position: fixed;left:46.5%;top:61%\""><div style=\""font-size:60px;text-align: center;margin-top:45.5%\"">+</div><div id=\""first\"" style=\""position: fixed;visibility: hidden;left:55%;top:49%\""><img src=\""same_diff_imgs/D11.gif\"" style=\""-webkit-transform: scaleX(-1);transform: scaleX(-1);\""></div><div id=\""delayed\"" style=\""position: fixed;visibility: hidden;left:40%;top:48%\""><img src=\""same_diff_imgs/C04.gif\"" style=\""-webkit-transform: scaleX(-1);transform: scaleX(-1);\""></div>""]","arrowdown","identical_image","same_diff_imgs/D11.gif","same_diff_imgs/C04.gif","yes","different","","true","1","","","","","","","","","","","","","","","","","","","","","","","","","","",""
"","","","","","html-keyboard-response","99","129112","0.0-5.0-2.23","A2WDF40FA670T9","2022-05-19T10:43:03.943Z","same_different-task_switching-rhyme-phon_sim","","null",""," ","null","","","","","","","","","","","","","","","","","","","","","","","","","","","","","","","","","","",""
"","","","","","html-keyboard-response","100","129413","0.0-5.0-3.23","A2WDF40FA670T9","2022-05-19T10:43:03.943Z","same_different-task_switching-rhyme-phon_sim","","null","same_different"," ","null","","","","","","","","","","","","","","","","","","","","","","","","","","","","","","","","","","",""
"","","","","","html-keyboard-response","101","130165","0.0-5.0-0.24","A2WDF40FA670T9","2022-05-19T10:43:03.943Z","same_different-task_switching-rhyme-phon_sim","","null","same_different","<div style=""font-size:60px"">+</div>","null","","","","","","","","","","","","","","","","","","","","","","","","","","","","","","","","","","",""
"","","","","","html-keyboard-response","102","131997","0.0-5.0-1.24","A2WDF40FA670T9","2022-05-19T10:43:03.943Z","same_different-task_switching-rhyme-phon_sim","","1829","same_different","[""<img src=\""square.png\"" width=\""100\"" height=\""100\"" style=\""position: fixed;left:39%;top:47%\""><img src=\""square.png\"" width=\""100\"" height=\""100\"" style=\""position: fixed;left:54%;top:47%\""><img src=\""square.png\"" width=\""100\"" height=\""100\"" style=\""position: fixed;left:46.5%;top:32%\""><img src=\""square.png\"" width=\""100\"" height=\""100\"" style=\""position: fixed;left:46.5%;top:61%\""><div style=\""font-size:60px; text-align: center;margin-top:45.5%\"">+</div><div id=\""first\"" style=\""position: fixed;visibility: hidden;left:55%;top:49%\""><img src=\""same_diff_imgs/D09.gif\""></div><div id=\""delayed\"" style=\""position: fixed;visibility: hidden;left:48%;top:34%\""><img src=\""same_diff_imgs/D07.gif\""></div>""]","arrowdown","identical_image","same_diff_imgs/D09.gif","same_diff_imgs/D07.gif","no","different","","true","1","","","","","","","","","","","","","","","","","","","","","","","","","","",""
"","","","","","html-keyboard-response","103","132000","0.0-5.0-2.24","A2WDF40FA670T9","2022-05-19T10:43:03.943Z","same_different-task_switching-rhyme-phon_sim","","null",""," ","null","","","","","","","","","","","","","","","","","","","","","","","","","","","","","","","","","","",""
"","","","","","html-keyboard-response","104","132301","0.0-5.0-3.24","A2WDF40FA670T9","2022-05-19T10:43:03.943Z","same_different-task_switching-rhyme-phon_sim","","null","same_different"," ","null","","","","","","","","","","","","","","","","","","","","","","","","","","","","","","","","","","",""
"","","","","","html-keyboard-response","105","133052","0.0-5.0-0.25","A2WDF40FA670T9","2022-05-19T10:43:03.943Z","same_different-task_switching-rhyme-phon_sim","","null","same_different","<div style=""font-size:60px"">+</div>","null","","","","","","","","","","","","","","","","","","","","","","","","","","","","","","","","","","",""
"","","","","","html-keyboard-response","106","134779","0.0-5.0-1.25","A2WDF40FA670T9","2022-05-19T10:43:03.943Z","same_different-task_switching-rhyme-phon_sim","","1723.5","same_different","[""<img src=\""square.png\"" width=\""100\"" height=\""100\"" style=\""position: fixed;left:39%;top:47%\""><img src=\""square.png\"" width=\""100\"" height=\""100\"" style=\""position: fixed;left:54%;top:47%\""><img src=\""square.png\"" width=\""100\"" height=\""100\"" style=\""position: fixed;left:46.5%;top:32%\""><img src=\""square.png\"" width=\""100\"" height=\""100\"" style=\""position: fixed;left:46.5%;top:61%\""><div style=\""font-size:60px; text-align: center;margin-top:45.5%\"">+</div><div id=\""first\"" style=\""position: fixed;visibility: hidden;left:48%;top:62%\""><img src=\""same_diff_imgs/D09.gif\""></div><div id=\""delayed\"" style=\""position: fixed;visibility: hidden;left:55%;top:49%\""><img src=\""same_diff_imgs/C09.gif\""></div>""]","arrowdown","identical_image","same_diff_imgs/D09.gif","same_diff_imgs/C09.gif","no","different","","true","1","","","","","","","","","","","","","","","","","","","","","","","","","","",""
"","","","","","html-keyboard-response","107","134782","0.0-5.0-2.25","A2WDF40FA670T9","2022-05-19T10:43:03.943Z","same_different-task_switching-rhyme-phon_sim","","null",""," ","null","","","","","","","","","","","","","","","","","","","","","","","","","","","","","","","","","","",""
"","","","","","html-keyboard-response","108","135084","0.0-5.0-3.25","A2WDF40FA670T9","2022-05-19T10:43:03.943Z","same_different-task_switching-rhyme-phon_sim","","null","same_different"," ","null","","","","","","","","","","","","","","","","","","","","","","","","","","","","","","","","","","",""
"","","","","","html-keyboard-response","109","135835","0.0-5.0-0.26","A2WDF40FA670T9","2022-05-19T10:43:03.943Z","same_different-task_switching-rhyme-phon_sim","","null","same_different","<div style=""font-size:60px"">+</div>","null","","","","","","","","","","","","","","","","","","","","","","","","","","","","","","","","","","",""
"","","","","","html-keyboard-response","110","137372","0.0-5.0-1.26","A2WDF40FA670T9","2022-05-19T10:43:03.943Z","same_different-task_switching-rhyme-phon_sim","","1533.300000000745","same_different","[""<img src=\""square.png\"" width=\""100\"" height=\""100\"" style=\""position: fixed;left:39%;top:47%\""><img src=\""square.png\"" width=\""100\"" height=\""100\"" style=\""position: fixed;left:54%;top:47%\""><img src=\""square.png\"" width=\""100\"" height=\""100\"" style=\""position: fixed;left:46.5%;top:32%\""><img src=\""square.png\"" width=\""100\"" height=\""100\"" style=\""position: fixed;left:46.5%;top:61%\""><div style=\""font-size:60px; text-align: center;margin-top:45.5%\"">+</div><div id=\""first\"" style=\""position: fixed;visibility: hidden;left:48%;top:62%\""><img src=\""same_diff_imgs/C09.gif\""></div><div id=\""delayed\"" style=\""position: fixed;visibility: hidden;left:55%;top:49%\""><img src=\""same_diff_imgs/C09.gif\""></div>""]","arrowup","identical_image","same_diff_imgs/C09.gif","same_diff_imgs/C09.gif","no","same","1","true","","","","","","","","","","","","","","","","","","","","","","","","","","","",""
"","","","","","html-keyboard-response","111","137375","0.0-5.0-2.26","A2WDF40FA670T9","2022-05-19T10:43:03.943Z","same_different-task_switching-rhyme-phon_sim","","null",""," ","null","","","","","","","","","","","","","","","","","","","","","","","","","","","","","","","","","","",""
"","","","","","html-keyboard-response","112","137676","0.0-5.0-3.26","A2WDF40FA670T9","2022-05-19T10:43:03.943Z","same_different-task_switching-rhyme-phon_sim","","null","same_different"," ","null","","","","","","","","","","","","","","","","","","","","","","","","","","","","","","","","","","",""
"","","","","","html-keyboard-response","113","138428","0.0-5.0-0.27","A2WDF40FA670T9","2022-05-19T10:43:03.943Z","same_different-task_switching-rhyme-phon_sim","","null","same_different","<div style=""font-size:60px"">+</div>","null","","","","","","","","","","","","","","","","","","","","","","","","","","","","","","","","","","",""
"","","","","","html-keyboard-response","114","140181","0.0-5.0-1.27","A2WDF40FA670T9","2022-05-19T10:43:03.943Z","same_different-task_switching-rhyme-phon_sim","","1748.3999999985099","same_different","[""<img src=\""square.png\"" width=\""100\"" height=\""100\"" style=\""position: fixed;left:39%;top:47%\""><img src=\""square.png\"" width=\""100\"" height=\""100\"" style=\""position: fixed;left:54%;top:47%\""><img src=\""square.png\"" width=\""100\"" height=\""100\"" style=\""position: fixed;left:46.5%;top:32%\""><img src=\""square.png\"" width=\""100\"" height=\""100\"" style=\""position: fixed;left:46.5%;top:61%\""><div style=\""font-size:60px; text-align: center;margin-top:45.5%\"">+</div><div id=\""first\"" style=\""position: fixed;visibility: hidden;left:48%;top:34%\""><img src=\""same_diff_imgs/D09.gif\""></div><div id=\""delayed\"" style=\""position: fixed;visibility: hidden;left:48%;top:62%\""><img src=\""same_diff_imgs/D09.gif\""></div>""]","arrowup","identical_image","same_diff_imgs/D09.gif","same_diff_imgs/D09.gif","no","same","1","true","","","","","","","","","","","","","","","","","","","","","","","","","","","",""
"","","","","","html-keyboard-response","115","140184","0.0-5.0-2.27","A2WDF40FA670T9","2022-05-19T10:43:03.943Z","same_different-task_switching-rhyme-phon_sim","","null",""," ","null","","","","","","","","","","","","","","","","","","","","","","","","","","","","","","","","","","",""
"","","","","","html-keyboard-response","116","140485","0.0-5.0-3.27","A2WDF40FA670T9","2022-05-19T10:43:03.943Z","same_different-task_switching-rhyme-phon_sim","","null","same_different"," ","null","","","","","","","","","","","","","","","","","","","","","","","","","","","","","","","","","","",""
"","","","","","html-keyboard-response","117","141236","0.0-5.0-0.28","A2WDF40FA670T9","2022-05-19T10:43:03.943Z","same_different-task_switching-rhyme-phon_sim","","null","same_different","<div style=""font-size:60px"">+</div>","null","","","","","","","","","","","","","","","","","","","","","","","","","","","","","","","","","","",""
"","","","","","html-keyboard-response","118","142861","0.0-5.0-1.28","A2WDF40FA670T9","2022-05-19T10:43:03.943Z","same_different-task_switching-rhyme-phon_sim","","1621.199999999255","same_different","[""<img src=\""square.png\"" width=\""100\"" height=\""100\"" style=\""position: fixed;left:39%;top:47%\""><img src=\""square.png\"" width=\""100\"" height=\""100\"" style=\""position: fixed;left:54%;top:47%\""><img src=\""square.png\"" width=\""100\"" height=\""100\"" style=\""position: fixed;left:46.5%;top:32%\""><img src=\""square.png\"" width=\""100\"" height=\""100\"" style=\""position: fixed;left:46.5%;top:61%\""><div style=\""font-size:60px; text-align: center;margin-top:45.5%\"">+</div><div id=\""first\"" style=\""position: fixed;visibility: hidden;left:48%;top:62%\""><img src=\""same_diff_imgs/D07.gif\""></div><div id=\""delayed\"" style=\""position: fixed;visibility: hidden;left:40%;top:48%\""><img src=\""same_diff_imgs/D07.gif\""></div>""]","arrowup","identical_image","same_diff_imgs/D07.gif","same_diff_imgs/D07.gif","no","same","1","true","","","","","","","","","","","","","","","","","","","","","","","","","","","",""
"","","","","","html-keyboard-response","119","142865","0.0-5.0-2.28","A2WDF40FA670T9","2022-05-19T10:43:03.943Z","same_different-task_switching-rhyme-phon_sim","","null",""," ","null","","","","","","","","","","","","","","","","","","","","","","","","","","","","","","","","","","",""
"","","","","","html-keyboard-response","120","143167","0.0-5.0-3.28","A2WDF40FA670T9","2022-05-19T10:43:03.943Z","same_different-task_switching-rhyme-phon_sim","","null","same_different"," ","null","","","","","","","","","","","","","","","","","","","","","","","","","","","","","","","","","","",""
"","","","","","html-keyboard-response","121","143918","0.0-5.0-0.29","A2WDF40FA670T9","2022-05-19T10:43:03.943Z","same_different-task_switching-rhyme-phon_sim","","null","same_different","<div style=""font-size:60px"">+</div>","null","","","","","","","","","","","","","","","","","","","","","","","","","","","","","","","","","","",""
"","","","","","html-keyboard-response","122","145519","0.0-5.0-1.29","A2WDF40FA670T9","2022-05-19T10:43:03.943Z","same_different-task_switching-rhyme-phon_sim","","1597.199999999255","same_different","[""<img src=\""square.png\"" width=\""100\"" height=\""100\"" style=\""position: fixed;left:39%;top:47%\""><img src=\""square.png\"" width=\""100\"" height=\""100\"" style=\""position: fixed;left:54%;top:47%\""><img src=\""square.png\"" width=\""100\"" height=\""100\"" style=\""position: fixed;left:46.5%;top:32%\""><img src=\""square.png\"" width=\""100\"" height=\""100\"" style=\""position: fixed;left:46.5%;top:61%\""><div style=\""font-size:60px; text-align: center;margin-top:45.5%\"">+</div><div id=\""first\"" style=\""position: fixed;visibility: hidden;left:48%;top:62%\""><img src=\""same_diff_imgs/D09.gif\""></div><div id=\""delayed\"" style=\""position: fixed;visibility: hidden;left:40%;top:48%\""><img src=\""same_diff_imgs/D09.gif\""></div>""]","arrowup","identical_image","same_diff_imgs/D09.gif","same_diff_imgs/D09.gif","no","same","1","true","","","","","","","","","","","","","","","","","","","","","","","","","","","",""
"","","","","","html-keyboard-response","123","145522","0.0-5.0-2.29","A2WDF40FA670T9","2022-05-19T10:43:03.943Z","same_different-task_switching-rhyme-phon_sim","","null",""," ","null","","","","","","","","","","","","","","","","","","","","","","","","","","","","","","","","","","",""
"","","","","","html-keyboard-response","124","145823","0.0-5.0-3.29","A2WDF40FA670T9","2022-05-19T10:43:03.943Z","same_different-task_switching-rhyme-phon_sim","","null","same_different"," ","null","","","","","","","","","","","","","","","","","","","","","","","","","","","","","","","","","","",""
"","","","","","html-keyboard-response","125","146575","0.0-5.0-0.30","A2WDF40FA670T9","2022-05-19T10:43:03.943Z","same_different-task_switching-rhyme-phon_sim","","null","same_different","<div style=""font-size:60px"">+</div>","null","","","","","","","","","","","","","","","","","","","","","","","","","","","","","","","","","","",""
"","","","","","html-keyboard-response","126","148169","0.0-5.0-1.30","A2WDF40FA670T9","2022-05-19T10:43:03.943Z","same_different-task_switching-rhyme-phon_sim","","1590.0999999977648","same_different","[""<img src=\""square.png\"" width=\""100\"" height=\""100\"" style=\""position: fixed;left:39%;top:47%\""><img src=\""square.png\"" width=\""100\"" height=\""100\"" style=\""position: fixed;left:54%;top:47%\""><img src=\""square.png\"" width=\""100\"" height=\""100\"" style=\""position: fixed;left:46.5%;top:32%\""><img src=\""square.png\"" width=\""100\"" height=\""100\"" style=\""position: fixed;left:46.5%;top:61%\""><div style=\""font-size:60px; text-align: center;margin-top:45.5%\"">+</div><div id=\""first\"" style=\""position: fixed;visibility: hidden;left:48%;top:62%\""><img src=\""same_diff_imgs/D11.gif\""></div><div id=\""delayed\"" style=\""position: fixed;visibility: hidden;left:48%;top:34%\""><img src=\""same_diff_imgs/D11.gif\""></div>""]","arrowup","identical_image","same_diff_imgs/D11.gif","same_diff_imgs/D11.gif","no","same","1","true","","","","","","","","","","","","","","","","","","","","","","","","","","","",""
"","","","","","html-keyboard-response","127","148172","0.0-5.0-2.30","A2WDF40FA670T9","2022-05-19T10:43:03.943Z","same_different-task_switching-rhyme-phon_sim","","null",""," ","null","","","","","","","","","","","","","","","","","","","","","","","","","","","","","","","","","","",""
"","","","","","html-keyboard-response","128","148474","0.0-5.0-3.30","A2WDF40FA670T9","2022-05-19T10:43:03.943Z","same_different-task_switching-rhyme-phon_sim","","null","same_different"," ","null","","","","","","","","","","","","","","","","","","","","","","","","","","","","","","","","","","",""
"","","","","","html-keyboard-response","129","149226","0.0-5.0-0.31","A2WDF40FA670T9","2022-05-19T10:43:03.943Z","same_different-task_switching-rhyme-phon_sim","","null","same_different","<div style=""font-size:60px"">+</div>","null","","","","","","","","","","","","","","","","","","","","","","","","","","","","","","","","","","",""
"","","","","","html-keyboard-response","130","150831","0.0-5.0-1.31","A2WDF40FA670T9","2022-05-19T10:43:03.943Z","same_different-task_switching-rhyme-phon_sim","","1602.3999999985099","same_different","[""<img src=\""square.png\"" width=\""100\"" height=\""100\"" style=\""position: fixed;left:39%;top:47%\""><img src=\""square.png\"" width=\""100\"" height=\""100\"" style=\""position: fixed;left:54%;top:47%\""><img src=\""square.png\"" width=\""100\"" height=\""100\"" style=\""position: fixed;left:46.5%;top:32%\""><img src=\""square.png\"" width=\""100\"" height=\""100\"" style=\""position: fixed;left:46.5%;top:61%\""><div style=\""font-size:60px; text-align: center;margin-top:45.5%\"">+</div><div id=\""first\"" style=\""position: fixed;visibility: hidden;left:48%;top:34%\""><img src=\""same_diff_imgs/D09.gif\""></div><div id=\""delayed\"" style=\""position: fixed;visibility: hidden;left:40%;top:48%\""><img src=\""same_diff_imgs/D09.gif\""></div>""]","arrowup","identical_image","same_diff_imgs/D09.gif","same_diff_imgs/D09.gif","no","same","1","true","","","","","","","","","","","","","","","","","","","","","","","","","","","",""
"","","","","","html-keyboard-response","131","150834","0.0-5.0-2.31","A2WDF40FA670T9","2022-05-19T10:43:03.943Z","same_different-task_switching-rhyme-phon_sim","","null",""," ","null","","","","","","","","","","","","","","","","","","","","","","","","","","","","","","","","","","",""
"","","","","","html-keyboard-response","132","151136","0.0-5.0-3.31","A2WDF40FA670T9","2022-05-19T10:43:03.943Z","same_different-task_switching-rhyme-phon_sim","","null","same_different"," ","null","","","","","","","","","","","","","","","","","","","","","","","","","","","","","","","","","","",""
"","","","","","html-keyboard-response","133","151887","0.0-5.0-0.32","A2WDF40FA670T9","2022-05-19T10:43:03.943Z","same_different-task_switching-rhyme-phon_sim","","null","same_different","<div style=""font-size:60px"">+</div>","null","","","","","","","","","","","","","","","","","","","","","","","","","","","","","","","","","","",""
"","","","","","html-keyboard-response","134","153562","0.0-5.0-1.32","A2WDF40FA670T9","2022-05-19T10:43:03.943Z","same_different-task_switching-rhyme-phon_sim","","1670.6000000014901","same_different","[""<img src=\""square.png\"" width=\""100\"" height=\""100\"" style=\""position: fixed;left:39%;top:47%\""><img src=\""square.png\"" width=\""100\"" height=\""100\"" style=\""position: fixed;left:54%;top:47%\""><img src=\""square.png\"" width=\""100\"" height=\""100\"" style=\""position: fixed;left:46.5%;top:32%\""><img src=\""square.png\"" width=\""100\"" height=\""100\"" style=\""position: fixed;left:46.5%;top:61%\""><div style=\""font-size:60px; text-align: center;margin-top:45.5%\"">+</div><div id=\""first\"" style=\""position: fixed;visibility: hidden;left:48%;top:62%\""><img src=\""same_diff_imgs/C04.gif\""></div><div id=\""delayed\"" style=\""position: fixed;visibility: hidden;left:55%;top:49%\""><img src=\""same_diff_imgs/D11.gif\""></div>""]","arrowdown","identical_image","same_diff_imgs/C04.gif","same_diff_imgs/D11.gif","no","different","","true","1","","","","","","","","","","","","","","","","","","","","","","","","","","",""
"","","","","","html-keyboard-response","135","153566","0.0-5.0-2.32","A2WDF40FA670T9","2022-05-19T10:43:03.943Z","same_different-task_switching-rhyme-phon_sim","","null",""," ","null","","","","","","","","","","","","","","","","","","","","","","","","","","","","","","","","","","",""
"","","","","","html-keyboard-response","136","153867","0.0-5.0-3.32","A2WDF40FA670T9","2022-05-19T10:43:03.943Z","same_different-task_switching-rhyme-phon_sim","","null","same_different"," ","null","","","","","","","","","","","","","","","","","","","","","","","","","","","","","","","","","","",""
"","","","","","html-keyboard-response","137","154619","0.0-5.0-0.33","A2WDF40FA670T9","2022-05-19T10:43:03.943Z","same_different-task_switching-rhyme-phon_sim","","null","same_different","<div style=""font-size:60px"">+</div>","null","","","","","","","","","","","","","","","","","","","","","","","","","","","","","","","","","","",""
"","","","","","html-keyboard-response","138","156173","0.0-5.0-1.33","A2WDF40FA670T9","2022-05-19T10:43:03.943Z","same_different-task_switching-rhyme-phon_sim","","1549.3999999985099","same_different","[""<img src=\""square.png\"" width=\""100\"" height=\""100\"" style=\""position: fixed;left:39%;top:47%\""><img src=\""square.png\"" width=\""100\"" height=\""100\"" style=\""position: fixed;left:54%;top:47%\""><img src=\""square.png\"" width=\""100\"" height=\""100\"" style=\""position: fixed;left:46.5%;top:32%\""><img src=\""square.png\"" width=\""100\"" height=\""100\"" style=\""position: fixed;left:46.5%;top:61%\""><div style=\""font-size:60px;text-align: center;margin-top:45.5%\"">+</div><div id=\""first\"" style=\""position: fixed;visibility: hidden;left:48%;top:34%\""><img src=\""same_diff_imgs/C09.gif\"" style=\""-webkit-transform: scaleX(-1);transform: scaleX(-1);\""></div><div id=\""delayed\"" style=\""position: fixed;visibility: hidden;left:55%;top:49%\""><img src=\""same_diff_imgs/D07.gif\"" style=\""-webkit-transform: scaleX(-1);transform: scaleX(-1);\""></div>""]","arrowdown","identical_image","same_diff_imgs/C09.gif","same_diff_imgs/D07.gif","yes","different","","true","1","","","","","","","","","","","","","","","","","","","","","","","","","","",""
"","","","","","html-keyboard-response","139","156174","0.0-5.0-2.33","A2WDF40FA670T9","2022-05-19T10:43:03.943Z","same_different-task_switching-rhyme-phon_sim","","null",""," ","null","","","","","","","","","","","","","","","","","","","","","","","","","","","","","","","","","","",""
"","","","","","html-keyboard-response","140","156475","0.0-5.0-3.33","A2WDF40FA670T9","2022-05-19T10:43:03.943Z","same_different-task_switching-rhyme-phon_sim","","null","same_different"," ","null","","","","","","","","","","","","","","","","","","","","","","","","","","","","","","","","","","",""
"","","","","","html-keyboard-response","141","157227","0.0-5.0-0.34","A2WDF40FA670T9","2022-05-19T10:43:03.943Z","same_different-task_switching-rhyme-phon_sim","","null","same_different","<div style=""font-size:60px"">+</div>","null","","","","","","","","","","","","","","","","","","","","","","","","","","","","","","","","","","",""
"","","","","","html-keyboard-response","142","158840","0.0-5.0-1.34","A2WDF40FA670T9","2022-05-19T10:43:03.943Z","same_different-task_switching-rhyme-phon_sim","","1611.199999999255","same_different","[""<img src=\""square.png\"" width=\""100\"" height=\""100\"" style=\""position: fixed;left:39%;top:47%\""><img src=\""square.png\"" width=\""100\"" height=\""100\"" style=\""position: fixed;left:54%;top:47%\""><img src=\""square.png\"" width=\""100\"" height=\""100\"" style=\""position: fixed;left:46.5%;top:32%\""><img src=\""square.png\"" width=\""100\"" height=\""100\"" style=\""position: fixed;left:46.5%;top:61%\""><div style=\""font-size:60px; text-align: center;margin-top:45.5%\"">+</div><div id=\""first\"" style=\""position: fixed;visibility: hidden;left:40%;top:48%\""><img src=\""same_diff_imgs/D07.gif\""></div><div id=\""delayed\"" style=\""position: fixed;visibility: hidden;left:55%;top:49%\""><img src=\""same_diff_imgs/D11.gif\""></div>""]","arrowdown","identical_image","same_diff_imgs/D07.gif","same_diff_imgs/D11.gif","no","different","","true","1","","","","","","","","","","","","","","","","","","","","","","","","","","",""
"","","","","","html-keyboard-response","143","158846","0.0-5.0-2.34","A2WDF40FA670T9","2022-05-19T10:43:03.943Z","same_different-task_switching-rhyme-phon_sim","","null",""," ","null","","","","","","","","","","","","","","","","","","","","","","","","","","","","","","","","","","",""
"","","","","","html-keyboard-response","144","159148","0.0-5.0-3.34","A2WDF40FA670T9","2022-05-19T10:43:03.943Z","same_different-task_switching-rhyme-phon_sim","","null","same_different"," ","null","","","","","","","","","","","","","","","","","","","","","","","","","","","","","","","","","","",""
"","","","","","html-keyboard-response","145","159899","0.0-5.0-0.35","A2WDF40FA670T9","2022-05-19T10:43:03.943Z","same_different-task_switching-rhyme-phon_sim","","null","same_different","<div style=""font-size:60px"">+</div>","null","","","","","","","","","","","","","","","","","","","","","","","","","","","","","","","","","","",""
"","","","","","html-keyboard-response","146","161596","0.0-5.0-1.35","A2WDF40FA670T9","2022-05-19T10:43:03.943Z","same_different-task_switching-rhyme-phon_sim","","1692.9000000022352","same_different","[""<img src=\""square.png\"" width=\""100\"" height=\""100\"" style=\""position: fixed;left:39%;top:47%\""><img src=\""square.png\"" width=\""100\"" height=\""100\"" style=\""position: fixed;left:54%;top:47%\""><img src=\""square.png\"" width=\""100\"" height=\""100\"" style=\""position: fixed;left:46.5%;top:32%\""><img src=\""square.png\"" width=\""100\"" height=\""100\"" style=\""position: fixed;left:46.5%;top:61%\""><div style=\""font-size:60px; text-align: center;margin-top:45.5%\"">+</div><div id=\""first\"" style=\""position: fixed;visibility: hidden;left:48%;top:62%\""><img src=\""same_diff_imgs/C09.gif\""></div><div id=\""delayed\"" style=\""position: fixed;visibility: hidden;left:55%;top:49%\""><img src=\""same_diff_imgs/C09.gif\""></div>""]","arrowup","identical_image","same_diff_imgs/C09.gif","same_diff_imgs/C09.gif","no","same","1","true","","","","","","","","","","","","","","","","","","","","","","","","","","","",""
"","","","","","html-keyboard-response","147","161599","0.0-5.0-2.35","A2WDF40FA670T9","2022-05-19T10:43:03.943Z","same_different-task_switching-rhyme-phon_sim","","null",""," ","null","","","","","","","","","","","","","","","","","","","","","","","","","","","","","","","","","","",""
"","","","","","html-keyboard-response","148","161900","0.0-5.0-3.35","A2WDF40FA670T9","2022-05-19T10:43:03.943Z","same_different-task_switching-rhyme-phon_sim","","null","same_different"," ","null","","","","","","","","","","","","","","","","","","","","","","","","","","","","","","","","","","",""
"","","","","","html-keyboard-response","149","162652","0.0-5.0-0.36","A2WDF40FA670T9","2022-05-19T10:43:03.943Z","same_different-task_switching-rhyme-phon_sim","","null","same_different","<div style=""font-size:60px"">+</div>","null","","","","","","","","","","","","","","","","","","","","","","","","","","","","","","","","","","",""
"","","","","","html-keyboard-response","150","164243","0.0-5.0-1.36","A2WDF40FA670T9","2022-05-19T10:43:03.943Z","same_different-task_switching-rhyme-phon_sim","","1587.1000000014901","same_different","[""<img src=\""square.png\"" width=\""100\"" height=\""100\"" style=\""position: fixed;left:39%;top:47%\""><img src=\""square.png\"" width=\""100\"" height=\""100\"" style=\""position: fixed;left:54%;top:47%\""><img src=\""square.png\"" width=\""100\"" height=\""100\"" style=\""position: fixed;left:46.5%;top:32%\""><img src=\""square.png\"" width=\""100\"" height=\""100\"" style=\""position: fixed;left:46.5%;top:61%\""><div style=\""font-size:60px;text-align: center;margin-top:45.5%\"">+</div><div id=\""first\"" style=\""position: fixed;visibility: hidden;left:48%;top:62%\""><img src=\""same_diff_imgs/D09.gif\"" style=\""-webkit-transform: scaleX(-1);transform: scaleX(-1);\""></div><div id=\""delayed\"" style=\""position: fixed;visibility: hidden;left:48%;top:34%\""><img src=\""same_diff_imgs/C14.gif\"" style=\""-webkit-transform: scaleX(-1);transform: scaleX(-1);\""></div>""]","arrowdown","identical_image","same_diff_imgs/D09.gif","same_diff_imgs/C14.gif","yes","different","","true","1","","","","","","","","","","","","","","","","","","","","","","","","","","",""
"","","","","","html-keyboard-response","151","164246","0.0-5.0-2.36","A2WDF40FA670T9","2022-05-19T10:43:03.943Z","same_different-task_switching-rhyme-phon_sim","","null",""," ","null","","","","","","","","","","","","","","","","","","","","","","","","","","","","","","","","","","",""
"","","","","","html-keyboard-response","152","164548","0.0-5.0-3.36","A2WDF40FA670T9","2022-05-19T10:43:03.943Z","same_different-task_switching-rhyme-phon_sim","","null","same_different"," ","null","","","","","","","","","","","","","","","","","","","","","","","","","","","","","","","","","","",""
"","","","","","html-keyboard-response","153","165299","0.0-5.0-0.37","A2WDF40FA670T9","2022-05-19T10:43:03.943Z","same_different-task_switching-rhyme-phon_sim","","null","same_different","<div style=""font-size:60px"">+</div>","null","","","","","","","","","","","","","","","","","","","","","","","","","","","","","","","","","","",""
"","","","","","html-keyboard-response","154","167017","0.0-5.0-1.37","A2WDF40FA670T9","2022-05-19T10:43:03.943Z","same_different-task_switching-rhyme-phon_sim","","1714.5","same_different","[""<img src=\""square.png\"" width=\""100\"" height=\""100\"" style=\""position: fixed;left:39%;top:47%\""><img src=\""square.png\"" width=\""100\"" height=\""100\"" style=\""position: fixed;left:54%;top:47%\""><img src=\""square.png\"" width=\""100\"" height=\""100\"" style=\""position: fixed;left:46.5%;top:32%\""><img src=\""square.png\"" width=\""100\"" height=\""100\"" style=\""position: fixed;left:46.5%;top:61%\""><div style=\""font-size:60px; text-align: center;margin-top:45.5%\"">+</div><div id=\""first\"" style=\""position: fixed;visibility: hidden;left:48%;top:62%\""><img src=\""same_diff_imgs/D09.gif\""></div><div id=\""delayed\"" style=\""position: fixed;visibility: hidden;left:48%;top:34%\""><img src=\""same_diff_imgs/D11.gif\""></div>""]","arrowdown","identical_image","same_diff_imgs/D09.gif","same_diff_imgs/D11.gif","no","different","","true","1","","","","","","","","","","","","","","","","","","","","","","","","","","",""
"","","","","","html-keyboard-response","155","167019","0.0-5.0-2.37","A2WDF40FA670T9","2022-05-19T10:43:03.943Z","same_different-task_switching-rhyme-phon_sim","","null",""," ","null","","","","","","","","","","","","","","","","","","","","","","","","","","","","","","","","","","",""
"","","","","","html-keyboard-response","156","167320","0.0-5.0-3.37","A2WDF40FA670T9","2022-05-19T10:43:03.943Z","same_different-task_switching-rhyme-phon_sim","","null","same_different"," ","null","","","","","","","","","","","","","","","","","","","","","","","","","","","","","","","","","","",""
"","","","","","html-keyboard-response","157","168072","0.0-5.0-0.38","A2WDF40FA670T9","2022-05-19T10:43:03.943Z","same_different-task_switching-rhyme-phon_sim","","null","same_different","<div style=""font-size:60px"">+</div>","null","","","","","","","","","","","","","","","","","","","","","","","","","","","","","","","","","","",""
"","","","","","html-keyboard-response","158","169769","0.0-5.0-1.38","A2WDF40FA670T9","2022-05-19T10:43:03.943Z","same_different-task_switching-rhyme-phon_sim","","1693.1000000014901","same_different","[""<img src=\""square.png\"" width=\""100\"" height=\""100\"" style=\""position: fixed;left:39%;top:47%\""><img src=\""square.png\"" width=\""100\"" height=\""100\"" style=\""position: fixed;left:54%;top:47%\""><img src=\""square.png\"" width=\""100\"" height=\""100\"" style=\""position: fixed;left:46.5%;top:32%\""><img src=\""square.png\"" width=\""100\"" height=\""100\"" style=\""position: fixed;left:46.5%;top:61%\""><div style=\""font-size:60px; text-align: center;margin-top:45.5%\"">+</div><div id=\""first\"" style=\""position: fixed;visibility: hidden;left:55%;top:49%\""><img src=\""same_diff_imgs/D09.gif\""></div><div id=\""delayed\"" style=\""position: fixed;visibility: hidden;left:40%;top:48%\""><img src=\""same_diff_imgs/C04.gif\""></div>""]","arrowdown","identical_image","same_diff_imgs/D09.gif","same_diff_imgs/C04.gif","no","different","","true","1","","","","","","","","","","","","","","","","","","","","","","","","","","",""
"","","","","","html-keyboard-response","159","169772","0.0-5.0-2.38","A2WDF40FA670T9","2022-05-19T10:43:03.943Z","same_different-task_switching-rhyme-phon_sim","","null",""," ","null","","","","","","","","","","","","","","","","","","","","","","","","","","","","","","","","","","",""
"","","","","","html-keyboard-response","160","170074","0.0-5.0-3.38","A2WDF40FA670T9","2022-05-19T10:43:03.943Z","same_different-task_switching-rhyme-phon_sim","","null","same_different"," ","null","","","","","","","","","","","","","","","","","","","","","","","","","","","","","","","","","","",""
"","","","","","html-keyboard-response","161","170825","0.0-5.0-0.39","A2WDF40FA670T9","2022-05-19T10:43:03.943Z","same_different-task_switching-rhyme-phon_sim","","null","same_different","<div style=""font-size:60px"">+</div>","null","","","","","","","","","","","","","","","","","","","","","","","","","","","","","","","","","","",""
"","","","","","html-keyboard-response","162","172423","0.0-5.0-1.39","A2WDF40FA670T9","2022-05-19T10:43:03.943Z","same_different-task_switching-rhyme-phon_sim","","1593.5","same_different","[""<img src=\""square.png\"" width=\""100\"" height=\""100\"" style=\""position: fixed;left:39%;top:47%\""><img src=\""square.png\"" width=\""100\"" height=\""100\"" style=\""position: fixed;left:54%;top:47%\""><img src=\""square.png\"" width=\""100\"" height=\""100\"" style=\""position: fixed;left:46.5%;top:32%\""><img src=\""square.png\"" width=\""100\"" height=\""100\"" style=\""position: fixed;left:46.5%;top:61%\""><div style=\""font-size:60px; text-align: center;margin-top:45.5%\"">+</div><div id=\""first\"" style=\""position: fixed;visibility: hidden;left:55%;top:49%\""><img src=\""same_diff_imgs/C14.gif\""></div><div id=\""delayed\"" style=\""position: fixed;visibility: hidden;left:48%;top:62%\""><img src=\""same_diff_imgs/C14.gif\""></div>""]","arrowup","identical_image","same_diff_imgs/C14.gif","same_diff_imgs/C14.gif","no","same","1","true","","","","","","","","","","","","","","","","","","","","","","","","","","","",""
"","","","","","html-keyboard-response","163","172426","0.0-5.0-2.39","A2WDF40FA670T9","2022-05-19T10:43:03.943Z","same_different-task_switching-rhyme-phon_sim","","null",""," ","null","","","","","","","","","","","","","","","","","","","","","","","","","","","","","","","","","","",""
"","","","","","html-keyboard-response","164","172727","0.0-5.0-3.39","A2WDF40FA670T9","2022-05-19T10:43:03.943Z","same_different-task_switching-rhyme-phon_sim","","null","same_different"," ","null","","","","","","","","","","","","","","","","","","","","","","","","","","","","","","","","","","",""
"","","","","","html-keyboard-response","165","173478","0.0-5.0-0.40","A2WDF40FA670T9","2022-05-19T10:43:03.943Z","same_different-task_switching-rhyme-phon_sim","","null","same_different","<div style=""font-size:60px"">+</div>","null","","","","","","","","","","","","","","","","","","","","","","","","","","","","","","","","","","",""
"","","","","","html-keyboard-response","166","175201","0.0-5.0-1.40","A2WDF40FA670T9","2022-05-19T10:43:03.943Z","same_different-task_switching-rhyme-phon_sim","","1718.800000000745","same_different","[""<img src=\""square.png\"" width=\""100\"" height=\""100\"" style=\""position: fixed;left:39%;top:47%\""><img src=\""square.png\"" width=\""100\"" height=\""100\"" style=\""position: fixed;left:54%;top:47%\""><img src=\""square.png\"" width=\""100\"" height=\""100\"" style=\""position: fixed;left:46.5%;top:32%\""><img src=\""square.png\"" width=\""100\"" height=\""100\"" style=\""position: fixed;left:46.5%;top:61%\""><div style=\""font-size:60px; text-align: center;margin-top:45.5%\"">+</div><div id=\""first\"" style=\""position: fixed;visibility: hidden;left:48%;top:62%\""><img src=\""same_diff_imgs/D07.gif\""></div><div id=\""delayed\"" style=\""position: fixed;visibility: hidden;left:48%;top:34%\""><img src=\""same_diff_imgs/D07.gif\""></div>""]","arrowup","identical_image","same_diff_imgs/D07.gif","same_diff_imgs/D07.gif","no","same","1","true","","","","","","","","","","","","","","","","","","","","","","","","","","","",""
"","","","","","html-keyboard-response","167","175204","0.0-5.0-2.40","A2WDF40FA670T9","2022-05-19T10:43:03.943Z","same_different-task_switching-rhyme-phon_sim","","null",""," ","null","","","","","","","","","","","","","","","","","","","","","","","","","","","","","","","","","","",""
"","","","","","html-keyboard-response","168","175505","0.0-5.0-3.40","A2WDF40FA670T9","2022-05-19T10:43:03.943Z","same_different-task_switching-rhyme-phon_sim","","null","same_different"," ","null","","","","","","","","","","","","","","","","","","","","","","","","","","","","","","","","","","",""
"","","","","","html-keyboard-response","169","176257","0.0-5.0-0.41","A2WDF40FA670T9","2022-05-19T10:43:03.943Z","same_different-task_switching-rhyme-phon_sim","","null","same_different","<div style=""font-size:60px"">+</div>","null","","","","","","","","","","","","","","","","","","","","","","","","","","","","","","","","","","",""
"","","","","","html-keyboard-response","170","178098","0.0-5.0-1.41","A2WDF40FA670T9","2022-05-19T10:43:03.943Z","same_different-task_switching-rhyme-phon_sim","","1837.1000000014901","same_different","[""<img src=\""square.png\"" width=\""100\"" height=\""100\"" style=\""position: fixed;left:39%;top:47%\""><img src=\""square.png\"" width=\""100\"" height=\""100\"" style=\""position: fixed;left:54%;top:47%\""><img src=\""square.png\"" width=\""100\"" height=\""100\"" style=\""position: fixed;left:46.5%;top:32%\""><img src=\""square.png\"" width=\""100\"" height=\""100\"" style=\""position: fixed;left:46.5%;top:61%\""><div style=\""font-size:60px; text-align: center;margin-top:45.5%\"">+</div><div id=\""first\"" style=\""position: fixed;visibility: hidden;left:48%;top:34%\""><img src=\""same_diff_imgs/C14.gif\""></div><div id=\""delayed\"" style=\""position: fixed;visibility: hidden;left:48%;top:62%\""><img src=\""same_diff_imgs/D09.gif\""></div>""]","arrowdown","identical_image","same_diff_imgs/C14.gif","same_diff_imgs/D09.gif","no","different","","true","1","","","","","","","","","","","","","","","","","","","","","","","","","","",""
"","","","","","html-keyboard-response","171","178101","0.0-5.0-2.41","A2WDF40FA670T9","2022-05-19T10:43:03.943Z","same_different-task_switching-rhyme-phon_sim","","null",""," ","null","","","","","","","","","","","","","","","","","","","","","","","","","","","","","","","","","","",""
"","","","","","html-keyboard-response","172","178402","0.0-5.0-3.41","A2WDF40FA670T9","2022-05-19T10:43:03.943Z","same_different-task_switching-rhyme-phon_sim","","null","same_different"," ","null","","","","","","","","","","","","","","","","","","","","","","","","","","","","","","","","","","",""
"","","","","","html-keyboard-response","173","179154","0.0-5.0-0.42","A2WDF40FA670T9","2022-05-19T10:43:03.943Z","same_different-task_switching-rhyme-phon_sim","","null","same_different","<div style=""font-size:60px"">+</div>","null","","","","","","","","","","","","","","","","","","","","","","","","","","","","","","","","","","",""
"","","","","","html-keyboard-response","174","181376","0.0-5.0-1.42","A2WDF40FA670T9","2022-05-19T10:43:03.943Z","same_different-task_switching-rhyme-phon_sim","","2218.60000000149","same_different","[""<img src=\""square.png\"" width=\""100\"" height=\""100\"" style=\""position: fixed;left:39%;top:47%\""><img src=\""square.png\"" width=\""100\"" height=\""100\"" style=\""position: fixed;left:54%;top:47%\""><img src=\""square.png\"" width=\""100\"" height=\""100\"" style=\""position: fixed;left:46.5%;top:32%\""><img src=\""square.png\"" width=\""100\"" height=\""100\"" style=\""position: fixed;left:46.5%;top:61%\""><div style=\""font-size:60px; text-align: center;margin-top:45.5%\"">+</div><div id=\""first\"" style=\""position: fixed;visibility: hidden;left:48%;top:62%\""><img src=\""same_diff_imgs/C04.gif\""></div><div id=\""delayed\"" style=\""position: fixed;visibility: hidden;left:40%;top:48%\""><img src=\""same_diff_imgs/C04.gif\""></div>""]","arrowup","identical_image","same_diff_imgs/C04.gif","same_diff_imgs/C04.gif","no","same","1","true","","","","","","","","","","","","","","","","","","","","","","","","","","","",""
"","","","","","html-keyboard-response","175","181379","0.0-5.0-2.42","A2WDF40FA670T9","2022-05-19T10:43:03.943Z","same_different-task_switching-rhyme-phon_sim","","null",""," ","null","","","","","","","","","","","","","","","","","","","","","","","","","","","","","","","","","","",""
"","","","","","html-keyboard-response","176","181681","0.0-5.0-3.42","A2WDF40FA670T9","2022-05-19T10:43:03.943Z","same_different-task_switching-rhyme-phon_sim","","null","same_different"," ","null","","","","","","","","","","","","","","","","","","","","","","","","","","","","","","","","","","",""
"","","","","","html-keyboard-response","177","182432","0.0-5.0-0.43","A2WDF40FA670T9","2022-05-19T10:43:03.943Z","same_different-task_switching-rhyme-phon_sim","","null","same_different","<div style=""font-size:60px"">+</div>","null","","","","","","","","","","","","","","","","","","","","","","","","","","","","","","","","","","",""
"","","","","","html-keyboard-response","178","184092","0.0-5.0-1.43","A2WDF40FA670T9","2022-05-19T10:43:03.943Z","same_different-task_switching-rhyme-phon_sim","","1655.199999999255","same_different","[""<img src=\""square.png\"" width=\""100\"" height=\""100\"" style=\""position: fixed;left:39%;top:47%\""><img src=\""square.png\"" width=\""100\"" height=\""100\"" style=\""position: fixed;left:54%;top:47%\""><img src=\""square.png\"" width=\""100\"" height=\""100\"" style=\""position: fixed;left:46.5%;top:32%\""><img src=\""square.png\"" width=\""100\"" height=\""100\"" style=\""position: fixed;left:46.5%;top:61%\""><div style=\""font-size:60px;text-align: center;margin-top:45.5%\"">+</div><div id=\""first\"" style=\""position: fixed;visibility: hidden;left:55%;top:49%\""><img src=\""same_diff_imgs/D07.gif\"" style=\""-webkit-transform: scaleX(-1);transform: scaleX(-1);\""></div><div id=\""delayed\"" style=\""position: fixed;visibility: hidden;left:48%;top:62%\""><img src=\""same_diff_imgs/C09.gif\"" style=\""-webkit-transform: scaleX(-1);transform: scaleX(-1);\""></div>""]","arrowdown","identical_image","same_diff_imgs/D07.gif","same_diff_imgs/C09.gif","yes","different","","true","1","","","","","","","","","","","","","","","","","","","","","","","","","","",""
"","","","","","html-keyboard-response","179","184094","0.0-5.0-2.43","A2WDF40FA670T9","2022-05-19T10:43:03.943Z","same_different-task_switching-rhyme-phon_sim","","null",""," ","null","","","","","","","","","","","","","","","","","","","","","","","","","","","","","","","","","","",""
"","","","","","html-keyboard-response","180","184395","0.0-5.0-3.43","A2WDF40FA670T9","2022-05-19T10:43:03.943Z","same_different-task_switching-rhyme-phon_sim","","null","same_different"," ","null","","","","","","","","","","","","","","","","","","","","","","","","","","","","","","","","","","",""
"","","","","","html-keyboard-response","181","185147","0.0-5.0-0.44","A2WDF40FA670T9","2022-05-19T10:43:03.943Z","same_different-task_switching-rhyme-phon_sim","","null","same_different","<div style=""font-size:60px"">+</div>","null","","","","","","","","","","","","","","","","","","","","","","","","","","","","","","","","","","",""
"","","","","","html-keyboard-response","182","186599","0.0-5.0-1.44","A2WDF40FA670T9","2022-05-19T10:43:03.943Z","same_different-task_switching-rhyme-phon_sim","","1448.9000000022352","same_different","[""<img src=\""square.png\"" width=\""100\"" height=\""100\"" style=\""position: fixed;left:39%;top:47%\""><img src=\""square.png\"" width=\""100\"" height=\""100\"" style=\""position: fixed;left:54%;top:47%\""><img src=\""square.png\"" width=\""100\"" height=\""100\"" style=\""position: fixed;left:46.5%;top:32%\""><img src=\""square.png\"" width=\""100\"" height=\""100\"" style=\""position: fixed;left:46.5%;top:61%\""><div style=\""font-size:60px; text-align: center;margin-top:45.5%\"">+</div><div id=\""first\"" style=\""position: fixed;visibility: hidden;left:48%;top:34%\""><img src=\""same_diff_imgs/D11.gif\""></div><div id=\""delayed\"" style=\""position: fixed;visibility: hidden;left:40%;top:48%\""><img src=\""same_diff_imgs/D11.gif\""></div>""]","arrowup","identical_image","same_diff_imgs/D11.gif","same_diff_imgs/D11.gif","no","same","1","true","","","","","","","","","","","","","","","","","","","","","","","","","","","",""
"","","","","","html-keyboard-response","183","186602","0.0-5.0-2.44","A2WDF40FA670T9","2022-05-19T10:43:03.943Z","same_different-task_switching-rhyme-phon_sim","","null",""," ","null","","","","","","","","","","","","","","","","","","","","","","","","","","","","","","","","","","",""
"","","","","","html-keyboard-response","184","186903","0.0-5.0-3.44","A2WDF40FA670T9","2022-05-19T10:43:03.943Z","same_different-task_switching-rhyme-phon_sim","","null","same_different"," ","null","","","","","","","","","","","","","","","","","","","","","","","","","","","","","","","","","","",""
"","","","","","html-keyboard-response","185","187655","0.0-5.0-0.45","A2WDF40FA670T9","2022-05-19T10:43:03.943Z","same_different-task_switching-rhyme-phon_sim","","null","same_different","<div style=""font-size:60px"">+</div>","null","","","","","","","","","","","","","","","","","","","","","","","","","","","","","","","","","","",""
"","","","","","html-keyboard-response","186","189227","0.0-5.0-1.45","A2WDF40FA670T9","2022-05-19T10:43:03.943Z","same_different-task_switching-rhyme-phon_sim","","1569","same_different","[""<img src=\""square.png\"" width=\""100\"" height=\""100\"" style=\""position: fixed;left:39%;top:47%\""><img src=\""square.png\"" width=\""100\"" height=\""100\"" style=\""position: fixed;left:54%;top:47%\""><img src=\""square.png\"" width=\""100\"" height=\""100\"" style=\""position: fixed;left:46.5%;top:32%\""><img src=\""square.png\"" width=\""100\"" height=\""100\"" style=\""position: fixed;left:46.5%;top:61%\""><div style=\""font-size:60px;text-align: center;margin-top:45.5%\"">+</div><div id=\""first\"" style=\""position: fixed;visibility: hidden;left:40%;top:48%\""><img src=\""same_diff_imgs/D09.gif\"" style=\""-webkit-transform: scaleX(-1);transform: scaleX(-1);\""></div><div id=\""delayed\"" style=\""position: fixed;visibility: hidden;left:48%;top:62%\""><img src=\""same_diff_imgs/C04.gif\"" style=\""-webkit-transform: scaleX(-1);transform: scaleX(-1);\""></div>""]","arrowdown","identical_image","same_diff_imgs/D09.gif","same_diff_imgs/C04.gif","yes","different","","true","1","","","","","","","","","","","","","","","","","","","","","","","","","","",""
"","","","","","html-keyboard-response","187","189230","0.0-5.0-2.45","A2WDF40FA670T9","2022-05-19T10:43:03.943Z","same_different-task_switching-rhyme-phon_sim","","null",""," ","null","","","","","","","","","","","","","","","","","","","","","","","","","","","","","","","","","","",""
"","","","","","html-keyboard-response","188","189531","0.0-5.0-3.45","A2WDF40FA670T9","2022-05-19T10:43:03.943Z","same_different-task_switching-rhyme-phon_sim","","null","same_different"," ","null","","","","","","","","","","","","","","","","","","","","","","","","","","","","","","","","","","",""
"","","","","","html-keyboard-response","189","190283","0.0-5.0-0.46","A2WDF40FA670T9","2022-05-19T10:43:03.943Z","same_different-task_switching-rhyme-phon_sim","","null","same_different","<div style=""font-size:60px"">+</div>","null","","","","","","","","","","","","","","","","","","","","","","","","","","","","","","","","","","",""
