"success","timeout","failed_images","failed_audio","failed_video","trial_type","trial_index","time_elapsed","internal_node_id","worker_id","start_time","experiment_order","view_history","rt","experiment","stimulus","response","wait_time","correct","phase","image_1","image_2","cor_key","type","question_order","talk_out_loud","strategy_free_ans","word_1","word_2","word_3","word_4","word_5","original_word_set","response_1","response_2","response_3","response_4","response_5","judgment_type","stim_1","stim_2","inverted","answer","true_neg","true_pos","false_pos","false_neg","condition","operation","symbol_cue","trial_no","color_cue"
"true","false","[]","[]","[]","preload","0","3609","0.0-0.0","A2OVWCQ4B9AHFY","2022-05-27T01:29:15.737Z","rhyme-phon_sim-same_different-task_switching","","","","","","","","","","","","","","","","","","","","","","","","","","","","","","","","","","","","","","","",""
"","","","","","instructions","1","5862","0.0-1.0","A2OVWCQ4B9AHFY","2022-05-27T01:29:15.737Z","rhyme-phon_sim-same_different-task_switching","[{""page_index"":0,""viewing_time"":2250.699999999255}]","2252","","","","","","","","","","","","","","","","","","","","","","","","","","","","","","","","","","","","","",""
"true","","","","","fullscreen","2","8425","0.0-2.0","A2OVWCQ4B9AHFY","2022-05-27T01:29:15.737Z","rhyme-phon_sim-same_different-task_switching","","","","","","","","","","","","","","","","","","","","","","","","","","","","","","","","","","","","","","","",""
"","","","","","instructions","3","25200","0.0-3.0","A2OVWCQ4B9AHFY","2022-05-27T01:29:15.737Z","rhyme-phon_sim-same_different-task_switching","[{""page_index"":0,""viewing_time"":16773.39999999851}]","16774.10000000149","rhyme","","","","","","","","","","","","","","","","","","","","","","","","","","","","","","","","","","","","",""
"","","","","","html-keyboard-response","4","25706","0.0-4.0-0.0","A2OVWCQ4B9AHFY","2022-05-27T01:29:15.737Z","rhyme-phon_sim-same_different-task_switching","","null","rhyme","<div style=""font-size:60px;"">+</div>","null","500","","","","","","","","","","","","","","","","","","","","","","","","","","","","","","","","","",""
"","","","","","html-keyboard-response","5","26225","0.0-4.0-1.0","A2OVWCQ4B9AHFY","2022-05-27T01:29:15.737Z","rhyme-phon_sim-same_different-task_switching","","null","rhyme","<img src=""square.png"" width=""306"" height=""306"" style=""position: fixed;left:14%;top:30%""><img src=""square.png"" width=""306"" height=""306"" style=""position: fixed;left:64%;top:30%"">","null","","","","","","","","","","","","","","","","","","","","","","","","","","","","","","","","","","",""
"","","","","","categorize-html","6","29828","0.0-4.0-2.0","A2OVWCQ4B9AHFY","2022-05-27T01:29:15.737Z","rhyme-phon_sim-same_different-task_switching","","2590.39999999851","rhyme","<div style=""border: 3px solid #000000; position: fixed;left:14%;top:30%""><img src=""visual/dress.png"" width=""300""></div><div style=""border: 3px solid #000000; position: fixed;left:64%;top:30%""><img src=""visual/chess.png"" width=""300""></div>","arrowup","","true","training","visual/dress.png","visual/chess.png","ArrowUp","NA","","","","","","","","","","","","","","","","","","","","","","","","","","","",""
"","","","","","html-keyboard-response","7","30091","0.0-4.0-0.1","A2OVWCQ4B9AHFY","2022-05-27T01:29:15.737Z","rhyme-phon_sim-same_different-task_switching","","null","rhyme","<div style=""font-size:60px;"">+</div>","null","250","","","","","","","","","","","","","","","","","","","","","","","","","","","","","","","","","",""
"","","","","","html-keyboard-response","8","30603","0.0-4.0-1.1","A2OVWCQ4B9AHFY","2022-05-27T01:29:15.737Z","rhyme-phon_sim-same_different-task_switching","","null","rhyme","<img src=""square.png"" width=""306"" height=""306"" style=""position: fixed;left:14%;top:30%""><img src=""square.png"" width=""306"" height=""306"" style=""position: fixed;left:64%;top:30%"">","null","","","","","","","","","","","","","","","","","","","","","","","","","","","","","","","","","","",""
"","","","","","categorize-html","9","32990","0.0-4.0-2.1","A2OVWCQ4B9AHFY","2022-05-27T01:29:15.737Z","rhyme-phon_sim-same_different-task_switching","","1373.1000000014901","rhyme","<div style=""border: 3px solid #000000; position: fixed;left:14%;top:30%""><img src=""visual/house.png"" width=""300""></div><div style=""border: 3px solid #000000; position: fixed;left:64%;top:30%""><img src=""visual/mouse.png"" width=""300""></div>","arrowup","","true","training","visual/house.png","visual/mouse.png","ArrowUp","NA","","","","","","","","","","","","","","","","","","","","","","","","","","","",""
"","","","","","html-keyboard-response","10","34002","0.0-4.0-0.2","A2OVWCQ4B9AHFY","2022-05-27T01:29:15.737Z","rhyme-phon_sim-same_different-task_switching","","null","rhyme","<div style=""font-size:60px;"">+</div>","null","1000","","","","","","","","","","","","","","","","","","","","","","","","","","","","","","","","","",""
"","","","","","html-keyboard-response","11","34518","0.0-4.0-1.2","A2OVWCQ4B9AHFY","2022-05-27T01:29:15.737Z","rhyme-phon_sim-same_different-task_switching","","null","rhyme","<img src=""square.png"" width=""306"" height=""306"" style=""position: fixed;left:14%;top:30%""><img src=""square.png"" width=""306"" height=""306"" style=""position: fixed;left:64%;top:30%"">","null","","","","","","","","","","","","","","","","","","","","","","","","","","","","","","","","","","",""
"","","","","","categorize-html","12","37489","0.0-4.0-2.2","A2OVWCQ4B9AHFY","2022-05-27T01:29:15.737Z","rhyme-phon_sim-same_different-task_switching","","1965.199999999255","rhyme","<div style=""border: 3px solid #000000; position: fixed;left:14%;top:30%""><img src=""visual/chess.png"" width=""300""></div><div style=""border: 3px solid #000000; position: fixed;left:64%;top:30%""><img src=""visual/suit.png"" width=""300""></div>","arrowdown","","true","training","visual/chess.png","visual/suit.png","ArrowDown","NA","","","","","","","","","","","","","","","","","","","","","","","","","","","",""
"","","","","","html-keyboard-response","13","38001","0.0-4.0-0.3","A2OVWCQ4B9AHFY","2022-05-27T01:29:15.737Z","rhyme-phon_sim-same_different-task_switching","","null","rhyme","<div style=""font-size:60px;"">+</div>","null","500","","","","","","","","","","","","","","","","","","","","","","","","","","","","","","","","","",""
"","","","","","html-keyboard-response","14","38512","0.0-4.0-1.3","A2OVWCQ4B9AHFY","2022-05-27T01:29:15.737Z","rhyme-phon_sim-same_different-task_switching","","null","rhyme","<img src=""square.png"" width=""306"" height=""306"" style=""position: fixed;left:14%;top:30%""><img src=""square.png"" width=""306"" height=""306"" style=""position: fixed;left:64%;top:30%"">","null","","","","","","","","","","","","","","","","","","","","","","","","","","","","","","","","","","",""
"","","","","","categorize-html","15","41376","0.0-4.0-2.3","A2OVWCQ4B9AHFY","2022-05-27T01:29:15.737Z","rhyme-phon_sim-same_different-task_switching","","1846.3999999985099","rhyme","<div style=""border: 3px solid #000000; position: fixed;left:14%;top:30%""><img src=""visual/mouse.png"" width=""300""></div><div style=""border: 3px solid #000000; position: fixed;left:64%;top:30%""><img src=""visual/dress.png"" width=""300""></div>","arrowdown","","true","training","visual/mouse.png","visual/dress.png","ArrowDown","NA","","","","","","","","","","","","","","","","","","","","","","","","","","","",""
"","","","","","instructions","16","276315","0.0-5.0","A2OVWCQ4B9AHFY","2022-05-27T01:29:15.737Z","rhyme-phon_sim-same_different-task_switching","[{""page_index"":0,""viewing_time"":234936.90000000224}]","234937.80000000075","","","","","","","","","","","","","","","","","","","","","","","","","","","","","","","","","","","","","",""
"","","","","","html-keyboard-response","17","276826","0.0-6.0-0.0","A2OVWCQ4B9AHFY","2022-05-27T01:29:15.737Z","rhyme-phon_sim-same_different-task_switching","","null","rhyme","<div style=""font-size:60px;"">+</div>","null","500","","","","","","","","","","","","","","","","","","","","","","","","","","","","","","","","","",""
"","","","","","html-keyboard-response","18","277342","0.0-6.0-1.0","A2OVWCQ4B9AHFY","2022-05-27T01:29:15.737Z","rhyme-phon_sim-same_different-task_switching","","null","rhyme","<img src=""square.png"" width=""306"" height=""306"" style=""position: fixed;left:14%;top:30%""><img src=""square.png"" width=""306"" height=""306"" style=""position: fixed;left:64%;top:30%"">","null","","","","","","","","","","","","","","","","","","","","","","","","","","","","","","","","","","",""
"","","","","","html-keyboard-response","19","279830","0.0-6.0-2.0","A2OVWCQ4B9AHFY","2022-05-27T01:29:15.737Z","rhyme-phon_sim-same_different-task_switching","","2482.699999999255","rhyme","<div style=""border: 3px solid #000000; position: fixed;left:14%;top:30%""><img src=""visual/bed.png"" width=""300""></div><div style=""border: 3px solid #000000; position: fixed;left:64%;top:30%""><img src=""visual/bread.png"" width=""300""></div>","arrowup","","true","experiment","visual/bed.png","visual/bread.png","ArrowUp","non-ortho","","","","","","","","","","","","","","","","","","","","","","","","","","","",""
"","","","","","html-keyboard-response","20","280846","0.0-6.0-0.1","A2OVWCQ4B9AHFY","2022-05-27T01:29:15.737Z","rhyme-phon_sim-same_different-task_switching","","null","rhyme","<div style=""font-size:60px;"">+</div>","null","1000","","","","","","","","","","","","","","","","","","","","","","","","","","","","","","","","","",""
"","","","","","html-keyboard-response","21","281363","0.0-6.0-1.1","A2OVWCQ4B9AHFY","2022-05-27T01:29:15.737Z","rhyme-phon_sim-same_different-task_switching","","null","rhyme","<img src=""square.png"" width=""306"" height=""306"" style=""position: fixed;left:14%;top:30%""><img src=""square.png"" width=""306"" height=""306"" style=""position: fixed;left:64%;top:30%"">","null","","","","","","","","","","","","","","","","","","","","","","","","","","","","","","","","","","",""
"","","","","","html-keyboard-response","22","283108","0.0-6.0-2.1","A2OVWCQ4B9AHFY","2022-05-27T01:29:15.737Z","rhyme-phon_sim-same_different-task_switching","","1742.300000000745","rhyme","<div style=""border: 3px solid #000000; position: fixed;left:14%;top:30%""><img src=""visual/brain.png"" width=""300""></div><div style=""border: 3px solid #000000; position: fixed;left:64%;top:30%""><img src=""visual/clock.png"" width=""300""></div>","arrowdown","","true","experiment","visual/brain.png","visual/clock.png","ArrowDown","NR","","","","","","","","","","","","","","","","","","","","","","","","","","","",""
"","","","","","html-keyboard-response","23","283874","0.0-6.0-0.2","A2OVWCQ4B9AHFY","2022-05-27T01:29:15.737Z","rhyme-phon_sim-same_different-task_switching","","null","rhyme","<div style=""font-size:60px;"">+</div>","null","750","","","","","","","","","","","","","","","","","","","","","","","","","","","","","","","","","",""
"","","","","","html-keyboard-response","24","284391","0.0-6.0-1.2","A2OVWCQ4B9AHFY","2022-05-27T01:29:15.737Z","rhyme-phon_sim-same_different-task_switching","","null","rhyme","<img src=""square.png"" width=""306"" height=""306"" style=""position: fixed;left:14%;top:30%""><img src=""square.png"" width=""306"" height=""306"" style=""position: fixed;left:64%;top:30%"">","null","","","","","","","","","","","","","","","","","","","","","","","","","","","","","","","","","","",""
"","","","","","html-keyboard-response","25","286334","0.0-6.0-2.2","A2OVWCQ4B9AHFY","2022-05-27T01:29:15.737Z","rhyme-phon_sim-same_different-task_switching","","1939.0999999977648","rhyme","<div style=""border: 3px solid #000000; position: fixed;left:14%;top:30%""><img src=""visual/socks.png"" width=""300""></div><div style=""border: 3px solid #000000; position: fixed;left:64%;top:30%""><img src=""visual/fox.png"" width=""300""></div>","arrowdown","","false","experiment","visual/socks.png","visual/fox.png","ArrowUp","non-ortho","","","","","","","","","","","","","","","","","","","","","","","","","","","",""
"","","","","","html-keyboard-response","26","287096","0.0-6.0-0.3","A2OVWCQ4B9AHFY","2022-05-27T01:29:15.737Z","rhyme-phon_sim-same_different-task_switching","","null","rhyme","<div style=""font-size:60px;"">+</div>","null","750","","","","","","","","","","","","","","","","","","","","","","","","","","","","","","","","","",""
"","","","","","html-keyboard-response","27","287610","0.0-6.0-1.3","A2OVWCQ4B9AHFY","2022-05-27T01:29:15.737Z","rhyme-phon_sim-same_different-task_switching","","null","rhyme","<img src=""square.png"" width=""306"" height=""306"" style=""position: fixed;left:14%;top:30%""><img src=""square.png"" width=""306"" height=""306"" style=""position: fixed;left:64%;top:30%"">","null","","","","","","","","","","","","","","","","","","","","","","","","","","","","","","","","","","",""
"","","","","","html-keyboard-response","28","290750","0.0-6.0-2.3","A2OVWCQ4B9AHFY","2022-05-27T01:29:15.737Z","rhyme-phon_sim-same_different-task_switching","","3136.300000000745","rhyme","<div style=""border: 3px solid #000000; position: fixed;left:14%;top:30%""><img src=""visual/nail.png"" width=""300""></div><div style=""border: 3px solid #000000; position: fixed;left:64%;top:30%""><img src=""visual/whale.png"" width=""300""></div>","arrowup","","true","experiment","visual/nail.png","visual/whale.png","ArrowUp","non-ortho","","","","","","","","","","","","","","","","","","","","","","","","","","","",""
"","","","","","html-keyboard-response","29","291007","0.0-6.0-0.4","A2OVWCQ4B9AHFY","2022-05-27T01:29:15.737Z","rhyme-phon_sim-same_different-task_switching","","null","rhyme","<div style=""font-size:60px;"">+</div>","null","250","","","","","","","","","","","","","","","","","","","","","","","","","","","","","","","","","",""
"","","","","","html-keyboard-response","30","291519","0.0-6.0-1.4","A2OVWCQ4B9AHFY","2022-05-27T01:29:15.737Z","rhyme-phon_sim-same_different-task_switching","","null","rhyme","<img src=""square.png"" width=""306"" height=""306"" style=""position: fixed;left:14%;top:30%""><img src=""square.png"" width=""306"" height=""306"" style=""position: fixed;left:64%;top:30%"">","null","","","","","","","","","","","","","","","","","","","","","","","","","","","","","","","","","","",""
"","","","","","html-keyboard-response","31","293368","0.0-6.0-2.4","A2OVWCQ4B9AHFY","2022-05-27T01:29:15.737Z","rhyme-phon_sim-same_different-task_switching","","1844.199999999255","rhyme","<div style=""border: 3px solid #000000; position: fixed;left:14%;top:30%""><img src=""visual/pear.png"" width=""300""></div><div style=""border: 3px solid #000000; position: fixed;left:64%;top:30%""><img src=""visual/rope.png"" width=""300""></div>","arrowdown","","true","experiment","visual/pear.png","visual/rope.png","ArrowDown","NR","","","","","","","","","","","","","","","","","","","","","","","","","","","",""
"","","","","","html-keyboard-response","32","294371","0.0-6.0-0.5","A2OVWCQ4B9AHFY","2022-05-27T01:29:15.737Z","rhyme-phon_sim-same_different-task_switching","","null","rhyme","<div style=""font-size:60px;"">+</div>","null","1000","","","","","","","","","","","","","","","","","","","","","","","","","","","","","","","","","",""
"","","","","","html-keyboard-response","33","294884","0.0-6.0-1.5","A2OVWCQ4B9AHFY","2022-05-27T01:29:15.737Z","rhyme-phon_sim-same_different-task_switching","","null","rhyme","<img src=""square.png"" width=""306"" height=""306"" style=""position: fixed;left:14%;top:30%""><img src=""square.png"" width=""306"" height=""306"" style=""position: fixed;left:64%;top:30%"">","null","","","","","","","","","","","","","","","","","","","","","","","","","","","","","","","","","","",""
"","","","","","html-keyboard-response","34","297286","0.0-6.0-2.5","A2OVWCQ4B9AHFY","2022-05-27T01:29:15.737Z","rhyme-phon_sim-same_different-task_switching","","2399.5","rhyme","<div style=""border: 3px solid #000000; position: fixed;left:14%;top:30%""><img src=""visual/bear.png"" width=""300""></div><div style=""border: 3px solid #000000; position: fixed;left:64%;top:30%""><img src=""visual/square_rhyme.png"" width=""300""></div>","arrowup","","true","experiment","visual/bear.png","visual/square_rhyme.png","ArrowUp","non-ortho","","","","","","","","","","","","","","","","","","","","","","","","","","","",""
"","","","","","html-keyboard-response","35","297541","0.0-6.0-0.6","A2OVWCQ4B9AHFY","2022-05-27T01:29:15.737Z","rhyme-phon_sim-same_different-task_switching","","null","rhyme","<div style=""font-size:60px;"">+</div>","null","250","","","","","","","","","","","","","","","","","","","","","","","","","","","","","","","","","",""
"","","","","","html-keyboard-response","36","298056","0.0-6.0-1.6","A2OVWCQ4B9AHFY","2022-05-27T01:29:15.737Z","rhyme-phon_sim-same_different-task_switching","","null","rhyme","<img src=""square.png"" width=""306"" height=""306"" style=""position: fixed;left:14%;top:30%""><img src=""square.png"" width=""306"" height=""306"" style=""position: fixed;left:64%;top:30%"">","null","","","","","","","","","","","","","","","","","","","","","","","","","","","","","","","","","","",""
"","","","","","html-keyboard-response","37","301552","0.0-6.0-2.6","A2OVWCQ4B9AHFY","2022-05-27T01:29:15.737Z","rhyme-phon_sim-same_different-task_switching","","3493.800000000745","rhyme","<div style=""border: 3px solid #000000; position: fixed;left:14%;top:30%""><img src=""visual/egg.png"" width=""300""></div><div style=""border: 3px solid #000000; position: fixed;left:64%;top:30%""><img src=""visual/leg.png"" width=""300""></div>","arrowup","","true","experiment","visual/egg.png","visual/leg.png","ArrowUp","ortho","","","","","","","","","","","","","","","","","","","","","","","","","","","",""
"","","","","","html-keyboard-response","38","302554","0.0-6.0-0.7","A2OVWCQ4B9AHFY","2022-05-27T01:29:15.737Z","rhyme-phon_sim-same_different-task_switching","","null","rhyme","<div style=""font-size:60px;"">+</div>","null","1000","","","","","","","","","","","","","","","","","","","","","","","","","","","","","","","","","",""
"","","","","","html-keyboard-response","39","303064","0.0-6.0-1.7","A2OVWCQ4B9AHFY","2022-05-27T01:29:15.737Z","rhyme-phon_sim-same_different-task_switching","","null","rhyme","<img src=""square.png"" width=""306"" height=""306"" style=""position: fixed;left:14%;top:30%""><img src=""square.png"" width=""306"" height=""306"" style=""position: fixed;left:64%;top:30%"">","null","","","","","","","","","","","","","","","","","","","","","","","","","","","","","","","","","","",""
"","","","","","html-keyboard-response","40","305088","0.0-6.0-2.7","A2OVWCQ4B9AHFY","2022-05-27T01:29:15.737Z","rhyme-phon_sim-same_different-task_switching","","2020.800000000745","rhyme","<div style=""border: 3px solid #000000; position: fixed;left:14%;top:30%""><img src=""visual/bear.png"" width=""300""></div><div style=""border: 3px solid #000000; position: fixed;left:64%;top:30%""><img src=""visual/hair.png"" width=""300""></div>","arrowup","","true","experiment","visual/bear.png","visual/hair.png","ArrowUp","non-ortho","","","","","","","","","","","","","","","","","","","","","","","","","","","",""
"","","","","","html-keyboard-response","41","305353","0.0-6.0-0.8","A2OVWCQ4B9AHFY","2022-05-27T01:29:15.737Z","rhyme-phon_sim-same_different-task_switching","","null","rhyme","<div style=""font-size:60px;"">+</div>","null","250","","","","","","","","","","","","","","","","","","","","","","","","","","","","","","","","","",""
"","","","","","html-keyboard-response","42","305871","0.0-6.0-1.8","A2OVWCQ4B9AHFY","2022-05-27T01:29:15.737Z","rhyme-phon_sim-same_different-task_switching","","null","rhyme","<img src=""square.png"" width=""306"" height=""306"" style=""position: fixed;left:14%;top:30%""><img src=""square.png"" width=""306"" height=""306"" style=""position: fixed;left:64%;top:30%"">","null","","","","","","","","","","","","","","","","","","","","","","","","","","","","","","","","","","",""
"","","","","","html-keyboard-response","43","310362","0.0-6.0-2.8","A2OVWCQ4B9AHFY","2022-05-27T01:29:15.737Z","rhyme-phon_sim-same_different-task_switching","","4488","rhyme","<div style=""border: 3px solid #000000; position: fixed;left:14%;top:30%""><img src=""visual/bear.png"" width=""300""></div><div style=""border: 3px solid #000000; position: fixed;left:64%;top:30%""><img src=""visual/crane.png"" width=""300""></div>","arrowdown","","true","experiment","visual/bear.png","visual/crane.png","ArrowDown","NR","","","","","","","","","","","","","","","","","","","","","","","","","","","",""
"","","","","","html-keyboard-response","44","311375","0.0-6.0-0.9","A2OVWCQ4B9AHFY","2022-05-27T01:29:15.737Z","rhyme-phon_sim-same_different-task_switching","","null","rhyme","<div style=""font-size:60px;"">+</div>","null","1000","","","","","","","","","","","","","","","","","","","","","","","","","","","","","","","","","",""
"","","","","","html-keyboard-response","45","311894","0.0-6.0-1.9","A2OVWCQ4B9AHFY","2022-05-27T01:29:15.737Z","rhyme-phon_sim-same_different-task_switching","","null","rhyme","<img src=""square.png"" width=""306"" height=""306"" style=""position: fixed;left:14%;top:30%""><img src=""square.png"" width=""306"" height=""306"" style=""position: fixed;left:64%;top:30%"">","null","","","","","","","","","","","","","","","","","","","","","","","","","","","","","","","","","","",""
"","","","","","html-keyboard-response","46","316899","0.0-6.0-2.9","A2OVWCQ4B9AHFY","2022-05-27T01:29:15.737Z","rhyme-phon_sim-same_different-task_switching","","null","rhyme","<div style=""border: 3px solid #000000; position: fixed;left:14%;top:30%""><img src=""visual/cake.png"" width=""300""></div><div style=""border: 3px solid #000000; position: fixed;left:64%;top:30%""><img src=""visual/rake.png"" width=""300""></div>","null","","false","experiment","visual/cake.png","visual/rake.png","ArrowUp","ortho","","","","","","","","","","","","","","","","","","","","","","","","","","","",""
"","","","","","html-keyboard-response","47","317916","0.0-6.0-0.10","A2OVWCQ4B9AHFY","2022-05-27T01:29:15.737Z","rhyme-phon_sim-same_different-task_switching","","null","rhyme","<div style=""font-size:60px;"">+</div>","null","1000","","","","","","","","","","","","","","","","","","","","","","","","","","","","","","","","","",""
"","","","","","html-keyboard-response","48","318427","0.0-6.0-1.10","A2OVWCQ4B9AHFY","2022-05-27T01:29:15.737Z","rhyme-phon_sim-same_different-task_switching","","null","rhyme","<img src=""square.png"" width=""306"" height=""306"" style=""position: fixed;left:14%;top:30%""><img src=""square.png"" width=""306"" height=""306"" style=""position: fixed;left:64%;top:30%"">","null","","","","","","","","","","","","","","","","","","","","","","","","","","","","","","","","","","",""
"","","","","","html-keyboard-response","49","320877","0.0-6.0-2.10","A2OVWCQ4B9AHFY","2022-05-27T01:29:15.737Z","rhyme-phon_sim-same_different-task_switching","","2447.2000000029802","rhyme","<div style=""border: 3px solid #000000; position: fixed;left:14%;top:30%""><img src=""visual/cat.png"" width=""300""></div><div style=""border: 3px solid #000000; position: fixed;left:64%;top:30%""><img src=""visual/sock.png"" width=""300""></div>","arrowdown","","true","experiment","visual/cat.png","visual/sock.png","ArrowDown","NR","","","","","","","","","","","","","","","","","","","","","","","","","","","",""
"","","","","","html-keyboard-response","50","321141","0.0-6.0-0.11","A2OVWCQ4B9AHFY","2022-05-27T01:29:15.737Z","rhyme-phon_sim-same_different-task_switching","","null","rhyme","<div style=""font-size:60px;"">+</div>","null","250","","","","","","","","","","","","","","","","","","","","","","","","","","","","","","","","","",""
"","","","","","html-keyboard-response","51","321646","0.0-6.0-1.11","A2OVWCQ4B9AHFY","2022-05-27T01:29:15.737Z","rhyme-phon_sim-same_different-task_switching","","null","rhyme","<img src=""square.png"" width=""306"" height=""306"" style=""position: fixed;left:14%;top:30%""><img src=""square.png"" width=""306"" height=""306"" style=""position: fixed;left:64%;top:30%"">","null","","","","","","","","","","","","","","","","","","","","","","","","","","","","","","","","","","",""
"","","","","","html-keyboard-response","52","323998","0.0-6.0-2.11","A2OVWCQ4B9AHFY","2022-05-27T01:29:15.737Z","rhyme-phon_sim-same_different-task_switching","","2348.39999999851","rhyme","<div style=""border: 3px solid #000000; position: fixed;left:14%;top:30%""><img src=""visual/key.png"" width=""300""></div><div style=""border: 3px solid #000000; position: fixed;left:64%;top:30%""><img src=""visual/snail.png"" width=""300""></div>","arrowdown","","true","experiment","visual/key.png","visual/snail.png","ArrowDown","NR","","","","","","","","","","","","","","","","","","","","","","","","","","","",""
"","","","","","html-keyboard-response","53","324503","0.0-6.0-0.12","A2OVWCQ4B9AHFY","2022-05-27T01:29:15.737Z","rhyme-phon_sim-same_different-task_switching","","null","rhyme","<div style=""font-size:60px;"">+</div>","null","500","","","","","","","","","","","","","","","","","","","","","","","","","","","","","","","","","",""
"","","","","","html-keyboard-response","54","325018","0.0-6.0-1.12","A2OVWCQ4B9AHFY","2022-05-27T01:29:15.737Z","rhyme-phon_sim-same_different-task_switching","","null","rhyme","<img src=""square.png"" width=""306"" height=""306"" style=""position: fixed;left:14%;top:30%""><img src=""square.png"" width=""306"" height=""306"" style=""position: fixed;left:64%;top:30%"">","null","","","","","","","","","","","","","","","","","","","","","","","","","","","","","","","","","","",""
"","","","","","html-keyboard-response","55","329368","0.0-6.0-2.12","A2OVWCQ4B9AHFY","2022-05-27T01:29:15.737Z","rhyme-phon_sim-same_different-task_switching","","4347.199999999255","rhyme","<div style=""border: 3px solid #000000; position: fixed;left:14%;top:30%""><img src=""visual/claw.png"" width=""300""></div><div style=""border: 3px solid #000000; position: fixed;left:64%;top:30%""><img src=""visual/beer.png"" width=""300""></div>","arrowdown","","true","experiment","visual/claw.png","visual/beer.png","ArrowDown","NR","","","","","","","","","","","","","","","","","","","","","","","","","","","",""
"","","","","","html-keyboard-response","56","329882","0.0-6.0-0.13","A2OVWCQ4B9AHFY","2022-05-27T01:29:15.737Z","rhyme-phon_sim-same_different-task_switching","","null","rhyme","<div style=""font-size:60px;"">+</div>","null","500","","","","","","","","","","","","","","","","","","","","","","","","","","","","","","","","","",""
"","","","","","html-keyboard-response","57","330397","0.0-6.0-1.13","A2OVWCQ4B9AHFY","2022-05-27T01:29:15.737Z","rhyme-phon_sim-same_different-task_switching","","null","rhyme","<img src=""square.png"" width=""306"" height=""306"" style=""position: fixed;left:14%;top:30%""><img src=""square.png"" width=""306"" height=""306"" style=""position: fixed;left:64%;top:30%"">","null","","","","","","","","","","","","","","","","","","","","","","","","","","","","","","","","","","",""
"","","","","","html-keyboard-response","58","332941","0.0-6.0-2.13","A2OVWCQ4B9AHFY","2022-05-27T01:29:15.737Z","rhyme-phon_sim-same_different-task_switching","","2540","rhyme","<div style=""border: 3px solid #000000; position: fixed;left:14%;top:30%""><img src=""visual/tree.png"" width=""300""></div><div style=""border: 3px solid #000000; position: fixed;left:64%;top:30%""><img src=""visual/door.png"" width=""300""></div>","arrowdown","","true","experiment","visual/tree.png","visual/door.png","ArrowDown","NR","","","","","","","","","","","","","","","","","","","","","","","","","","","",""
"","","","","","html-keyboard-response","59","333450","0.0-6.0-0.14","A2OVWCQ4B9AHFY","2022-05-27T01:29:15.737Z","rhyme-phon_sim-same_different-task_switching","","null","rhyme","<div style=""font-size:60px;"">+</div>","null","500","","","","","","","","","","","","","","","","","","","","","","","","","","","","","","","","","",""
"","","","","","html-keyboard-response","60","333961","0.0-6.0-1.14","A2OVWCQ4B9AHFY","2022-05-27T01:29:15.737Z","rhyme-phon_sim-same_different-task_switching","","null","rhyme","<img src=""square.png"" width=""306"" height=""306"" style=""position: fixed;left:14%;top:30%""><img src=""square.png"" width=""306"" height=""306"" style=""position: fixed;left:64%;top:30%"">","null","","","","","","","","","","","","","","","","","","","","","","","","","","","","","","","","","","",""
"","","","","","html-keyboard-response","61","336544","0.0-6.0-2.14","A2OVWCQ4B9AHFY","2022-05-27T01:29:15.737Z","rhyme-phon_sim-same_different-task_switching","","2578.10000000149","rhyme","<div style=""border: 3px solid #000000; position: fixed;left:14%;top:30%""><img src=""visual/soap.png"" width=""300""></div><div style=""border: 3px solid #000000; position: fixed;left:64%;top:30%""><img src=""visual/rope.png"" width=""300""></div>","arrowup","","true","experiment","visual/soap.png","visual/rope.png","ArrowUp","non-ortho","","","","","","","","","","","","","","","","","","","","","","","","","","","",""
"","","","","","html-keyboard-response","62","337061","0.0-6.0-0.15","A2OVWCQ4B9AHFY","2022-05-27T01:29:15.737Z","rhyme-phon_sim-same_different-task_switching","","null","rhyme","<div style=""font-size:60px;"">+</div>","null","500","","","","","","","","","","","","","","","","","","","","","","","","","","","","","","","","","",""
"","","","","","html-keyboard-response","63","337569","0.0-6.0-1.15","A2OVWCQ4B9AHFY","2022-05-27T01:29:15.737Z","rhyme-phon_sim-same_different-task_switching","","null","rhyme","<img src=""square.png"" width=""306"" height=""306"" style=""position: fixed;left:14%;top:30%""><img src=""square.png"" width=""306"" height=""306"" style=""position: fixed;left:64%;top:30%"">","null","","","","","","","","","","","","","","","","","","","","","","","","","","","","","","","","","","",""
"","","","","","html-keyboard-response","64","340391","0.0-6.0-2.15","A2OVWCQ4B9AHFY","2022-05-27T01:29:15.737Z","rhyme-phon_sim-same_different-task_switching","","2816.5","rhyme","<div style=""border: 3px solid #000000; position: fixed;left:14%;top:30%""><img src=""visual/eye.png"" width=""300""></div><div style=""border: 3px solid #000000; position: fixed;left:64%;top:30%""><img src=""visual/tie.png"" width=""300""></div>","arrowdown","","false","experiment","visual/eye.png","visual/tie.png","ArrowUp","non-ortho","","","","","","","","","","","","","","","","","","","","","","","","","","","",""
"","","","","","html-keyboard-response","65","340893","0.0-6.0-0.16","A2OVWCQ4B9AHFY","2022-05-27T01:29:15.737Z","rhyme-phon_sim-same_different-task_switching","","null","rhyme","<div style=""font-size:60px;"">+</div>","null","500","","","","","","","","","","","","","","","","","","","","","","","","","","","","","","","","","",""
"","","","","","html-keyboard-response","66","341397","0.0-6.0-1.16","A2OVWCQ4B9AHFY","2022-05-27T01:29:15.737Z","rhyme-phon_sim-same_different-task_switching","","null","rhyme","<img src=""square.png"" width=""306"" height=""306"" style=""position: fixed;left:14%;top:30%""><img src=""square.png"" width=""306"" height=""306"" style=""position: fixed;left:64%;top:30%"">","null","","","","","","","","","","","","","","","","","","","","","","","","","","","","","","","","","","",""
"","","","","","html-keyboard-response","67","343697","0.0-6.0-2.16","A2OVWCQ4B9AHFY","2022-05-27T01:29:15.737Z","rhyme-phon_sim-same_different-task_switching","","2290","rhyme","<div style=""border: 3px solid #000000; position: fixed;left:14%;top:30%""><img src=""visual/soap.png"" width=""300""></div><div style=""border: 3px solid #000000; position: fixed;left:64%;top:30%""><img src=""visual/shoe.png"" width=""300""></div>","arrowdown","","true","experiment","visual/soap.png","visual/shoe.png","ArrowDown","NR","","","","","","","","","","","","","","","","","","","","","","","","","","","",""
"","","","","","html-keyboard-response","68","344452","0.0-6.0-0.17","A2OVWCQ4B9AHFY","2022-05-27T01:29:15.737Z","rhyme-phon_sim-same_different-task_switching","","null","rhyme","<div style=""font-size:60px;"">+</div>","null","750","","","","","","","","","","","","","","","","","","","","","","","","","","","","","","","","","",""
"","","","","","html-keyboard-response","69","344960","0.0-6.0-1.17","A2OVWCQ4B9AHFY","2022-05-27T01:29:15.737Z","rhyme-phon_sim-same_different-task_switching","","null","rhyme","<img src=""square.png"" width=""306"" height=""306"" style=""position: fixed;left:14%;top:30%""><img src=""square.png"" width=""306"" height=""306"" style=""position: fixed;left:64%;top:30%"">","null","","","","","","","","","","","","","","","","","","","","","","","","","","","","","","","","","","",""
"","","","","","html-keyboard-response","70","347604","0.0-6.0-2.17","A2OVWCQ4B9AHFY","2022-05-27T01:29:15.737Z","rhyme-phon_sim-same_different-task_switching","","2640.199999999255","rhyme","<div style=""border: 3px solid #000000; position: fixed;left:14%;top:30%""><img src=""visual/key.png"" width=""300""></div><div style=""border: 3px solid #000000; position: fixed;left:64%;top:30%""><img src=""visual/tree.png"" width=""300""></div>","arrowup","","true","experiment","visual/key.png","visual/tree.png","ArrowUp","non-ortho","","","","","","","","","","","","","","","","","","","","","","","","","","","",""
"","","","","","html-keyboard-response","71","348614","0.0-6.0-0.18","A2OVWCQ4B9AHFY","2022-05-27T01:29:15.737Z","rhyme-phon_sim-same_different-task_switching","","null","rhyme","<div style=""font-size:60px;"">+</div>","null","1000","","","","","","","","","","","","","","","","","","","","","","","","","","","","","","","","","",""
"","","","","","html-keyboard-response","72","349121","0.0-6.0-1.18","A2OVWCQ4B9AHFY","2022-05-27T01:29:15.737Z","rhyme-phon_sim-same_different-task_switching","","null","rhyme","<img src=""square.png"" width=""306"" height=""306"" style=""position: fixed;left:14%;top:30%""><img src=""square.png"" width=""306"" height=""306"" style=""position: fixed;left:64%;top:30%"">","null","","","","","","","","","","","","","","","","","","","","","","","","","","","","","","","","","","",""
"","","","","","html-keyboard-response","73","352567","0.0-6.0-2.18","A2OVWCQ4B9AHFY","2022-05-27T01:29:15.737Z","rhyme-phon_sim-same_different-task_switching","","3441.5","rhyme","<div style=""border: 3px solid #000000; position: fixed;left:14%;top:30%""><img src=""visual/rake.png"" width=""300""></div><div style=""border: 3px solid #000000; position: fixed;left:64%;top:30%""><img src=""visual/park.png"" width=""300""></div>","arrowdown","","true","experiment","visual/rake.png","visual/park.png","ArrowDown","NR","","","","","","","","","","","","","","","","","","","","","","","","","","","",""
"","","","","","html-keyboard-response","74","352826","0.0-6.0-0.19","A2OVWCQ4B9AHFY","2022-05-27T01:29:15.737Z","rhyme-phon_sim-same_different-task_switching","","null","rhyme","<div style=""font-size:60px;"">+</div>","null","250","","","","","","","","","","","","","","","","","","","","","","","","","","","","","","","","","",""
"","","","","","html-keyboard-response","75","353333","0.0-6.0-1.19","A2OVWCQ4B9AHFY","2022-05-27T01:29:15.737Z","rhyme-phon_sim-same_different-task_switching","","null","rhyme","<img src=""square.png"" width=""306"" height=""306"" style=""position: fixed;left:14%;top:30%""><img src=""square.png"" width=""306"" height=""306"" style=""position: fixed;left:64%;top:30%"">","null","","","","","","","","","","","","","","","","","","","","","","","","","","","","","","","","","","",""
"","","","","","html-keyboard-response","76","355502","0.0-6.0-2.19","A2OVWCQ4B9AHFY","2022-05-27T01:29:15.737Z","rhyme-phon_sim-same_different-task_switching","","2164.400000002235","rhyme","<div style=""border: 3px solid #000000; position: fixed;left:14%;top:30%""><img src=""visual/nose.png"" width=""300""></div><div style=""border: 3px solid #000000; position: fixed;left:64%;top:30%""><img src=""visual/bell.png"" width=""300""></div>","arrowdown","","true","experiment","visual/nose.png","visual/bell.png","ArrowDown","NR","","","","","","","","","","","","","","","","","","","","","","","","","","","",""
"","","","","","html-keyboard-response","77","355767","0.0-6.0-0.20","A2OVWCQ4B9AHFY","2022-05-27T01:29:15.737Z","rhyme-phon_sim-same_different-task_switching","","null","rhyme","<div style=""font-size:60px;"">+</div>","null","250","","","","","","","","","","","","","","","","","","","","","","","","","","","","","","","","","",""
"","","","","","html-keyboard-response","78","356274","0.0-6.0-1.20","A2OVWCQ4B9AHFY","2022-05-27T01:29:15.737Z","rhyme-phon_sim-same_different-task_switching","","null","rhyme","<img src=""square.png"" width=""306"" height=""306"" style=""position: fixed;left:14%;top:30%""><img src=""square.png"" width=""306"" height=""306"" style=""position: fixed;left:64%;top:30%"">","null","","","","","","","","","","","","","","","","","","","","","","","","","","","","","","","","","","",""
"","","","","","html-keyboard-response","79","358657","0.0-6.0-2.20","A2OVWCQ4B9AHFY","2022-05-27T01:29:15.737Z","rhyme-phon_sim-same_different-task_switching","","2380.699999999255","rhyme","<div style=""border: 3px solid #000000; position: fixed;left:14%;top:30%""><img src=""visual/tie.png"" width=""300""></div><div style=""border: 3px solid #000000; position: fixed;left:64%;top:30%""><img src=""visual/fly.png"" width=""300""></div>","arrowup","","true","experiment","visual/tie.png","visual/fly.png","ArrowUp","non-ortho","","","","","","","","","","","","","","","","","","","","","","","","","","","",""
"","","","","","html-keyboard-response","80","358915","0.0-6.0-0.21","A2OVWCQ4B9AHFY","2022-05-27T01:29:15.737Z","rhyme-phon_sim-same_different-task_switching","","null","rhyme","<div style=""font-size:60px;"">+</div>","null","250","","","","","","","","","","","","","","","","","","","","","","","","","","","","","","","","","",""
"","","","","","html-keyboard-response","81","359425","0.0-6.0-1.21","A2OVWCQ4B9AHFY","2022-05-27T01:29:15.737Z","rhyme-phon_sim-same_different-task_switching","","null","rhyme","<img src=""square.png"" width=""306"" height=""306"" style=""position: fixed;left:14%;top:30%""><img src=""square.png"" width=""306"" height=""306"" style=""position: fixed;left:64%;top:30%"">","null","","","","","","","","","","","","","","","","","","","","","","","","","","","","","","","","","","",""
"","","","","","html-keyboard-response","82","362982","0.0-6.0-2.21","A2OVWCQ4B9AHFY","2022-05-27T01:29:15.737Z","rhyme-phon_sim-same_different-task_switching","","3553.099999997765","rhyme","<div style=""border: 3px solid #000000; position: fixed;left:14%;top:30%""><img src=""visual/saw.png"" width=""300""></div><div style=""border: 3px solid #000000; position: fixed;left:64%;top:30%""><img src=""visual/claw.png"" width=""300""></div>","arrowdown","","false","experiment","visual/saw.png","visual/claw.png","ArrowUp","ortho","","","","","","","","","","","","","","","","","","","","","","","","","","","",""
"","","","","","html-keyboard-response","83","363241","0.0-6.0-0.22","A2OVWCQ4B9AHFY","2022-05-27T01:29:15.737Z","rhyme-phon_sim-same_different-task_switching","","null","rhyme","<div style=""font-size:60px;"">+</div>","null","250","","","","","","","","","","","","","","","","","","","","","","","","","","","","","","","","","",""
"","","","","","html-keyboard-response","84","363750","0.0-6.0-1.22","A2OVWCQ4B9AHFY","2022-05-27T01:29:15.737Z","rhyme-phon_sim-same_different-task_switching","","null","rhyme","<img src=""square.png"" width=""306"" height=""306"" style=""position: fixed;left:14%;top:30%""><img src=""square.png"" width=""306"" height=""306"" style=""position: fixed;left:64%;top:30%"">","null","","","","","","","","","","","","","","","","","","","","","","","","","","","","","","","","","","",""
"","","","","","html-keyboard-response","85","368184","0.0-6.0-2.22","A2OVWCQ4B9AHFY","2022-05-27T01:29:15.737Z","rhyme-phon_sim-same_different-task_switching","","4430","rhyme","<div style=""border: 3px solid #000000; position: fixed;left:14%;top:30%""><img src=""visual/sock.png"" width=""300""></div><div style=""border: 3px solid #000000; position: fixed;left:64%;top:30%""><img src=""visual/clock.png"" width=""300""></div>","arrowup","","true","experiment","visual/sock.png","visual/clock.png","ArrowUp","ortho","","","","","","","","","","","","","","","","","","","","","","","","","","","",""
"","","","","","html-keyboard-response","86","368948","0.0-6.0-0.23","A2OVWCQ4B9AHFY","2022-05-27T01:29:15.737Z","rhyme-phon_sim-same_different-task_switching","","null","rhyme","<div style=""font-size:60px;"">+</div>","null","750","","","","","","","","","","","","","","","","","","","","","","","","","","","","","","","","","",""
"","","","","","html-keyboard-response","87","369462","0.0-6.0-1.23","A2OVWCQ4B9AHFY","2022-05-27T01:29:15.737Z","rhyme-phon_sim-same_different-task_switching","","null","rhyme","<img src=""square.png"" width=""306"" height=""306"" style=""position: fixed;left:14%;top:30%""><img src=""square.png"" width=""306"" height=""306"" style=""position: fixed;left:64%;top:30%"">","null","","","","","","","","","","","","","","","","","","","","","","","","","","","","","","","","","","",""
"","","","","","html-keyboard-response","88","372015","0.0-6.0-2.23","A2OVWCQ4B9AHFY","2022-05-27T01:29:15.737Z","rhyme-phon_sim-same_different-task_switching","","2549.5","rhyme","<div style=""border: 3px solid #000000; position: fixed;left:14%;top:30%""><img src=""visual/dart.png"" width=""300""></div><div style=""border: 3px solid #000000; position: fixed;left:64%;top:30%""><img src=""visual/tie.png"" width=""300""></div>","arrowdown","","true","experiment","visual/dart.png","visual/tie.png","ArrowDown","NR","","","","","","","","","","","","","","","","","","","","","","","","","","","",""
"","","","","","html-keyboard-response","89","372781","0.0-6.0-0.24","A2OVWCQ4B9AHFY","2022-05-27T01:29:15.737Z","rhyme-phon_sim-same_different-task_switching","","null","rhyme","<div style=""font-size:60px;"">+</div>","null","750","","","","","","","","","","","","","","","","","","","","","","","","","","","","","","","","","",""
"","","","","","html-keyboard-response","90","373299","0.0-6.0-1.24","A2OVWCQ4B9AHFY","2022-05-27T01:29:15.737Z","rhyme-phon_sim-same_different-task_switching","","null","rhyme","<img src=""square.png"" width=""306"" height=""306"" style=""position: fixed;left:14%;top:30%""><img src=""square.png"" width=""306"" height=""306"" style=""position: fixed;left:64%;top:30%"">","null","","","","","","","","","","","","","","","","","","","","","","","","","","","","","","","","","","",""
"","","","","","html-keyboard-response","91","375314","0.0-6.0-2.24","A2OVWCQ4B9AHFY","2022-05-27T01:29:15.737Z","rhyme-phon_sim-same_different-task_switching","","2010.800000000745","rhyme","<div style=""border: 3px solid #000000; position: fixed;left:14%;top:30%""><img src=""visual/bone.png"" width=""300""></div><div style=""border: 3px solid #000000; position: fixed;left:64%;top:30%""><img src=""visual/cone.png"" width=""300""></div>","arrowup","","true","experiment","visual/bone.png","visual/cone.png","ArrowUp","ortho","","","","","","","","","","","","","","","","","","","","","","","","","","","",""
"","","","","","html-keyboard-response","92","376318","0.0-6.0-0.25","A2OVWCQ4B9AHFY","2022-05-27T01:29:15.737Z","rhyme-phon_sim-same_different-task_switching","","null","rhyme","<div style=""font-size:60px;"">+</div>","null","1000","","","","","","","","","","","","","","","","","","","","","","","","","","","","","","","","","",""
"","","","","","html-keyboard-response","93","376824","0.0-6.0-1.25","A2OVWCQ4B9AHFY","2022-05-27T01:29:15.737Z","rhyme-phon_sim-same_different-task_switching","","null","rhyme","<img src=""square.png"" width=""306"" height=""306"" style=""position: fixed;left:14%;top:30%""><img src=""square.png"" width=""306"" height=""306"" style=""position: fixed;left:64%;top:30%"">","null","","","","","","","","","","","","","","","","","","","","","","","","","","","","","","","","","","",""
"","","","","","html-keyboard-response","94","379100","0.0-6.0-2.25","A2OVWCQ4B9AHFY","2022-05-27T01:29:15.737Z","rhyme-phon_sim-same_different-task_switching","","2272.900000002235","rhyme","<div style=""border: 3px solid #000000; position: fixed;left:14%;top:30%""><img src=""visual/flag.png"" width=""300""></div><div style=""border: 3px solid #000000; position: fixed;left:64%;top:30%""><img src=""visual/bag.png"" width=""300""></div>","arrowup","","true","experiment","visual/flag.png","visual/bag.png","ArrowUp","ortho","","","","","","","","","","","","","","","","","","","","","","","","","","","",""
"","","","","","html-keyboard-response","95","379607","0.0-6.0-0.26","A2OVWCQ4B9AHFY","2022-05-27T01:29:15.737Z","rhyme-phon_sim-same_different-task_switching","","null","rhyme","<div style=""font-size:60px;"">+</div>","null","500","","","","","","","","","","","","","","","","","","","","","","","","","","","","","","","","","",""
"","","","","","html-keyboard-response","96","380129","0.0-6.0-1.26","A2OVWCQ4B9AHFY","2022-05-27T01:29:15.737Z","rhyme-phon_sim-same_different-task_switching","","null","rhyme","<img src=""square.png"" width=""306"" height=""306"" style=""position: fixed;left:14%;top:30%""><img src=""square.png"" width=""306"" height=""306"" style=""position: fixed;left:64%;top:30%"">","null","","","","","","","","","","","","","","","","","","","","","","","","","","","","","","","","","","",""
"","","","","","html-keyboard-response","97","382377","0.0-6.0-2.26","A2OVWCQ4B9AHFY","2022-05-27T01:29:15.737Z","rhyme-phon_sim-same_different-task_switching","","2244.10000000149","rhyme","<div style=""border: 3px solid #000000; position: fixed;left:14%;top:30%""><img src=""visual/drum.png"" width=""300""></div><div style=""border: 3px solid #000000; position: fixed;left:64%;top:30%""><img src=""visual/thumb.png"" width=""300""></div>","arrowup","","true","experiment","visual/drum.png","visual/thumb.png","ArrowUp","non-ortho","","","","","","","","","","","","","","","","","","","","","","","","","","","",""
"","","","","","html-keyboard-response","98","382882","0.0-6.0-0.27","A2OVWCQ4B9AHFY","2022-05-27T01:29:15.737Z","rhyme-phon_sim-same_different-task_switching","","null","rhyme","<div style=""font-size:60px;"">+</div>","null","500","","","","","","","","","","","","","","","","","","","","","","","","","","","","","","","","","",""
"","","","","","html-keyboard-response","99","383387","0.0-6.0-1.27","A2OVWCQ4B9AHFY","2022-05-27T01:29:15.737Z","rhyme-phon_sim-same_different-task_switching","","null","rhyme","<img src=""square.png"" width=""306"" height=""306"" style=""position: fixed;left:14%;top:30%""><img src=""square.png"" width=""306"" height=""306"" style=""position: fixed;left:64%;top:30%"">","null","","","","","","","","","","","","","","","","","","","","","","","","","","","","","","","","","","",""
"","","","","","html-keyboard-response","100","384632","0.0-6.0-2.27","A2OVWCQ4B9AHFY","2022-05-27T01:29:15.737Z","rhyme-phon_sim-same_different-task_switching","","1242.0999999977648","rhyme","<div style=""border: 3px solid #000000; position: fixed;left:14%;top:30%""><img src=""visual/cat.png"" width=""300""></div><div style=""border: 3px solid #000000; position: fixed;left:64%;top:30%""><img src=""visual/hat.png"" width=""300""></div>","arrowup","","true","experiment","visual/cat.png","visual/hat.png","ArrowUp","ortho","","","","","","","","","","","","","","","","","","","","","","","","","","","",""
"","","","","","html-keyboard-response","101","384894","0.0-6.0-0.28","A2OVWCQ4B9AHFY","2022-05-27T01:29:15.737Z","rhyme-phon_sim-same_different-task_switching","","null","rhyme","<div style=""font-size:60px;"">+</div>","null","250","","","","","","","","","","","","","","","","","","","","","","","","","","","","","","","","","",""
"","","","","","html-keyboard-response","102","385399","0.0-6.0-1.28","A2OVWCQ4B9AHFY","2022-05-27T01:29:15.737Z","rhyme-phon_sim-same_different-task_switching","","null","rhyme","<img src=""square.png"" width=""306"" height=""306"" style=""position: fixed;left:14%;top:30%""><img src=""square.png"" width=""306"" height=""306"" style=""position: fixed;left:64%;top:30%"">","null","","","","","","","","","","","","","","","","","","","","","","","","","","","","","","","","","","",""
"","","","","","html-keyboard-response","103","390414","0.0-6.0-2.28","A2OVWCQ4B9AHFY","2022-05-27T01:29:15.737Z","rhyme-phon_sim-same_different-task_switching","","null","rhyme","<div style=""border: 3px solid #000000; position: fixed;left:14%;top:30%""><img src=""visual/fly.png"" width=""300""></div><div style=""border: 3px solid #000000; position: fixed;left:64%;top:30%""><img src=""visual/plane.png"" width=""300""></div>","null","","false","experiment","visual/fly.png","visual/plane.png","ArrowDown","NR","","","","","","","","","","","","","","","","","","","","","","","","","","","",""
"","","","","","html-keyboard-response","104","390917","0.0-6.0-0.29","A2OVWCQ4B9AHFY","2022-05-27T01:29:15.737Z","rhyme-phon_sim-same_different-task_switching","","null","rhyme","<div style=""font-size:60px;"">+</div>","null","500","","","","","","","","","","","","","","","","","","","","","","","","","","","","","","","","","",""
"","","","","","html-keyboard-response","105","391426","0.0-6.0-1.29","A2OVWCQ4B9AHFY","2022-05-27T01:29:15.737Z","rhyme-phon_sim-same_different-task_switching","","null","rhyme","<img src=""square.png"" width=""306"" height=""306"" style=""position: fixed;left:14%;top:30%""><img src=""square.png"" width=""306"" height=""306"" style=""position: fixed;left:64%;top:30%"">","null","","","","","","","","","","","","","","","","","","","","","","","","","","","","","","","","","","",""
"","","","","","html-keyboard-response","106","393791","0.0-6.0-2.29","A2OVWCQ4B9AHFY","2022-05-27T01:29:15.737Z","rhyme-phon_sim-same_different-task_switching","","2362.89999999851","rhyme","<div style=""border: 3px solid #000000; position: fixed;left:14%;top:30%""><img src=""visual/shark.png"" width=""300""></div><div style=""border: 3px solid #000000; position: fixed;left:64%;top:30%""><img src=""visual/moon.png"" width=""300""></div>","arrowdown","","true","experiment","visual/shark.png","visual/moon.png","ArrowDown","NR","","","","","","","","","","","","","","","","","","","","","","","","","","","",""
"","","","","","html-keyboard-response","107","394544","0.0-6.0-0.30","A2OVWCQ4B9AHFY","2022-05-27T01:29:15.737Z","rhyme-phon_sim-same_different-task_switching","","null","rhyme","<div style=""font-size:60px;"">+</div>","null","750","","","","","","","","","","","","","","","","","","","","","","","","","","","","","","","","","",""
"","","","","","html-keyboard-response","108","395060","0.0-6.0-1.30","A2OVWCQ4B9AHFY","2022-05-27T01:29:15.737Z","rhyme-phon_sim-same_different-task_switching","","null","rhyme","<img src=""square.png"" width=""306"" height=""306"" style=""position: fixed;left:14%;top:30%""><img src=""square.png"" width=""306"" height=""306"" style=""position: fixed;left:64%;top:30%"">","null","","","","","","","","","","","","","","","","","","","","","","","","","","","","","","","","","","",""
"","","","","","html-keyboard-response","109","396910","0.0-6.0-2.30","A2OVWCQ4B9AHFY","2022-05-27T01:29:15.737Z","rhyme-phon_sim-same_different-task_switching","","1847.300000000745","rhyme","<div style=""border: 3px solid #000000; position: fixed;left:14%;top:30%""><img src=""visual/train.png"" width=""300""></div><div style=""border: 3px solid #000000; position: fixed;left:64%;top:30%""><img src=""visual/screw.png"" width=""300""></div>","arrowdown","","true","experiment","visual/train.png","visual/screw.png","ArrowDown","NR","","","","","","","","","","","","","","","","","","","","","","","","","","","",""
"","","","","","html-keyboard-response","110","397169","0.0-6.0-0.31","A2OVWCQ4B9AHFY","2022-05-27T01:29:15.737Z","rhyme-phon_sim-same_different-task_switching","","null","rhyme","<div style=""font-size:60px;"">+</div>","null","250","","","","","","","","","","","","","","","","","","","","","","","","","","","","","","","","","",""
"","","","","","html-keyboard-response","111","397678","0.0-6.0-1.31","A2OVWCQ4B9AHFY","2022-05-27T01:29:15.737Z","rhyme-phon_sim-same_different-task_switching","","null","rhyme","<img src=""square.png"" width=""306"" height=""306"" style=""position: fixed;left:14%;top:30%""><img src=""square.png"" width=""306"" height=""306"" style=""position: fixed;left:64%;top:30%"">","null","","","","","","","","","","","","","","","","","","","","","","","","","","","","","","","","","","",""
"","","","","","html-keyboard-response","112","399327","0.0-6.0-2.31","A2OVWCQ4B9AHFY","2022-05-27T01:29:15.737Z","rhyme-phon_sim-same_different-task_switching","","1645.199999999255","rhyme","<div style=""border: 3px solid #000000; position: fixed;left:14%;top:30%""><img src=""visual/dart.png"" width=""300""></div><div style=""border: 3px solid #000000; position: fixed;left:64%;top:30%""><img src=""visual/heart.png"" width=""300""></div>","arrowup","","true","experiment","visual/dart.png","visual/heart.png","ArrowUp","non-ortho","","","","","","","","","","","","","","","","","","","","","","","","","","","",""
"","","","","","html-keyboard-response","113","400331","0.0-6.0-0.32","A2OVWCQ4B9AHFY","2022-05-27T01:29:15.737Z","rhyme-phon_sim-same_different-task_switching","","null","rhyme","<div style=""font-size:60px;"">+</div>","null","1000","","","","","","","","","","","","","","","","","","","","","","","","","","","","","","","","","",""
"","","","","","html-keyboard-response","114","400846","0.0-6.0-1.32","A2OVWCQ4B9AHFY","2022-05-27T01:29:15.737Z","rhyme-phon_sim-same_different-task_switching","","null","rhyme","<img src=""square.png"" width=""306"" height=""306"" style=""position: fixed;left:14%;top:30%""><img src=""square.png"" width=""306"" height=""306"" style=""position: fixed;left:64%;top:30%"">","null","","","","","","","","","","","","","","","","","","","","","","","","","","","","","","","","","","",""
"","","","","","html-keyboard-response","115","403346","0.0-6.0-2.32","A2OVWCQ4B9AHFY","2022-05-27T01:29:15.737Z","rhyme-phon_sim-same_different-task_switching","","2496.5","rhyme","<div style=""border: 3px solid #000000; position: fixed;left:14%;top:30%""><img src=""visual/plane.png"" width=""300""></div><div style=""border: 3px solid #000000; position: fixed;left:64%;top:30%""><img src=""visual/chain.png"" width=""300""></div>","arrowdown","","false","experiment","visual/plane.png","visual/chain.png","ArrowUp","non-ortho","","","","","","","","","","","","","","","","","","","","","","","","","","","",""
"","","","","","html-keyboard-response","116","403612","0.0-6.0-0.33","A2OVWCQ4B9AHFY","2022-05-27T01:29:15.737Z","rhyme-phon_sim-same_different-task_switching","","null","rhyme","<div style=""font-size:60px;"">+</div>","null","250","","","","","","","","","","","","","","","","","","","","","","","","","","","","","","","","","",""
"","","","","","html-keyboard-response","117","404118","0.0-6.0-1.33","A2OVWCQ4B9AHFY","2022-05-27T01:29:15.737Z","rhyme-phon_sim-same_different-task_switching","","null","rhyme","<img src=""square.png"" width=""306"" height=""306"" style=""position: fixed;left:14%;top:30%""><img src=""square.png"" width=""306"" height=""306"" style=""position: fixed;left:64%;top:30%"">","null","","","","","","","","","","","","","","","","","","","","","","","","","","","","","","","","","","",""
"","","","","","html-keyboard-response","118","407538","0.0-6.0-2.33","A2OVWCQ4B9AHFY","2022-05-27T01:29:15.737Z","rhyme-phon_sim-same_different-task_switching","","3414.89999999851","rhyme","<div style=""border: 3px solid #000000; position: fixed;left:14%;top:30%""><img src=""visual/deer.png"" width=""300""></div><div style=""border: 3px solid #000000; position: fixed;left:64%;top:30%""><img src=""visual/beer.png"" width=""300""></div>","arrowup","","true","experiment","visual/deer.png","visual/beer.png","ArrowUp","ortho","","","","","","","","","","","","","","","","","","","","","","","","","","","",""
"","","","","","html-keyboard-response","119","408553","0.0-6.0-0.34","A2OVWCQ4B9AHFY","2022-05-27T01:29:15.737Z","rhyme-phon_sim-same_different-task_switching","","null","rhyme","<div style=""font-size:60px;"">+</div>","null","1000","","","","","","","","","","","","","","","","","","","","","","","","","","","","","","","","","",""
"","","","","","html-keyboard-response","120","409067","0.0-6.0-1.34","A2OVWCQ4B9AHFY","2022-05-27T01:29:15.737Z","rhyme-phon_sim-same_different-task_switching","","null","rhyme","<img src=""square.png"" width=""306"" height=""306"" style=""position: fixed;left:14%;top:30%""><img src=""square.png"" width=""306"" height=""306"" style=""position: fixed;left:64%;top:30%"">","null","","","","","","","","","","","","","","","","","","","","","","","","","","","","","","","","","","",""
"","","","","","html-keyboard-response","121","412215","0.0-6.0-2.34","A2OVWCQ4B9AHFY","2022-05-27T01:29:15.737Z","rhyme-phon_sim-same_different-task_switching","","3143.800000000745","rhyme","<div style=""border: 3px solid #000000; position: fixed;left:14%;top:30%""><img src=""visual/wheel.png"" width=""300""></div><div style=""border: 3px solid #000000; position: fixed;left:64%;top:30%""><img src=""visual/seal.png"" width=""300""></div>","arrowdown","","false","experiment","visual/wheel.png","visual/seal.png","ArrowUp","non-ortho","","","","","","","","","","","","","","","","","","","","","","","","","","","",""
"","","","","","html-keyboard-response","122","412474","0.0-6.0-0.35","A2OVWCQ4B9AHFY","2022-05-27T01:29:15.737Z","rhyme-phon_sim-same_different-task_switching","","null","rhyme","<div style=""font-size:60px;"">+</div>","null","250","","","","","","","","","","","","","","","","","","","","","","","","","","","","","","","","","",""
"","","","","","html-keyboard-response","123","412991","0.0-6.0-1.35","A2OVWCQ4B9AHFY","2022-05-27T01:29:15.737Z","rhyme-phon_sim-same_different-task_switching","","null","rhyme","<img src=""square.png"" width=""306"" height=""306"" style=""position: fixed;left:14%;top:30%""><img src=""square.png"" width=""306"" height=""306"" style=""position: fixed;left:64%;top:30%"">","null","","","","","","","","","","","","","","","","","","","","","","","","","","","","","","","","","","",""
"","","","","","html-keyboard-response","124","414365","0.0-6.0-2.35","A2OVWCQ4B9AHFY","2022-05-27T01:29:15.737Z","rhyme-phon_sim-same_different-task_switching","","1371.4000000022352","rhyme","<div style=""border: 3px solid #000000; position: fixed;left:14%;top:30%""><img src=""visual/box.png"" width=""300""></div><div style=""border: 3px solid #000000; position: fixed;left:64%;top:30%""><img src=""visual/fox.png"" width=""300""></div>","arrowup","","true","experiment","visual/box.png","visual/fox.png","ArrowUp","ortho","","","","","","","","","","","","","","","","","","","","","","","","","","","",""
"","","","","","html-keyboard-response","125","415377","0.0-6.0-0.36","A2OVWCQ4B9AHFY","2022-05-27T01:29:15.737Z","rhyme-phon_sim-same_different-task_switching","","null","rhyme","<div style=""font-size:60px;"">+</div>","null","1000","","","","","","","","","","","","","","","","","","","","","","","","","","","","","","","","","",""
"","","","","","html-keyboard-response","126","415891","0.0-6.0-1.36","A2OVWCQ4B9AHFY","2022-05-27T01:29:15.737Z","rhyme-phon_sim-same_different-task_switching","","null","rhyme","<img src=""square.png"" width=""306"" height=""306"" style=""position: fixed;left:14%;top:30%""><img src=""square.png"" width=""306"" height=""306"" style=""position: fixed;left:64%;top:30%"">","null","","","","","","","","","","","","","","","","","","","","","","","","","","","","","","","","","","",""
"","","","","","html-keyboard-response","127","418449","0.0-6.0-2.36","A2OVWCQ4B9AHFY","2022-05-27T01:29:15.737Z","rhyme-phon_sim-same_different-task_switching","","2555.10000000149","rhyme","<div style=""border: 3px solid #000000; position: fixed;left:14%;top:30%""><img src=""visual/spoon.png"" width=""300""></div><div style=""border: 3px solid #000000; position: fixed;left:64%;top:30%""><img src=""visual/crab.png"" width=""300""></div>","arrowdown","","true","experiment","visual/spoon.png","visual/crab.png","ArrowDown","NR","","","","","","","","","","","","","","","","","","","","","","","","","","","",""
"","","","","","html-keyboard-response","128","419211","0.0-6.0-0.37","A2OVWCQ4B9AHFY","2022-05-27T01:29:15.737Z","rhyme-phon_sim-same_different-task_switching","","null","rhyme","<div style=""font-size:60px;"">+</div>","null","750","","","","","","","","","","","","","","","","","","","","","","","","","","","","","","","","","",""
"","","","","","html-keyboard-response","129","419730","0.0-6.0-1.37","A2OVWCQ4B9AHFY","2022-05-27T01:29:15.737Z","rhyme-phon_sim-same_different-task_switching","","null","rhyme","<img src=""square.png"" width=""306"" height=""306"" style=""position: fixed;left:14%;top:30%""><img src=""square.png"" width=""306"" height=""306"" style=""position: fixed;left:64%;top:30%"">","null","","","","","","","","","","","","","","","","","","","","","","","","","","","","","","","","","","",""
"","","","","","html-keyboard-response","130","422022","0.0-6.0-2.37","A2OVWCQ4B9AHFY","2022-05-27T01:29:15.737Z","rhyme-phon_sim-same_different-task_switching","","2287.300000000745","rhyme","<div style=""border: 3px solid #000000; position: fixed;left:14%;top:30%""><img src=""visual/well.png"" width=""300""></div><div style=""border: 3px solid #000000; position: fixed;left:64%;top:30%""><img src=""visual/bell.png"" width=""300""></div>","arrowup","","true","experiment","visual/well.png","visual/bell.png","ArrowUp","ortho","","","","","","","","","","","","","","","","","","","","","","","","","","","",""
"","","","","","html-keyboard-response","131","423034","0.0-6.0-0.38","A2OVWCQ4B9AHFY","2022-05-27T01:29:15.737Z","rhyme-phon_sim-same_different-task_switching","","null","rhyme","<div style=""font-size:60px;"">+</div>","null","1000","","","","","","","","","","","","","","","","","","","","","","","","","","","","","","","","","",""
"","","","","","html-keyboard-response","132","423553","0.0-6.0-1.38","A2OVWCQ4B9AHFY","2022-05-27T01:29:15.737Z","rhyme-phon_sim-same_different-task_switching","","null","rhyme","<img src=""square.png"" width=""306"" height=""306"" style=""position: fixed;left:14%;top:30%""><img src=""square.png"" width=""306"" height=""306"" style=""position: fixed;left:64%;top:30%"">","null","","","","","","","","","","","","","","","","","","","","","","","","","","","","","","","","","","",""
"","","","","","html-keyboard-response","133","425782","0.0-6.0-2.38","A2OVWCQ4B9AHFY","2022-05-27T01:29:15.737Z","rhyme-phon_sim-same_different-task_switching","","2223.60000000149","rhyme","<div style=""border: 3px solid #000000; position: fixed;left:14%;top:30%""><img src=""visual/jar.png"" width=""300""></div><div style=""border: 3px solid #000000; position: fixed;left:64%;top:30%""><img src=""visual/whale.png"" width=""300""></div>","arrowdown","","true","experiment","visual/jar.png","visual/whale.png","ArrowDown","NR","","","","","","","","","","","","","","","","","","","","","","","","","","","",""
"","","","","","html-keyboard-response","134","426048","0.0-6.0-0.39","A2OVWCQ4B9AHFY","2022-05-27T01:29:15.737Z","rhyme-phon_sim-same_different-task_switching","","null","rhyme","<div style=""font-size:60px;"">+</div>","null","250","","","","","","","","","","","","","","","","","","","","","","","","","","","","","","","","","",""
"","","","","","html-keyboard-response","135","426566","0.0-6.0-1.39","A2OVWCQ4B9AHFY","2022-05-27T01:29:15.737Z","rhyme-phon_sim-same_different-task_switching","","null","rhyme","<img src=""square.png"" width=""306"" height=""306"" style=""position: fixed;left:14%;top:30%""><img src=""square.png"" width=""306"" height=""306"" style=""position: fixed;left:64%;top:30%"">","null","","","","","","","","","","","","","","","","","","","","","","","","","","","","","","","","","","",""
"","","","","","html-keyboard-response","136","428676","0.0-6.0-2.39","A2OVWCQ4B9AHFY","2022-05-27T01:29:15.737Z","rhyme-phon_sim-same_different-task_switching","","2106.199999999255","rhyme","<div style=""border: 3px solid #000000; position: fixed;left:14%;top:30%""><img src=""visual/chain.png"" width=""300""></div><div style=""border: 3px solid #000000; position: fixed;left:64%;top:30%""><img src=""visual/brain.png"" width=""300""></div>","arrowup","","true","experiment","visual/chain.png","visual/brain.png","ArrowUp","ortho","","","","","","","","","","","","","","","","","","","","","","","","","","","",""
"","","","","","html-keyboard-response","137","429444","0.0-6.0-0.40","A2OVWCQ4B9AHFY","2022-05-27T01:29:15.737Z","rhyme-phon_sim-same_different-task_switching","","null","rhyme","<div style=""font-size:60px;"">+</div>","null","750","","","","","","","","","","","","","","","","","","","","","","","","","","","","","","","","","",""
"","","","","","html-keyboard-response","138","429962","0.0-6.0-1.40","A2OVWCQ4B9AHFY","2022-05-27T01:29:15.737Z","rhyme-phon_sim-same_different-task_switching","","null","rhyme","<img src=""square.png"" width=""306"" height=""306"" style=""position: fixed;left:14%;top:30%""><img src=""square.png"" width=""306"" height=""306"" style=""position: fixed;left:64%;top:30%"">","null","","","","","","","","","","","","","","","","","","","","","","","","","","","","","","","","","","",""
"","","","","","html-keyboard-response","139","432982","0.0-6.0-2.40","A2OVWCQ4B9AHFY","2022-05-27T01:29:15.737Z","rhyme-phon_sim-same_different-task_switching","","3015.60000000149","rhyme","<div style=""border: 3px solid #000000; position: fixed;left:14%;top:30%""><img src=""visual/cab.png"" width=""300""></div><div style=""border: 3px solid #000000; position: fixed;left:64%;top:30%""><img src=""visual/crab.png"" width=""300""></div>","arrowup","","true","experiment","visual/cab.png","visual/crab.png","ArrowUp","ortho","","","","","","","","","","","","","","","","","","","","","","","","","","","",""
"","","","","","html-keyboard-response","140","433490","0.0-6.0-0.41","A2OVWCQ4B9AHFY","2022-05-27T01:29:15.737Z","rhyme-phon_sim-same_different-task_switching","","null","rhyme","<div style=""font-size:60px;"">+</div>","null","500","","","","","","","","","","","","","","","","","","","","","","","","","","","","","","","","","",""
"","","","","","html-keyboard-response","141","434009","0.0-6.0-1.41","A2OVWCQ4B9AHFY","2022-05-27T01:29:15.737Z","rhyme-phon_sim-same_different-task_switching","","null","rhyme","<img src=""square.png"" width=""306"" height=""306"" style=""position: fixed;left:14%;top:30%""><img src=""square.png"" width=""306"" height=""306"" style=""position: fixed;left:64%;top:30%"">","null","","","","","","","","","","","","","","","","","","","","","","","","","","","","","","","","","","",""
"","","","","","html-keyboard-response","142","435733","0.0-6.0-2.41","A2OVWCQ4B9AHFY","2022-05-27T01:29:15.737Z","rhyme-phon_sim-same_different-task_switching","","1722","rhyme","<div style=""border: 3px solid #000000; position: fixed;left:14%;top:30%""><img src=""visual/fan.png"" width=""300""></div><div style=""border: 3px solid #000000; position: fixed;left:64%;top:30%""><img src=""visual/man.png"" width=""300""></div>","arrowdown","","false","experiment","visual/fan.png","visual/man.png","ArrowUp","ortho","","","","","","","","","","","","","","","","","","","","","","","","","","","",""
"","","","","","html-keyboard-response","143","436493","0.0-6.0-0.42","A2OVWCQ4B9AHFY","2022-05-27T01:29:15.737Z","rhyme-phon_sim-same_different-task_switching","","null","rhyme","<div style=""font-size:60px;"">+</div>","null","750","","","","","","","","","","","","","","","","","","","","","","","","","","","","","","","","","",""
"","","","","","html-keyboard-response","144","437008","0.0-6.0-1.42","A2OVWCQ4B9AHFY","2022-05-27T01:29:15.737Z","rhyme-phon_sim-same_different-task_switching","","null","rhyme","<img src=""square.png"" width=""306"" height=""306"" style=""position: fixed;left:14%;top:30%""><img src=""square.png"" width=""306"" height=""306"" style=""position: fixed;left:64%;top:30%"">","null","","","","","","","","","","","","","","","","","","","","","","","","","","","","","","","","","","",""
"","","","","","html-keyboard-response","145","439144","0.0-6.0-2.42","A2OVWCQ4B9AHFY","2022-05-27T01:29:15.737Z","rhyme-phon_sim-same_different-task_switching","","2131.39999999851","rhyme","<div style=""border: 3px solid #000000; position: fixed;left:14%;top:30%""><img src=""visual/king.png"" width=""300""></div><div style=""border: 3px solid #000000; position: fixed;left:64%;top:30%""><img src=""visual/cab.png"" width=""300""></div>","arrowdown","","true","experiment","visual/king.png","visual/cab.png","ArrowDown","NR","","","","","","","","","","","","","","","","","","","","","","","","","","","",""
"","","","","","html-keyboard-response","146","439413","0.0-6.0-0.43","A2OVWCQ4B9AHFY","2022-05-27T01:29:15.737Z","rhyme-phon_sim-same_different-task_switching","","null","rhyme","<div style=""font-size:60px;"">+</div>","null","250","","","","","","","","","","","","","","","","","","","","","","","","","","","","","","","","","",""
"","","","","","html-keyboard-response","147","439918","0.0-6.0-1.43","A2OVWCQ4B9AHFY","2022-05-27T01:29:15.737Z","rhyme-phon_sim-same_different-task_switching","","null","rhyme","<img src=""square.png"" width=""306"" height=""306"" style=""position: fixed;left:14%;top:30%""><img src=""square.png"" width=""306"" height=""306"" style=""position: fixed;left:64%;top:30%"">","null","","","","","","","","","","","","","","","","","","","","","","","","","","","","","","","","","","",""
"","","","","","html-keyboard-response","148","442747","0.0-6.0-2.43","A2OVWCQ4B9AHFY","2022-05-27T01:29:15.737Z","rhyme-phon_sim-same_different-task_switching","","2824.300000000745","rhyme","<div style=""border: 3px solid #000000; position: fixed;left:14%;top:30%""><img src=""visual/drawer.png"" width=""300""></div><div style=""border: 3px solid #000000; position: fixed;left:64%;top:30%""><img src=""visual/chair.png"" width=""300""></div>","arrowdown","","true","experiment","visual/drawer.png","visual/chair.png","ArrowDown","NR","","","","","","","","","","","","","","","","","","","","","","","","","","","",""
"","","","","","html-keyboard-response","149","443506","0.0-6.0-0.44","A2OVWCQ4B9AHFY","2022-05-27T01:29:15.737Z","rhyme-phon_sim-same_different-task_switching","","null","rhyme","<div style=""font-size:60px;"">+</div>","null","750","","","","","","","","","","","","","","","","","","","","","","","","","","","","","","","","","",""
"","","","","","html-keyboard-response","150","444023","0.0-6.0-1.44","A2OVWCQ4B9AHFY","2022-05-27T01:29:15.737Z","rhyme-phon_sim-same_different-task_switching","","null","rhyme","<img src=""square.png"" width=""306"" height=""306"" style=""position: fixed;left:14%;top:30%""><img src=""square.png"" width=""306"" height=""306"" style=""position: fixed;left:64%;top:30%"">","null","","","","","","","","","","","","","","","","","","","","","","","","","","","","","","","","","","",""
"","","","","","html-keyboard-response","151","445652","0.0-6.0-2.44","A2OVWCQ4B9AHFY","2022-05-27T01:29:15.737Z","rhyme-phon_sim-same_different-task_switching","","1625.800000000745","rhyme","<div style=""border: 3px solid #000000; position: fixed;left:14%;top:30%""><img src=""visual/shark.png"" width=""300""></div><div style=""border: 3px solid #000000; position: fixed;left:64%;top:30%""><img src=""visual/park.png"" width=""300""></div>","arrowdown","","false","experiment","visual/shark.png","visual/park.png","ArrowUp","ortho","","","","","","","","","","","","","","","","","","","","","","","","","","","",""
"","","","","","html-keyboard-response","152","446416","0.0-6.0-0.45","A2OVWCQ4B9AHFY","2022-05-27T01:29:15.737Z","rhyme-phon_sim-same_different-task_switching","","null","rhyme","<div style=""font-size:60px;"">+</div>","null","750","","","","","","","","","","","","","","","","","","","","","","","","","","","","","","","","","",""
"","","","","","html-keyboard-response","153","446934","0.0-6.0-1.45","A2OVWCQ4B9AHFY","2022-05-27T01:29:15.737Z","rhyme-phon_sim-same_different-task_switching","","null","rhyme","<img src=""square.png"" width=""306"" height=""306"" style=""position: fixed;left:14%;top:30%""><img src=""square.png"" width=""306"" height=""306"" style=""position: fixed;left:64%;top:30%"">","null","","","","","","","","","","","","","","","","","","","","","","","","","","","","","","","","","","",""
"","","","","","html-keyboard-response","154","448617","0.0-6.0-2.45","A2OVWCQ4B9AHFY","2022-05-27T01:29:15.737Z","rhyme-phon_sim-same_different-task_switching","","1680.3999999985099","rhyme","<div style=""border: 3px solid #000000; position: fixed;left:14%;top:30%""><img src=""visual/spoon.png"" width=""300""></div><div style=""border: 3px solid #000000; position: fixed;left:64%;top:30%""><img src=""visual/moon.png"" width=""300""></div>","arrowup","","true","experiment","visual/spoon.png","visual/moon.png","ArrowUp","ortho","","","","","","","","","","","","","","","","","","","","","","","","","","","",""
"","","","","","html-keyboard-response","155","449382","0.0-6.0-0.46","A2OVWCQ4B9AHFY","2022-05-27T01:29:15.737Z","rhyme-phon_sim-same_different-task_switching","","null","rhyme","<div style=""font-size:60px;"">+</div>","null","750","","","","","","","","","","","","","","","","","","","","","","","","","","","","","","","","","",""
"","","","","","html-keyboard-response","156","449903","0.0-6.0-1.46","A2OVWCQ4B9AHFY","2022-05-27T01:29:15.737Z","rhyme-phon_sim-same_different-task_switching","","null","rhyme","<img src=""square.png"" width=""306"" height=""306"" style=""position: fixed;left:14%;top:30%""><img src=""square.png"" width=""306"" height=""306"" style=""position: fixed;left:64%;top:30%"">","null","","","","","","","","","","","","","","","","","","","","","","","","","","","","","","","","","","",""
"","","","","","html-keyboard-response","157","453258","0.0-6.0-2.46","A2OVWCQ4B9AHFY","2022-05-27T01:29:15.737Z","rhyme-phon_sim-same_different-task_switching","","3350.699999999255","rhyme","<div style=""border: 3px solid #000000; position: fixed;left:14%;top:30%""><img src=""visual/bin.png"" width=""300""></div><div style=""border: 3px solid #000000; position: fixed;left:64%;top:30%""><img src=""visual/chin.png"" width=""300""></div>","arrowdown","","false","experiment","visual/bin.png","visual/chin.png","ArrowUp","ortho","","","","","","","","","","","","","","","","","","","","","","","","","","","",""
"","","","","","html-keyboard-response","158","454265","0.0-6.0-0.47","A2OVWCQ4B9AHFY","2022-05-27T01:29:15.737Z","rhyme-phon_sim-same_different-task_switching","","null","rhyme","<div style=""font-size:60px;"">+</div>","null","1000","","","","","","","","","","","","","","","","","","","","","","","","","","","","","","","","","",""
"","","","","","html-keyboard-response","159","454783","0.0-6.0-1.47","A2OVWCQ4B9AHFY","2022-05-27T01:29:15.737Z","rhyme-phon_sim-same_different-task_switching","","null","rhyme","<img src=""square.png"" width=""306"" height=""306"" style=""position: fixed;left:14%;top:30%""><img src=""square.png"" width=""306"" height=""306"" style=""position: fixed;left:64%;top:30%"">","null","","","","","","","","","","","","","","","","","","","","","","","","","","","","","","","","","","",""
"","","","","","html-keyboard-response","160","456625","0.0-6.0-2.47","A2OVWCQ4B9AHFY","2022-05-27T01:29:15.737Z","rhyme-phon_sim-same_different-task_switching","","1836.0999999977648","rhyme","<div style=""border: 3px solid #000000; position: fixed;left:14%;top:30%""><img src=""visual/train.png"" width=""300""></div><div style=""border: 3px solid #000000; position: fixed;left:64%;top:30%""><img src=""visual/crane.png"" width=""300""></div>","arrowdown","","false","experiment","visual/train.png","visual/crane.png","ArrowUp","non-ortho","","","","","","","","","","","","","","","","","","","","","","","","","","","",""
"","","","","","html-keyboard-response","161","457384","0.0-6.0-0.48","A2OVWCQ4B9AHFY","2022-05-27T01:29:15.737Z","rhyme-phon_sim-same_different-task_switching","","null","rhyme","<div style=""font-size:60px;"">+</div>","null","750","","","","","","","","","","","","","","","","","","","","","","","","","","","","","","","","","",""
"","","","","","html-keyboard-response","162","457901","0.0-6.0-1.48","A2OVWCQ4B9AHFY","2022-05-27T01:29:15.737Z","rhyme-phon_sim-same_different-task_switching","","null","rhyme","<img src=""square.png"" width=""306"" height=""306"" style=""position: fixed;left:14%;top:30%""><img src=""square.png"" width=""306"" height=""306"" style=""position: fixed;left:64%;top:30%"">","null","","","","","","","","","","","","","","","","","","","","","","","","","","","","","","","","","","",""
"","","","","","html-keyboard-response","163","461758","0.0-6.0-2.48","A2OVWCQ4B9AHFY","2022-05-27T01:29:15.737Z","rhyme-phon_sim-same_different-task_switching","","3853.5","rhyme","<div style=""border: 3px solid #000000; position: fixed;left:14%;top:30%""><img src=""visual/screw.png"" width=""300""></div><div style=""border: 3px solid #000000; position: fixed;left:64%;top:30%""><img src=""visual/shoe.png"" width=""300""></div>","arrowup","","true","experiment","visual/screw.png","visual/shoe.png","ArrowUp","non-ortho","","","","","","","","","","","","","","","","","","","","","","","","","","","",""
"","","","","","html-keyboard-response","164","462016","0.0-6.0-0.49","A2OVWCQ4B9AHFY","2022-05-27T01:29:15.737Z","rhyme-phon_sim-same_different-task_switching","","null","rhyme","<div style=""font-size:60px;"">+</div>","null","250","","","","","","","","","","","","","","","","","","","","","","","","","","","","","","","","","",""
"","","","","","html-keyboard-response","165","462536","0.0-6.0-1.49","A2OVWCQ4B9AHFY","2022-05-27T01:29:15.737Z","rhyme-phon_sim-same_different-task_switching","","null","rhyme","<img src=""square.png"" width=""306"" height=""306"" style=""position: fixed;left:14%;top:30%""><img src=""square.png"" width=""306"" height=""306"" style=""position: fixed;left:64%;top:30%"">","null","","","","","","","","","","","","","","","","","","","","","","","","","","","","","","","","","","",""
"","","","","","html-keyboard-response","166","465167","0.0-6.0-2.49","A2OVWCQ4B9AHFY","2022-05-27T01:29:15.737Z","rhyme-phon_sim-same_different-task_switching","","2626.60000000149","rhyme","<div style=""border: 3px solid #000000; position: fixed;left:14%;top:30%""><img src=""visual/pope.png"" width=""300""></div><div style=""border: 3px solid #000000; position: fixed;left:64%;top:30%""><img src=""visual/soap.png"" width=""300""></div>","arrowdown","","false","experiment","visual/pope.png","visual/soap.png","ArrowUp","non-ortho","","","","","","","","","","","","","","","","","","","","","","","","","","","",""
"","","","","","html-keyboard-response","167","465933","0.0-6.0-0.50","A2OVWCQ4B9AHFY","2022-05-27T01:29:15.737Z","rhyme-phon_sim-same_different-task_switching","","null","rhyme","<div style=""font-size:60px;"">+</div>","null","750","","","","","","","","","","","","","","","","","","","","","","","","","","","","","","","","","",""
"","","","","","html-keyboard-response","168","466450","0.0-6.0-1.50","A2OVWCQ4B9AHFY","2022-05-27T01:29:15.737Z","rhyme-phon_sim-same_different-task_switching","","null","rhyme","<img src=""square.png"" width=""306"" height=""306"" style=""position: fixed;left:14%;top:30%""><img src=""square.png"" width=""306"" height=""306"" style=""position: fixed;left:64%;top:30%"">","null","","","","","","","","","","","","","","","","","","","","","","","","","","","","","","","","","","",""
"","","","","","html-keyboard-response","169","468497","0.0-6.0-2.50","A2OVWCQ4B9AHFY","2022-05-27T01:29:15.737Z","rhyme-phon_sim-same_different-task_switching","","2043.1000000014901","rhyme","<div style=""border: 3px solid #000000; position: fixed;left:14%;top:30%""><img src=""visual/rose.png"" width=""300""></div><div style=""border: 3px solid #000000; position: fixed;left:64%;top:30%""><img src=""visual/nose.png"" width=""300""></div>","arrowup","","true","experiment","visual/rose.png","visual/nose.png","ArrowUp","ortho","","","","","","","","","","","","","","","","","","","","","","","","","","","",""
"","","","","","html-keyboard-response","170","469511","0.0-6.0-0.51","A2OVWCQ4B9AHFY","2022-05-27T01:29:15.737Z","rhyme-phon_sim-same_different-task_switching","","null","rhyme","<div style=""font-size:60px;"">+</div>","null","1000","","","","","","","","","","","","","","","","","","","","","","","","","","","","","","","","","",""
"","","","","","html-keyboard-response","171","470024","0.0-6.0-1.51","A2OVWCQ4B9AHFY","2022-05-27T01:29:15.737Z","rhyme-phon_sim-same_different-task_switching","","null","rhyme","<img src=""square.png"" width=""306"" height=""306"" style=""position: fixed;left:14%;top:30%""><img src=""square.png"" width=""306"" height=""306"" style=""position: fixed;left:64%;top:30%"">","null","","","","","","","","","","","","","","","","","","","","","","","","","","","","","","","","","","",""
"","","","","","html-keyboard-response","172","471711","0.0-6.0-2.51","A2OVWCQ4B9AHFY","2022-05-27T01:29:15.737Z","rhyme-phon_sim-same_different-task_switching","","1684.300000000745","rhyme","<div style=""border: 3px solid #000000; position: fixed;left:14%;top:30%""><img src=""visual/well.png"" width=""300""></div><div style=""border: 3px solid #000000; position: fixed;left:64%;top:30%""><img src=""visual/rose.png"" width=""300""></div>","arrowdown","","true","experiment","visual/well.png","visual/rose.png","ArrowDown","NR","","","","","","","","","","","","","","","","","","","","","","","","","","","",""
"","","","","","html-keyboard-response","173","471965","0.0-6.0-0.52","A2OVWCQ4B9AHFY","2022-05-27T01:29:15.737Z","rhyme-phon_sim-same_different-task_switching","","null","rhyme","<div style=""font-size:60px;"">+</div>","null","250","","","","","","","","","","","","","","","","","","","","","","","","","","","","","","","","","",""
"","","","","","html-keyboard-response","174","472467","0.0-6.0-1.52","A2OVWCQ4B9AHFY","2022-05-27T01:29:15.737Z","rhyme-phon_sim-same_different-task_switching","","null","rhyme","<img src=""square.png"" width=""306"" height=""306"" style=""position: fixed;left:14%;top:30%""><img src=""square.png"" width=""306"" height=""306"" style=""position: fixed;left:64%;top:30%"">","null","","","","","","","","","","","","","","","","","","","","","","","","","","","","","","","","","","",""
"","","","","","html-keyboard-response","175","474187","0.0-6.0-2.52","A2OVWCQ4B9AHFY","2022-05-27T01:29:15.737Z","rhyme-phon_sim-same_different-task_switching","","1717.4000000022352","rhyme","<div style=""border: 3px solid #000000; position: fixed;left:14%;top:30%""><img src=""visual/snail.png"" width=""300""></div><div style=""border: 3px solid #000000; position: fixed;left:64%;top:30%""><img src=""visual/whale.png"" width=""300""></div>","arrowdown","","false","experiment","visual/snail.png","visual/whale.png","ArrowUp","non-ortho","","","","","","","","","","","","","","","","","","","","","","","","","","","",""
"","","","","","html-keyboard-response","176","474705","0.0-6.0-0.53","A2OVWCQ4B9AHFY","2022-05-27T01:29:15.737Z","rhyme-phon_sim-same_different-task_switching","","null","rhyme","<div style=""font-size:60px;"">+</div>","null","500","","","","","","","","","","","","","","","","","","","","","","","","","","","","","","","","","",""
"","","","","","html-keyboard-response","177","475220","0.0-6.0-1.53","A2OVWCQ4B9AHFY","2022-05-27T01:29:15.737Z","rhyme-phon_sim-same_different-task_switching","","null","rhyme","<img src=""square.png"" width=""306"" height=""306"" style=""position: fixed;left:14%;top:30%""><img src=""square.png"" width=""306"" height=""306"" style=""position: fixed;left:64%;top:30%"">","null","","","","","","","","","","","","","","","","","","","","","","","","","","","","","","","","","","",""
"","","","","","html-keyboard-response","178","477258","0.0-6.0-2.53","A2OVWCQ4B9AHFY","2022-05-27T01:29:15.737Z","rhyme-phon_sim-same_different-task_switching","","2035.800000000745","rhyme","<div style=""border: 3px solid #000000; position: fixed;left:14%;top:30%""><img src=""visual/plane.png"" width=""300""></div><div style=""border: 3px solid #000000; position: fixed;left:64%;top:30%""><img src=""visual/train.png"" width=""300""></div>","arrowdown","","false","experiment","visual/plane.png","visual/train.png","ArrowUp","non-ortho","","","","","","","","","","","","","","","","","","","","","","","","","","","",""
"","","","","","html-keyboard-response","179","478020","0.0-6.0-0.54","A2OVWCQ4B9AHFY","2022-05-27T01:29:15.737Z","rhyme-phon_sim-same_different-task_switching","","null","rhyme","<div style=""font-size:60px;"">+</div>","null","750","","","","","","","","","","","","","","","","","","","","","","","","","","","","","","","","","",""
"","","","","","html-keyboard-response","180","478538","0.0-6.0-1.54","A2OVWCQ4B9AHFY","2022-05-27T01:29:15.737Z","rhyme-phon_sim-same_different-task_switching","","null","rhyme","<img src=""square.png"" width=""306"" height=""306"" style=""position: fixed;left:14%;top:30%""><img src=""square.png"" width=""306"" height=""306"" style=""position: fixed;left:64%;top:30%"">","null","","","","","","","","","","","","","","","","","","","","","","","","","","","","","","","","","","",""
"","","","","","html-keyboard-response","181","481411","0.0-6.0-2.54","A2OVWCQ4B9AHFY","2022-05-27T01:29:15.737Z","rhyme-phon_sim-same_different-task_switching","","2871.199999999255","rhyme","<div style=""border: 3px solid #000000; position: fixed;left:14%;top:30%""><img src=""visual/king.png"" width=""300""></div><div style=""border: 3px solid #000000; position: fixed;left:64%;top:30%""><img src=""visual/ring.png"" width=""300""></div>","arrowup","","true","experiment","visual/king.png","visual/ring.png","ArrowUp","ortho","","","","","","","","","","","","","","","","","","","","","","","","","","","",""
"","","","","","html-keyboard-response","182","482166","0.0-6.0-0.55","A2OVWCQ4B9AHFY","2022-05-27T01:29:15.737Z","rhyme-phon_sim-same_different-task_switching","","null","rhyme","<div style=""font-size:60px;"">+</div>","null","750","","","","","","","","","","","","","","","","","","","","","","","","","","","","","","","","","",""
"","","","","","html-keyboard-response","183","482670","0.0-6.0-1.55","A2OVWCQ4B9AHFY","2022-05-27T01:29:15.737Z","rhyme-phon_sim-same_different-task_switching","","null","rhyme","<img src=""square.png"" width=""306"" height=""306"" style=""position: fixed;left:14%;top:30%""><img src=""square.png"" width=""306"" height=""306"" style=""position: fixed;left:64%;top:30%"">","null","","","","","","","","","","","","","","","","","","","","","","","","","","","","","","","","","","",""
"","","","","","html-keyboard-response","184","484097","0.0-6.0-2.55","A2OVWCQ4B9AHFY","2022-05-27T01:29:15.737Z","rhyme-phon_sim-same_different-task_switching","","1422","rhyme","<div style=""border: 3px solid #000000; position: fixed;left:14%;top:30%""><img src=""visual/chair.png"" width=""300""></div><div style=""border: 3px solid #000000; position: fixed;left:64%;top:30%""><img src=""visual/pear.png"" width=""300""></div>","arrowup","","true","experiment","visual/chair.png","visual/pear.png","ArrowUp","non-ortho","","","","","","","","","","","","","","","","","","","","","","","","","","","",""
"","","","","","html-keyboard-response","185","484865","0.0-6.0-0.56","A2OVWCQ4B9AHFY","2022-05-27T01:29:15.737Z","rhyme-phon_sim-same_different-task_switching","","null","rhyme","<div style=""font-size:60px;"">+</div>","null","750","","","","","","","","","","","","","","","","","","","","","","","","","","","","","","","","","",""
"","","","","","html-keyboard-response","186","485378","0.0-6.0-1.56","A2OVWCQ4B9AHFY","2022-05-27T01:29:15.737Z","rhyme-phon_sim-same_different-task_switching","","null","rhyme","<img src=""square.png"" width=""306"" height=""306"" style=""position: fixed;left:14%;top:30%""><img src=""square.png"" width=""306"" height=""306"" style=""position: fixed;left:64%;top:30%"">","null","","","","","","","","","","","","","","","","","","","","","","","","","","","","","","","","","","",""
"","","","","","html-keyboard-response","187","487718","0.0-6.0-2.56","A2OVWCQ4B9AHFY","2022-05-27T01:29:15.737Z","rhyme-phon_sim-same_different-task_switching","","2336.39999999851","rhyme","<div style=""border: 3px solid #000000; position: fixed;left:14%;top:30%""><img src=""visual/wave.png"" width=""300""></div><div style=""border: 3px solid #000000; position: fixed;left:64%;top:30%""><img src=""visual/cave.png"" width=""300""></div>","arrowdown","","false","experiment","visual/wave.png","visual/cave.png","ArrowUp","ortho","","","","","","","","","","","","","","","","","","","","","","","","","","","",""
"","","","","","html-keyboard-response","188","488724","0.0-6.0-0.57","A2OVWCQ4B9AHFY","2022-05-27T01:29:15.737Z","rhyme-phon_sim-same_different-task_switching","","null","rhyme","<div style=""font-size:60px;"">+</div>","null","1000","","","","","","","","","","","","","","","","","","","","","","","","","","","","","","","","","",""
"","","","","","html-keyboard-response","189","489245","0.0-6.0-1.57","A2OVWCQ4B9AHFY","2022-05-27T01:29:15.737Z","rhyme-phon_sim-same_different-task_switching","","null","rhyme","<img src=""square.png"" width=""306"" height=""306"" style=""position: fixed;left:14%;top:30%""><img src=""square.png"" width=""306"" height=""306"" style=""position: fixed;left:64%;top:30%"">","null","","","","","","","","","","","","","","","","","","","","","","","","","","","","","","","","","","",""
"","","","","","html-keyboard-response","190","491524","0.0-6.0-2.57","A2OVWCQ4B9AHFY","2022-05-27T01:29:15.737Z","rhyme-phon_sim-same_different-task_switching","","2263.699999999255","rhyme","<div style=""border: 3px solid #000000; position: fixed;left:14%;top:30%""><img src=""visual/drawer.png"" width=""300""></div><div style=""border: 3px solid #000000; position: fixed;left:64%;top:30%""><img src=""visual/door.png"" width=""300""></div>","arrowdown","","false","experiment","visual/drawer.png","visual/door.png","ArrowUp","non-ortho","","","","","","","","","","","","","","","","","","","","","","","","","","","",""
"","","","","","html-keyboard-response","191","492541","0.0-6.0-0.58","A2OVWCQ4B9AHFY","2022-05-27T01:29:15.737Z","rhyme-phon_sim-same_different-task_switching","","null","rhyme","<div style=""font-size:60px;"">+</div>","null","1000","","","","","","","","","","","","","","","","","","","","","","","","","","","","","","","","","",""
"","","","","","html-keyboard-response","192","493058","0.0-6.0-1.58","A2OVWCQ4B9AHFY","2022-05-27T01:29:15.737Z","rhyme-phon_sim-same_different-task_switching","","null","rhyme","<img src=""square.png"" width=""306"" height=""306"" style=""position: fixed;left:14%;top:30%""><img src=""square.png"" width=""306"" height=""306"" style=""position: fixed;left:64%;top:30%"">","null","","","","","","","","","","","","","","","","","","","","","","","","","","","","","","","","","","",""
"","","","","","html-keyboard-response","193","496349","0.0-6.0-2.58","A2OVWCQ4B9AHFY","2022-05-27T01:29:15.737Z","rhyme-phon_sim-same_different-task_switching","","3288.60000000149","rhyme","<div style=""border: 3px solid #000000; position: fixed;left:14%;top:30%""><img src=""visual/star.png"" width=""300""></div><div style=""border: 3px solid #000000; position: fixed;left:64%;top:30%""><img src=""visual/jar.png"" width=""300""></div>","arrowup","","true","experiment","visual/star.png","visual/jar.png","ArrowUp","ortho","","","","","","","","","","","","","","","","","","","","","","","","","","","",""
"","","","","","html-keyboard-response","194","496611","0.0-6.0-0.59","A2OVWCQ4B9AHFY","2022-05-27T01:29:15.737Z","rhyme-phon_sim-same_different-task_switching","","null","rhyme","<div style=""font-size:60px;"">+</div>","null","250","","","","","","","","","","","","","","","","","","","","","","","","","","","","","","","","","",""
"","","","","","html-keyboard-response","195","497128","0.0-6.0-1.59","A2OVWCQ4B9AHFY","2022-05-27T01:29:15.737Z","rhyme-phon_sim-same_different-task_switching","","null","rhyme","<img src=""square.png"" width=""306"" height=""306"" style=""position: fixed;left:14%;top:30%""><img src=""square.png"" width=""306"" height=""306"" style=""position: fixed;left:64%;top:30%"">","null","","","","","","","","","","","","","","","","","","","","","","","","","","","","","","","","","","",""
"","","","","","html-keyboard-response","196","499435","0.0-6.0-2.59","A2OVWCQ4B9AHFY","2022-05-27T01:29:15.737Z","rhyme-phon_sim-same_different-task_switching","","2302.800000000745","rhyme","<div style=""border: 3px solid #000000; position: fixed;left:14%;top:30%""><img src=""visual/egg.png"" width=""300""></div><div style=""border: 3px solid #000000; position: fixed;left:64%;top:30%""><img src=""visual/ring.png"" width=""300""></div>","arrowdown","","true","experiment","visual/egg.png","visual/ring.png","ArrowDown","NR","","","","","","","","","","","","","","","","","","","","","","","","","","","",""
"","","","","","survey-multi-choice","197","1309584","0.0-7.0","A2OVWCQ4B9AHFY","2022-05-27T01:29:15.737Z","rhyme-phon_sim-same_different-task_switching","","810145.6000000015","rhyme","","{""Q0"":""No""}","","","","","","","","[0]","No","","","","","","","","","","","","","","","","","","","","","","","","","",""
"","","","","","survey-text","198","1347819","0.0-8.0","A2OVWCQ4B9AHFY","2022-05-27T01:29:15.737Z","rhyme-phon_sim-same_different-task_switching","","38216.79999999702","rhyme","","{""Q0"":""I said it in my head \""aloud\"".""}","","","","","","","","","","I said it in my head ""aloud"".","","","","","","","","","","","","","","","","","","","","","","","","",""
"","","","","","instructions","199","1349880","0.0-9.0","A2OVWCQ4B9AHFY","2022-05-27T01:29:15.737Z","rhyme-phon_sim-same_different-task_switching","[{""page_index"":0,""viewing_time"":2058}]","2059","rhyme","","","","","","","","","","","","","","","","","","","","","","","","","","","","","","","","","","","","",""
"","","","","","instructions","200","1357015","0.0-10.0","A2OVWCQ4B9AHFY","2022-05-27T01:29:15.737Z","rhyme-phon_sim-same_different-task_switching","[{""page_index"":0,""viewing_time"":7131.199999999255}]","7133.300000000745","phon_sim","","","","","","","","","","","","","","","","","","","","","","","","","","","","","","","","","","","","",""
"","","","","","html-keyboard-response","201","1370021","0.0-11.0-0.0","A2OVWCQ4B9AHFY","2022-05-27T01:29:15.737Z","rhyme-phon_sim-same_different-task_switching","","null","phon_sim","<div style=""display:grid""><h1 id=""word_1"" style=""grid-column:1; grid-row:1"">mad</h1><h1 id=""word_2"" style=""visibility:hidden;grid-column:1; grid-row:1"">man</h1><h1 id=""word_3"" style=""visibility:hidden;grid-column:1; grid-row:1"">map</h1><h1 id=""word_4"" style=""visibility:hidden;grid-column:1; grid-row:1"">mat</h1><h1 id=""word_5"" style=""visibility:hidden;grid-column:1; grid-row:1"">max</h1></div>","null","","","training","","","","","","","","mad","man","map","mat","max","training","","","","","","","","","","","","","","","","","","",""
"","","","","","survey-text","202","1377923","0.0-11.0-1.0","A2OVWCQ4B9AHFY","2022-05-27T01:29:15.737Z","rhyme-phon_sim-same_different-task_switching","","7895.699999999255","phon_sim","","{""position_1"":""man"",""position_2"":""man"",""position_3"":""map"",""position_4"":""mad"",""position_5"":""mat""}","","","training","","","","","","","","","","","","","","man","man","map","mad","mat","","","","","","","","","","","","","",""
"","","","","","html-keyboard-response","203","1382938","0.0-11.0-2.0","A2OVWCQ4B9AHFY","2022-05-27T01:29:15.737Z","rhyme-phon_sim-same_different-task_switching","","null","phon_sim","<h1 id=""word_1"">mad</h1><h1 id=""word_2"">man</h1><h1 id=""word_3"">map</h1><h1 id=""word_4"">mat</h1><h1 id=""word_5"">max</h1>","null","","","","","","","","","","","","","","","","","","","","","","","","","","","","","","","","","","",""
"","","","","","html-keyboard-response","204","1395945","0.0-11.0-0.1","A2OVWCQ4B9AHFY","2022-05-27T01:29:15.737Z","rhyme-phon_sim-same_different-task_switching","","null","phon_sim","<div style=""display:grid""><h1 id=""word_1"" style=""grid-column:1; grid-row:1"">pen</h1><h1 id=""word_2"" style=""visibility:hidden;grid-column:1; grid-row:1"">rig</h1><h1 id=""word_3"" style=""visibility:hidden;grid-column:1; grid-row:1"">day</h1><h1 id=""word_4"" style=""visibility:hidden;grid-column:1; grid-row:1"">bar</h1><h1 id=""word_5"" style=""visibility:hidden;grid-column:1; grid-row:1"">cow</h1></div>","null","","","training","","","","","","","","pen","rig","day","bar","cow","training","","","","","","","","","","","","","","","","","","",""
"","","","","","survey-text","205","1403711","0.0-11.0-1.1","A2OVWCQ4B9AHFY","2022-05-27T01:29:15.737Z","rhyme-phon_sim-same_different-task_switching","","7759.89999999851","phon_sim","","{""position_1"":""pig"",""position_2"":""day"",""position_3"":""bar"",""position_4"":""cow"",""position_5"":""""}","","","training","","","","","","","","","","","","","","pig","day","bar","cow","","","","","","","","","","","","","","",""
"","","","","","html-keyboard-response","206","1408723","0.0-11.0-2.1","A2OVWCQ4B9AHFY","2022-05-27T01:29:15.737Z","rhyme-phon_sim-same_different-task_switching","","null","phon_sim","<h1 id=""word_1"">pen</h1><h1 id=""word_2"">rig</h1><h1 id=""word_3"">day</h1><h1 id=""word_4"">bar</h1><h1 id=""word_5"">cow</h1>","null","","","","","","","","","","","","","","","","","","","","","","","","","","","","","","","","","","",""
"","","","","","instructions","207","1411613","0.0-12.0","A2OVWCQ4B9AHFY","2022-05-27T01:29:15.737Z","rhyme-phon_sim-same_different-task_switching","[{""page_index"":0,""viewing_time"":2888.300000000745}]","2889.5","","","","","","","","","","","","","","","","","","","","","","","","","","","","","","","","","","","","","",""
"","","","","","html-keyboard-response","208","1424623","0.0-13.0-0.0","A2OVWCQ4B9AHFY","2022-05-27T01:29:15.737Z","rhyme-phon_sim-same_different-task_switching","","null","phon_sim","<div style=""display:grid""><h1 id=""word_1"" style=""grid-column:1; grid-row:1"">bough</h1><h1 id=""word_2"" style=""visibility:hidden;grid-column:1; grid-row:1"">rough</h1><h1 id=""word_3"" style=""visibility:hidden;grid-column:1; grid-row:1"">cough</h1><h1 id=""word_4"" style=""visibility:hidden;grid-column:1; grid-row:1"">through</h1><h1 id=""word_5"" style=""visibility:hidden;grid-column:1; grid-row:1"">dough</h1></div>","null","","","experiment","","","","","","","","bough","rough","cough","through","dough","orthoSet","","","","","","","","","","","","","","","","","","",""
