"success","timeout","failed_images","failed_audio","failed_video","trial_type","trial_index","time_elapsed","internal_node_id","worker_id","start_time","experiment_order","view_history","rt","experiment","stimulus","response","judgment_type","stim_1","stim_2","inverted","answer","true_pos","correct","true_neg","false_neg","false_pos","question_order","talk_out_loud","strategy_free_ans","phase","condition","operation","symbol_cue","trial_no","color_cue","wait_time","image_1","image_2","cor_key","type","word_1","word_2","word_3","word_4","word_5","original_word_set","response_1","response_2","response_3","response_4","response_5"
"true","false","[]","[]","[]","preload","0","5417","0.0-0.0","A2SKY4RRWII0BF","2022-05-18T18:20:43.508Z","same_different-task_switching-rhyme-phon_sim","","","","","","","","","","","","","","","","","","","","","","","","","","","","","","","","","","","","","","","",""
"","","","","","instructions","1","67939","0.0-1.0","A2SKY4RRWII0BF","2022-05-18T18:20:43.508Z","same_different-task_switching-rhyme-phon_sim","[{""page_index"":0,""viewing_time"":62513}]","62514","","","","","","","","","","","","","","","","","","","","","","","","","","","","","","","","","","","","","",""
"true","","","","","fullscreen","2","73778","0.0-2.0","A2SKY4RRWII0BF","2022-05-18T18:20:43.508Z","same_different-task_switching-rhyme-phon_sim","","","","","","","","","","","","","","","","","","","","","","","","","","","","","","","","","","","","","","","",""
"","","","","","instructions","3","119018","0.0-3.0","A2SKY4RRWII0BF","2022-05-18T18:20:43.508Z","same_different-task_switching-rhyme-phon_sim","[{""page_index"":0,""viewing_time"":45236}]","45236","same_different","","","","","","","","","","","","","","","","","","","","","","","","","","","","","","","","","","","","",""
"","","","","","instructions","4","149116","0.0-4.0","A2SKY4RRWII0BF","2022-05-18T18:20:43.508Z","same_different-task_switching-rhyme-phon_sim","[{""page_index"":0,""viewing_time"":30091}]","30091","","","","","","","","","","","","","","","","","","","","","","","","","","","","","","","","","","","","","",""
"","","","","","html-keyboard-response","5","149873","0.0-5.0-0.0","A2SKY4RRWII0BF","2022-05-18T18:20:43.508Z","same_different-task_switching-rhyme-phon_sim","","null","same_different","<div style=""font-size:60px"">+</div>","null","","","","","","","","","","","","","","","","","","","","","","","","","","","","","","","","","","",""
"","","","","","html-keyboard-response","6","153482","0.0-5.0-1.0","A2SKY4RRWII0BF","2022-05-18T18:20:43.508Z","same_different-task_switching-rhyme-phon_sim","","3594","same_different","[""<img src=\""square.png\"" width=\""100\"" height=\""100\"" style=\""position: fixed;left:39%;top:47%\""><img src=\""square.png\"" width=\""100\"" height=\""100\"" style=\""position: fixed;left:54%;top:47%\""><img src=\""square.png\"" width=\""100\"" height=\""100\"" style=\""position: fixed;left:46.5%;top:32%\""><img src=\""square.png\"" width=\""100\"" height=\""100\"" style=\""position: fixed;left:46.5%;top:61%\""><div style=\""font-size:60px; text-align: center;margin-top:45.5%\"">+</div><div id=\""first\"" style=\""position: fixed;visibility: hidden;left:40%;top:48%\""><img src=\""same_diff_imgs/C04.gif\""></div><div id=\""delayed\"" style=\""position: fixed;visibility: hidden;left:48%;top:62%\""><img src=\""same_diff_imgs/C04.gif\""></div>""]","arrowup","identical_image","same_diff_imgs/C04.gif","same_diff_imgs/C04.gif","no","same","1","true","","","","","","","","","","","","","","","","","","","","","","","","","","","",""
"","","","","","html-keyboard-response","7","153488","0.0-5.0-2.0","A2SKY4RRWII0BF","2022-05-18T18:20:43.508Z","same_different-task_switching-rhyme-phon_sim","","null",""," ","null","","","","","","","","","","","","","","","","","","","","","","","","","","","","","","","","","","",""
"","","","","","html-keyboard-response","8","153803","0.0-5.0-3.0","A2SKY4RRWII0BF","2022-05-18T18:20:43.508Z","same_different-task_switching-rhyme-phon_sim","","null","same_different"," ","null","","","","","","","","","","","","","","","","","","","","","","","","","","","","","","","","","","",""
"","","","","","html-keyboard-response","9","154555","0.0-5.0-0.1","A2SKY4RRWII0BF","2022-05-18T18:20:43.508Z","same_different-task_switching-rhyme-phon_sim","","null","same_different","<div style=""font-size:60px"">+</div>","null","","","","","","","","","","","","","","","","","","","","","","","","","","","","","","","","","","",""
"","","","","","html-keyboard-response","10","156499","0.0-5.0-1.1","A2SKY4RRWII0BF","2022-05-18T18:20:43.508Z","same_different-task_switching-rhyme-phon_sim","","1936","same_different","[""<img src=\""square.png\"" width=\""100\"" height=\""100\"" style=\""position: fixed;left:39%;top:47%\""><img src=\""square.png\"" width=\""100\"" height=\""100\"" style=\""position: fixed;left:54%;top:47%\""><img src=\""square.png\"" width=\""100\"" height=\""100\"" style=\""position: fixed;left:46.5%;top:32%\""><img src=\""square.png\"" width=\""100\"" height=\""100\"" style=\""position: fixed;left:46.5%;top:61%\""><div style=\""font-size:60px; text-align: center;margin-top:45.5%\"">+</div><div id=\""first\"" style=\""position: fixed;visibility: hidden;left:48%;top:34%\""><img src=\""same_diff_imgs/D07.gif\""></div><div id=\""delayed\"" style=\""position: fixed;visibility: hidden;left:48%;top:62%\""><img src=\""same_diff_imgs/D07.gif\""></div>""]","arrowup","identical_image","same_diff_imgs/D07.gif","same_diff_imgs/D07.gif","no","same","1","true","","","","","","","","","","","","","","","","","","","","","","","","","","","",""
"","","","","","html-keyboard-response","11","156516","0.0-5.0-2.1","A2SKY4RRWII0BF","2022-05-18T18:20:43.508Z","same_different-task_switching-rhyme-phon_sim","","null",""," ","null","","","","","","","","","","","","","","","","","","","","","","","","","","","","","","","","","","",""
"","","","","","html-keyboard-response","12","156819","0.0-5.0-3.1","A2SKY4RRWII0BF","2022-05-18T18:20:43.508Z","same_different-task_switching-rhyme-phon_sim","","null","same_different"," ","null","","","","","","","","","","","","","","","","","","","","","","","","","","","","","","","","","","",""
"","","","","","html-keyboard-response","13","157572","0.0-5.0-0.2","A2SKY4RRWII0BF","2022-05-18T18:20:43.508Z","same_different-task_switching-rhyme-phon_sim","","null","same_different","<div style=""font-size:60px"">+</div>","null","","","","","","","","","","","","","","","","","","","","","","","","","","","","","","","","","","",""
"","","","","","html-keyboard-response","14","160091","0.0-5.0-1.2","A2SKY4RRWII0BF","2022-05-18T18:20:43.508Z","same_different-task_switching-rhyme-phon_sim","","2513","same_different","[""<img src=\""square.png\"" width=\""100\"" height=\""100\"" style=\""position: fixed;left:39%;top:47%\""><img src=\""square.png\"" width=\""100\"" height=\""100\"" style=\""position: fixed;left:54%;top:47%\""><img src=\""square.png\"" width=\""100\"" height=\""100\"" style=\""position: fixed;left:46.5%;top:32%\""><img src=\""square.png\"" width=\""100\"" height=\""100\"" style=\""position: fixed;left:46.5%;top:61%\""><div style=\""font-size:60px; text-align: center;margin-top:45.5%\"">+</div><div id=\""first\"" style=\""position: fixed;visibility: hidden;left:48%;top:34%\""><img src=\""same_diff_imgs/C09.gif\""></div><div id=\""delayed\"" style=\""position: fixed;visibility: hidden;left:48%;top:62%\""><img src=\""same_diff_imgs/C09.gif\""></div>""]","arrowup","identical_image","same_diff_imgs/C09.gif","same_diff_imgs/C09.gif","no","same","1","true","","","","","","","","","","","","","","","","","","","","","","","","","","","",""
"","","","","","html-keyboard-response","15","160103","0.0-5.0-2.2","A2SKY4RRWII0BF","2022-05-18T18:20:43.508Z","same_different-task_switching-rhyme-phon_sim","","null",""," ","null","","","","","","","","","","","","","","","","","","","","","","","","","","","","","","","","","","",""
"","","","","","html-keyboard-response","16","160403","0.0-5.0-3.2","A2SKY4RRWII0BF","2022-05-18T18:20:43.508Z","same_different-task_switching-rhyme-phon_sim","","null","same_different"," ","null","","","","","","","","","","","","","","","","","","","","","","","","","","","","","","","","","","",""
"","","","","","html-keyboard-response","17","161157","0.0-5.0-0.3","A2SKY4RRWII0BF","2022-05-18T18:20:43.508Z","same_different-task_switching-rhyme-phon_sim","","null","same_different","<div style=""font-size:60px"">+</div>","null","","","","","","","","","","","","","","","","","","","","","","","","","","","","","","","","","","",""
"","","","","","html-keyboard-response","18","163715","0.0-5.0-1.3","A2SKY4RRWII0BF","2022-05-18T18:20:43.508Z","same_different-task_switching-rhyme-phon_sim","","2554","same_different","[""<img src=\""square.png\"" width=\""100\"" height=\""100\"" style=\""position: fixed;left:39%;top:47%\""><img src=\""square.png\"" width=\""100\"" height=\""100\"" style=\""position: fixed;left:54%;top:47%\""><img src=\""square.png\"" width=\""100\"" height=\""100\"" style=\""position: fixed;left:46.5%;top:32%\""><img src=\""square.png\"" width=\""100\"" height=\""100\"" style=\""position: fixed;left:46.5%;top:61%\""><div style=\""font-size:60px; text-align: center;margin-top:45.5%\"">+</div><div id=\""first\"" style=\""position: fixed;visibility: hidden;left:40%;top:48%\""><img src=\""same_diff_imgs/D07.gif\""></div><div id=\""delayed\"" style=\""position: fixed;visibility: hidden;left:48%;top:34%\""><img src=\""same_diff_imgs/D07.gif\""></div>""]","arrowup","identical_image","same_diff_imgs/D07.gif","same_diff_imgs/D07.gif","no","same","1","true","","","","","","","","","","","","","","","","","","","","","","","","","","","",""
"","","","","","html-keyboard-response","19","163719","0.0-5.0-2.3","A2SKY4RRWII0BF","2022-05-18T18:20:43.508Z","same_different-task_switching-rhyme-phon_sim","","null",""," ","null","","","","","","","","","","","","","","","","","","","","","","","","","","","","","","","","","","",""
"","","","","","html-keyboard-response","20","164020","0.0-5.0-3.3","A2SKY4RRWII0BF","2022-05-18T18:20:43.508Z","same_different-task_switching-rhyme-phon_sim","","null","same_different"," ","null","","","","","","","","","","","","","","","","","","","","","","","","","","","","","","","","","","",""
"","","","","","html-keyboard-response","21","164771","0.0-5.0-0.4","A2SKY4RRWII0BF","2022-05-18T18:20:43.508Z","same_different-task_switching-rhyme-phon_sim","","null","same_different","<div style=""font-size:60px"">+</div>","null","","","","","","","","","","","","","","","","","","","","","","","","","","","","","","","","","","",""
"","","","","","html-keyboard-response","22","166725","0.0-5.0-1.4","A2SKY4RRWII0BF","2022-05-18T18:20:43.508Z","same_different-task_switching-rhyme-phon_sim","","1951","same_different","[""<img src=\""square.png\"" width=\""100\"" height=\""100\"" style=\""position: fixed;left:39%;top:47%\""><img src=\""square.png\"" width=\""100\"" height=\""100\"" style=\""position: fixed;left:54%;top:47%\""><img src=\""square.png\"" width=\""100\"" height=\""100\"" style=\""position: fixed;left:46.5%;top:32%\""><img src=\""square.png\"" width=\""100\"" height=\""100\"" style=\""position: fixed;left:46.5%;top:61%\""><div style=\""font-size:60px;text-align: center;margin-top:45.5%\"">+</div><div id=\""first\"" style=\""position: fixed;visibility: hidden;left:40%;top:48%\""><img src=\""same_diff_imgs/C09.gif\"" style=\""-webkit-transform: scaleX(-1);transform: scaleX(-1);\""></div><div id=\""delayed\"" style=\""position: fixed;visibility: hidden;left:55%;top:49%\""><img src=\""same_diff_imgs/C04.gif\"" style=\""-webkit-transform: scaleX(-1);transform: scaleX(-1);\""></div>""]","arrowdown","identical_image","same_diff_imgs/C09.gif","same_diff_imgs/C04.gif","yes","different","","true","1","","","","","","","","","","","","","","","","","","","","","","","","","","",""
"","","","","","html-keyboard-response","23","166728","0.0-5.0-2.4","A2SKY4RRWII0BF","2022-05-18T18:20:43.508Z","same_different-task_switching-rhyme-phon_sim","","null",""," ","null","","","","","","","","","","","","","","","","","","","","","","","","","","","","","","","","","","",""
"","","","","","html-keyboard-response","24","167029","0.0-5.0-3.4","A2SKY4RRWII0BF","2022-05-18T18:20:43.508Z","same_different-task_switching-rhyme-phon_sim","","null","same_different"," ","null","","","","","","","","","","","","","","","","","","","","","","","","","","","","","","","","","","",""
"","","","","","html-keyboard-response","25","167780","0.0-5.0-0.5","A2SKY4RRWII0BF","2022-05-18T18:20:43.508Z","same_different-task_switching-rhyme-phon_sim","","null","same_different","<div style=""font-size:60px"">+</div>","null","","","","","","","","","","","","","","","","","","","","","","","","","","","","","","","","","","",""
"","","","","","html-keyboard-response","26","170091","0.0-5.0-1.5","A2SKY4RRWII0BF","2022-05-18T18:20:43.508Z","same_different-task_switching-rhyme-phon_sim","","2309","same_different","[""<img src=\""square.png\"" width=\""100\"" height=\""100\"" style=\""position: fixed;left:39%;top:47%\""><img src=\""square.png\"" width=\""100\"" height=\""100\"" style=\""position: fixed;left:54%;top:47%\""><img src=\""square.png\"" width=\""100\"" height=\""100\"" style=\""position: fixed;left:46.5%;top:32%\""><img src=\""square.png\"" width=\""100\"" height=\""100\"" style=\""position: fixed;left:46.5%;top:61%\""><div style=\""font-size:60px; text-align: center;margin-top:45.5%\"">+</div><div id=\""first\"" style=\""position: fixed;visibility: hidden;left:48%;top:62%\""><img src=\""same_diff_imgs/D11.gif\""></div><div id=\""delayed\"" style=\""position: fixed;visibility: hidden;left:48%;top:34%\""><img src=\""same_diff_imgs/D11.gif\""></div>""]","arrowup","identical_image","same_diff_imgs/D11.gif","same_diff_imgs/D11.gif","no","same","1","true","","","","","","","","","","","","","","","","","","","","","","","","","","","",""
"","","","","","html-keyboard-response","27","170096","0.0-5.0-2.5","A2SKY4RRWII0BF","2022-05-18T18:20:43.508Z","same_different-task_switching-rhyme-phon_sim","","null",""," ","null","","","","","","","","","","","","","","","","","","","","","","","","","","","","","","","","","","",""
"","","","","","html-keyboard-response","28","170399","0.0-5.0-3.5","A2SKY4RRWII0BF","2022-05-18T18:20:43.508Z","same_different-task_switching-rhyme-phon_sim","","null","same_different"," ","null","","","","","","","","","","","","","","","","","","","","","","","","","","","","","","","","","","",""
"","","","","","html-keyboard-response","29","171150","0.0-5.0-0.6","A2SKY4RRWII0BF","2022-05-18T18:20:43.508Z","same_different-task_switching-rhyme-phon_sim","","null","same_different","<div style=""font-size:60px"">+</div>","null","","","","","","","","","","","","","","","","","","","","","","","","","","","","","","","","","","",""
"","","","","","html-keyboard-response","30","172940","0.0-5.0-1.6","A2SKY4RRWII0BF","2022-05-18T18:20:43.508Z","same_different-task_switching-rhyme-phon_sim","","1787","same_different","[""<img src=\""square.png\"" width=\""100\"" height=\""100\"" style=\""position: fixed;left:39%;top:47%\""><img src=\""square.png\"" width=\""100\"" height=\""100\"" style=\""position: fixed;left:54%;top:47%\""><img src=\""square.png\"" width=\""100\"" height=\""100\"" style=\""position: fixed;left:46.5%;top:32%\""><img src=\""square.png\"" width=\""100\"" height=\""100\"" style=\""position: fixed;left:46.5%;top:61%\""><div style=\""font-size:60px;text-align: center;margin-top:45.5%\"">+</div><div id=\""first\"" style=\""position: fixed;visibility: hidden;left:55%;top:49%\""><img src=\""same_diff_imgs/D11.gif\"" style=\""-webkit-transform: scaleX(-1);transform: scaleX(-1);\""></div><div id=\""delayed\"" style=\""position: fixed;visibility: hidden;left:48%;top:34%\""><img src=\""same_diff_imgs/C14.gif\"" style=\""-webkit-transform: scaleX(-1);transform: scaleX(-1);\""></div>""]","arrowdown","identical_image","same_diff_imgs/D11.gif","same_diff_imgs/C14.gif","yes","different","","true","1","","","","","","","","","","","","","","","","","","","","","","","","","","",""
"","","","","","html-keyboard-response","31","172943","0.0-5.0-2.6","A2SKY4RRWII0BF","2022-05-18T18:20:43.508Z","same_different-task_switching-rhyme-phon_sim","","null",""," ","null","","","","","","","","","","","","","","","","","","","","","","","","","","","","","","","","","","",""
"","","","","","html-keyboard-response","32","173244","0.0-5.0-3.6","A2SKY4RRWII0BF","2022-05-18T18:20:43.508Z","same_different-task_switching-rhyme-phon_sim","","null","same_different"," ","null","","","","","","","","","","","","","","","","","","","","","","","","","","","","","","","","","","",""
"","","","","","html-keyboard-response","33","173996","0.0-5.0-0.7","A2SKY4RRWII0BF","2022-05-18T18:20:43.508Z","same_different-task_switching-rhyme-phon_sim","","null","same_different","<div style=""font-size:60px"">+</div>","null","","","","","","","","","","","","","","","","","","","","","","","","","","","","","","","","","","",""
"","","","","","html-keyboard-response","34","175836","0.0-5.0-1.7","A2SKY4RRWII0BF","2022-05-18T18:20:43.508Z","same_different-task_switching-rhyme-phon_sim","","1838","same_different","[""<img src=\""square.png\"" width=\""100\"" height=\""100\"" style=\""position: fixed;left:39%;top:47%\""><img src=\""square.png\"" width=\""100\"" height=\""100\"" style=\""position: fixed;left:54%;top:47%\""><img src=\""square.png\"" width=\""100\"" height=\""100\"" style=\""position: fixed;left:46.5%;top:32%\""><img src=\""square.png\"" width=\""100\"" height=\""100\"" style=\""position: fixed;left:46.5%;top:61%\""><div style=\""font-size:60px; text-align: center;margin-top:45.5%\"">+</div><div id=\""first\"" style=\""position: fixed;visibility: hidden;left:40%;top:48%\""><img src=\""same_diff_imgs/D09.gif\""></div><div id=\""delayed\"" style=\""position: fixed;visibility: hidden;left:48%;top:62%\""><img src=\""same_diff_imgs/D09.gif\""></div>""]","arrowup","identical_image","same_diff_imgs/D09.gif","same_diff_imgs/D09.gif","no","same","1","true","","","","","","","","","","","","","","","","","","","","","","","","","","","",""
"","","","","","html-keyboard-response","35","175841","0.0-5.0-2.7","A2SKY4RRWII0BF","2022-05-18T18:20:43.508Z","same_different-task_switching-rhyme-phon_sim","","null",""," ","null","","","","","","","","","","","","","","","","","","","","","","","","","","","","","","","","","","",""
"","","","","","html-keyboard-response","36","176144","0.0-5.0-3.7","A2SKY4RRWII0BF","2022-05-18T18:20:43.508Z","same_different-task_switching-rhyme-phon_sim","","null","same_different"," ","null","","","","","","","","","","","","","","","","","","","","","","","","","","","","","","","","","","",""
"","","","","","html-keyboard-response","37","176895","0.0-5.0-0.8","A2SKY4RRWII0BF","2022-05-18T18:20:43.508Z","same_different-task_switching-rhyme-phon_sim","","null","same_different","<div style=""font-size:60px"">+</div>","null","","","","","","","","","","","","","","","","","","","","","","","","","","","","","","","","","","",""
"","","","","","html-keyboard-response","38","179058","0.0-5.0-1.8","A2SKY4RRWII0BF","2022-05-18T18:20:43.508Z","same_different-task_switching-rhyme-phon_sim","","2162","same_different","[""<img src=\""square.png\"" width=\""100\"" height=\""100\"" style=\""position: fixed;left:39%;top:47%\""><img src=\""square.png\"" width=\""100\"" height=\""100\"" style=\""position: fixed;left:54%;top:47%\""><img src=\""square.png\"" width=\""100\"" height=\""100\"" style=\""position: fixed;left:46.5%;top:32%\""><img src=\""square.png\"" width=\""100\"" height=\""100\"" style=\""position: fixed;left:46.5%;top:61%\""><div style=\""font-size:60px; text-align: center;margin-top:45.5%\"">+</div><div id=\""first\"" style=\""position: fixed;visibility: hidden;left:48%;top:62%\""><img src=\""same_diff_imgs/C09.gif\""></div><div id=\""delayed\"" style=\""position: fixed;visibility: hidden;left:55%;top:49%\""><img src=\""same_diff_imgs/C09.gif\""></div>""]","arrowup","identical_image","same_diff_imgs/C09.gif","same_diff_imgs/C09.gif","no","same","1","true","","","","","","","","","","","","","","","","","","","","","","","","","","","",""
"","","","","","html-keyboard-response","39","179062","0.0-5.0-2.8","A2SKY4RRWII0BF","2022-05-18T18:20:43.508Z","same_different-task_switching-rhyme-phon_sim","","null",""," ","null","","","","","","","","","","","","","","","","","","","","","","","","","","","","","","","","","","",""
"","","","","","html-keyboard-response","40","179370","0.0-5.0-3.8","A2SKY4RRWII0BF","2022-05-18T18:20:43.508Z","same_different-task_switching-rhyme-phon_sim","","null","same_different"," ","null","","","","","","","","","","","","","","","","","","","","","","","","","","","","","","","","","","",""
"","","","","","html-keyboard-response","41","180143","0.0-5.0-0.9","A2SKY4RRWII0BF","2022-05-18T18:20:43.508Z","same_different-task_switching-rhyme-phon_sim","","null","same_different","<div style=""font-size:60px"">+</div>","null","","","","","","","","","","","","","","","","","","","","","","","","","","","","","","","","","","",""
"","","","","","html-keyboard-response","42","181780","0.0-5.0-1.9","A2SKY4RRWII0BF","2022-05-18T18:20:43.508Z","same_different-task_switching-rhyme-phon_sim","","1624","same_different","[""<img src=\""square.png\"" width=\""100\"" height=\""100\"" style=\""position: fixed;left:39%;top:47%\""><img src=\""square.png\"" width=\""100\"" height=\""100\"" style=\""position: fixed;left:54%;top:47%\""><img src=\""square.png\"" width=\""100\"" height=\""100\"" style=\""position: fixed;left:46.5%;top:32%\""><img src=\""square.png\"" width=\""100\"" height=\""100\"" style=\""position: fixed;left:46.5%;top:61%\""><div style=\""font-size:60px; text-align: center;margin-top:45.5%\"">+</div><div id=\""first\"" style=\""position: fixed;visibility: hidden;left:48%;top:34%\""><img src=\""same_diff_imgs/D07.gif\""></div><div id=\""delayed\"" style=\""position: fixed;visibility: hidden;left:55%;top:49%\""><img src=\""same_diff_imgs/D07.gif\""></div>""]","arrowup","identical_image","same_diff_imgs/D07.gif","same_diff_imgs/D07.gif","no","same","1","true","","","","","","","","","","","","","","","","","","","","","","","","","","","",""
"","","","","","html-keyboard-response","43","181786","0.0-5.0-2.9","A2SKY4RRWII0BF","2022-05-18T18:20:43.508Z","same_different-task_switching-rhyme-phon_sim","","null",""," ","null","","","","","","","","","","","","","","","","","","","","","","","","","","","","","","","","","","",""
"","","","","","html-keyboard-response","44","182088","0.0-5.0-3.9","A2SKY4RRWII0BF","2022-05-18T18:20:43.508Z","same_different-task_switching-rhyme-phon_sim","","null","same_different"," ","null","","","","","","","","","","","","","","","","","","","","","","","","","","","","","","","","","","",""
"","","","","","html-keyboard-response","45","182842","0.0-5.0-0.10","A2SKY4RRWII0BF","2022-05-18T18:20:43.508Z","same_different-task_switching-rhyme-phon_sim","","null","same_different","<div style=""font-size:60px"">+</div>","null","","","","","","","","","","","","","","","","","","","","","","","","","","","","","","","","","","",""
"","","","","","html-keyboard-response","46","185250","0.0-5.0-1.10","A2SKY4RRWII0BF","2022-05-18T18:20:43.508Z","same_different-task_switching-rhyme-phon_sim","","2390","same_different","[""<img src=\""square.png\"" width=\""100\"" height=\""100\"" style=\""position: fixed;left:39%;top:47%\""><img src=\""square.png\"" width=\""100\"" height=\""100\"" style=\""position: fixed;left:54%;top:47%\""><img src=\""square.png\"" width=\""100\"" height=\""100\"" style=\""position: fixed;left:46.5%;top:32%\""><img src=\""square.png\"" width=\""100\"" height=\""100\"" style=\""position: fixed;left:46.5%;top:61%\""><div style=\""font-size:60px; text-align: center;margin-top:45.5%\"">+</div><div id=\""first\"" style=\""position: fixed;visibility: hidden;left:40%;top:48%\""><img src=\""same_diff_imgs/C09.gif\""></div><div id=\""delayed\"" style=\""position: fixed;visibility: hidden;left:48%;top:62%\""><img src=\""same_diff_imgs/C09.gif\""></div>""]","arrowup","identical_image","same_diff_imgs/C09.gif","same_diff_imgs/C09.gif","no","same","1","true","","","","","","","","","","","","","","","","","","","","","","","","","","","",""
"","","","","","html-keyboard-response","47","185254","0.0-5.0-2.10","A2SKY4RRWII0BF","2022-05-18T18:20:43.508Z","same_different-task_switching-rhyme-phon_sim","","null",""," ","null","","","","","","","","","","","","","","","","","","","","","","","","","","","","","","","","","","",""
"","","","","","html-keyboard-response","48","185555","0.0-5.0-3.10","A2SKY4RRWII0BF","2022-05-18T18:20:43.508Z","same_different-task_switching-rhyme-phon_sim","","null","same_different"," ","null","","","","","","","","","","","","","","","","","","","","","","","","","","","","","","","","","","",""
"","","","","","html-keyboard-response","49","186307","0.0-5.0-0.11","A2SKY4RRWII0BF","2022-05-18T18:20:43.508Z","same_different-task_switching-rhyme-phon_sim","","null","same_different","<div style=""font-size:60px"">+</div>","null","","","","","","","","","","","","","","","","","","","","","","","","","","","","","","","","","","",""
"","","","","","html-keyboard-response","50","188085","0.0-5.0-1.11","A2SKY4RRWII0BF","2022-05-18T18:20:43.508Z","same_different-task_switching-rhyme-phon_sim","","1776","same_different","[""<img src=\""square.png\"" width=\""100\"" height=\""100\"" style=\""position: fixed;left:39%;top:47%\""><img src=\""square.png\"" width=\""100\"" height=\""100\"" style=\""position: fixed;left:54%;top:47%\""><img src=\""square.png\"" width=\""100\"" height=\""100\"" style=\""position: fixed;left:46.5%;top:32%\""><img src=\""square.png\"" width=\""100\"" height=\""100\"" style=\""position: fixed;left:46.5%;top:61%\""><div style=\""font-size:60px; text-align: center;margin-top:45.5%\"">+</div><div id=\""first\"" style=\""position: fixed;visibility: hidden;left:48%;top:34%\""><img src=\""same_diff_imgs/C04.gif\""></div><div id=\""delayed\"" style=\""position: fixed;visibility: hidden;left:40%;top:48%\""><img src=\""same_diff_imgs/C14.gif\""></div>""]","arrowdown","identical_image","same_diff_imgs/C04.gif","same_diff_imgs/C14.gif","no","different","","true","1","","","","","","","","","","","","","","","","","","","","","","","","","","",""
"","","","","","html-keyboard-response","51","188093","0.0-5.0-2.11","A2SKY4RRWII0BF","2022-05-18T18:20:43.508Z","same_different-task_switching-rhyme-phon_sim","","null",""," ","null","","","","","","","","","","","","","","","","","","","","","","","","","","","","","","","","","","",""
"","","","","","html-keyboard-response","52","188399","0.0-5.0-3.11","A2SKY4RRWII0BF","2022-05-18T18:20:43.508Z","same_different-task_switching-rhyme-phon_sim","","null","same_different"," ","null","","","","","","","","","","","","","","","","","","","","","","","","","","","","","","","","","","",""
"","","","","","html-keyboard-response","53","189150","0.0-5.0-0.12","A2SKY4RRWII0BF","2022-05-18T18:20:43.508Z","same_different-task_switching-rhyme-phon_sim","","null","same_different","<div style=""font-size:60px"">+</div>","null","","","","","","","","","","","","","","","","","","","","","","","","","","","","","","","","","","",""
"","","","","","html-keyboard-response","54","191167","0.0-5.0-1.12","A2SKY4RRWII0BF","2022-05-18T18:20:43.508Z","same_different-task_switching-rhyme-phon_sim","","2014","same_different","[""<img src=\""square.png\"" width=\""100\"" height=\""100\"" style=\""position: fixed;left:39%;top:47%\""><img src=\""square.png\"" width=\""100\"" height=\""100\"" style=\""position: fixed;left:54%;top:47%\""><img src=\""square.png\"" width=\""100\"" height=\""100\"" style=\""position: fixed;left:46.5%;top:32%\""><img src=\""square.png\"" width=\""100\"" height=\""100\"" style=\""position: fixed;left:46.5%;top:61%\""><div style=\""font-size:60px; text-align: center;margin-top:45.5%\"">+</div><div id=\""first\"" style=\""position: fixed;visibility: hidden;left:48%;top:34%\""><img src=\""same_diff_imgs/D11.gif\""></div><div id=\""delayed\"" style=\""position: fixed;visibility: hidden;left:55%;top:49%\""><img src=\""same_diff_imgs/D11.gif\""></div>""]","arrowup","identical_image","same_diff_imgs/D11.gif","same_diff_imgs/D11.gif","no","same","1","true","","","","","","","","","","","","","","","","","","","","","","","","","","","",""
"","","","","","html-keyboard-response","55","191187","0.0-5.0-2.12","A2SKY4RRWII0BF","2022-05-18T18:20:43.508Z","same_different-task_switching-rhyme-phon_sim","","null",""," ","null","","","","","","","","","","","","","","","","","","","","","","","","","","","","","","","","","","",""
"","","","","","html-keyboard-response","56","191490","0.0-5.0-3.12","A2SKY4RRWII0BF","2022-05-18T18:20:43.508Z","same_different-task_switching-rhyme-phon_sim","","null","same_different"," ","null","","","","","","","","","","","","","","","","","","","","","","","","","","","","","","","","","","",""
"","","","","","html-keyboard-response","57","192242","0.0-5.0-0.13","A2SKY4RRWII0BF","2022-05-18T18:20:43.508Z","same_different-task_switching-rhyme-phon_sim","","null","same_different","<div style=""font-size:60px"">+</div>","null","","","","","","","","","","","","","","","","","","","","","","","","","","","","","","","","","","",""
"","","","","","html-keyboard-response","58","194186","0.0-5.0-1.13","A2SKY4RRWII0BF","2022-05-18T18:20:43.508Z","same_different-task_switching-rhyme-phon_sim","","1927","same_different","[""<img src=\""square.png\"" width=\""100\"" height=\""100\"" style=\""position: fixed;left:39%;top:47%\""><img src=\""square.png\"" width=\""100\"" height=\""100\"" style=\""position: fixed;left:54%;top:47%\""><img src=\""square.png\"" width=\""100\"" height=\""100\"" style=\""position: fixed;left:46.5%;top:32%\""><img src=\""square.png\"" width=\""100\"" height=\""100\"" style=\""position: fixed;left:46.5%;top:61%\""><div style=\""font-size:60px; text-align: center;margin-top:45.5%\"">+</div><div id=\""first\"" style=\""position: fixed;visibility: hidden;left:48%;top:34%\""><img src=\""same_diff_imgs/D11.gif\""></div><div id=\""delayed\"" style=\""position: fixed;visibility: hidden;left:55%;top:49%\""><img src=\""same_diff_imgs/D11.gif\""></div>""]","arrowup","identical_image","same_diff_imgs/D11.gif","same_diff_imgs/D11.gif","no","same","1","true","","","","","","","","","","","","","","","","","","","","","","","","","","","",""
"","","","","","html-keyboard-response","59","194191","0.0-5.0-2.13","A2SKY4RRWII0BF","2022-05-18T18:20:43.508Z","same_different-task_switching-rhyme-phon_sim","","null",""," ","null","","","","","","","","","","","","","","","","","","","","","","","","","","","","","","","","","","",""
"","","","","","html-keyboard-response","60","194493","0.0-5.0-3.13","A2SKY4RRWII0BF","2022-05-18T18:20:43.508Z","same_different-task_switching-rhyme-phon_sim","","null","same_different"," ","null","","","","","","","","","","","","","","","","","","","","","","","","","","","","","","","","","","",""
"","","","","","html-keyboard-response","61","195249","0.0-5.0-0.14","A2SKY4RRWII0BF","2022-05-18T18:20:43.508Z","same_different-task_switching-rhyme-phon_sim","","null","same_different","<div style=""font-size:60px"">+</div>","null","","","","","","","","","","","","","","","","","","","","","","","","","","","","","","","","","","",""
"","","","","","html-keyboard-response","62","197358","0.0-5.0-1.14","A2SKY4RRWII0BF","2022-05-18T18:20:43.508Z","same_different-task_switching-rhyme-phon_sim","","2104","same_different","[""<img src=\""square.png\"" width=\""100\"" height=\""100\"" style=\""position: fixed;left:39%;top:47%\""><img src=\""square.png\"" width=\""100\"" height=\""100\"" style=\""position: fixed;left:54%;top:47%\""><img src=\""square.png\"" width=\""100\"" height=\""100\"" style=\""position: fixed;left:46.5%;top:32%\""><img src=\""square.png\"" width=\""100\"" height=\""100\"" style=\""position: fixed;left:46.5%;top:61%\""><div style=\""font-size:60px; text-align: center;margin-top:45.5%\"">+</div><div id=\""first\"" style=\""position: fixed;visibility: hidden;left:48%;top:62%\""><img src=\""same_diff_imgs/D11.gif\""></div><div id=\""delayed\"" style=\""position: fixed;visibility: hidden;left:48%;top:34%\""><img src=\""same_diff_imgs/D11.gif\""></div>""]","arrowup","identical_image","same_diff_imgs/D11.gif","same_diff_imgs/D11.gif","no","same","1","true","","","","","","","","","","","","","","","","","","","","","","","","","","","",""
"","","","","","html-keyboard-response","63","197365","0.0-5.0-2.14","A2SKY4RRWII0BF","2022-05-18T18:20:43.508Z","same_different-task_switching-rhyme-phon_sim","","null",""," ","null","","","","","","","","","","","","","","","","","","","","","","","","","","","","","","","","","","",""
"","","","","","html-keyboard-response","64","197666","0.0-5.0-3.14","A2SKY4RRWII0BF","2022-05-18T18:20:43.508Z","same_different-task_switching-rhyme-phon_sim","","null","same_different"," ","null","","","","","","","","","","","","","","","","","","","","","","","","","","","","","","","","","","",""
"","","","","","html-keyboard-response","65","198417","0.0-5.0-0.15","A2SKY4RRWII0BF","2022-05-18T18:20:43.508Z","same_different-task_switching-rhyme-phon_sim","","null","same_different","<div style=""font-size:60px"">+</div>","null","","","","","","","","","","","","","","","","","","","","","","","","","","","","","","","","","","",""
"","","","","","html-keyboard-response","66","200988","0.0-5.0-1.15","A2SKY4RRWII0BF","2022-05-18T18:20:43.508Z","same_different-task_switching-rhyme-phon_sim","","2567","same_different","[""<img src=\""square.png\"" width=\""100\"" height=\""100\"" style=\""position: fixed;left:39%;top:47%\""><img src=\""square.png\"" width=\""100\"" height=\""100\"" style=\""position: fixed;left:54%;top:47%\""><img src=\""square.png\"" width=\""100\"" height=\""100\"" style=\""position: fixed;left:46.5%;top:32%\""><img src=\""square.png\"" width=\""100\"" height=\""100\"" style=\""position: fixed;left:46.5%;top:61%\""><div style=\""font-size:60px; text-align: center;margin-top:45.5%\"">+</div><div id=\""first\"" style=\""position: fixed;visibility: hidden;left:55%;top:49%\""><img src=\""same_diff_imgs/C04.gif\""></div><div id=\""delayed\"" style=\""position: fixed;visibility: hidden;left:48%;top:62%\""><img src=\""same_diff_imgs/C04.gif\""></div>""]","arrowup","identical_image","same_diff_imgs/C04.gif","same_diff_imgs/C04.gif","no","same","1","true","","","","","","","","","","","","","","","","","","","","","","","","","","","",""
"","","","","","html-keyboard-response","67","200993","0.0-5.0-2.15","A2SKY4RRWII0BF","2022-05-18T18:20:43.508Z","same_different-task_switching-rhyme-phon_sim","","null",""," ","null","","","","","","","","","","","","","","","","","","","","","","","","","","","","","","","","","","",""
"","","","","","html-keyboard-response","68","201296","0.0-5.0-3.15","A2SKY4RRWII0BF","2022-05-18T18:20:43.508Z","same_different-task_switching-rhyme-phon_sim","","null","same_different"," ","null","","","","","","","","","","","","","","","","","","","","","","","","","","","","","","","","","","",""
"","","","","","html-keyboard-response","69","202049","0.0-5.0-0.16","A2SKY4RRWII0BF","2022-05-18T18:20:43.508Z","same_different-task_switching-rhyme-phon_sim","","null","same_different","<div style=""font-size:60px"">+</div>","null","","","","","","","","","","","","","","","","","","","","","","","","","","","","","","","","","","",""
"","","","","","html-keyboard-response","70","203955","0.0-5.0-1.16","A2SKY4RRWII0BF","2022-05-18T18:20:43.508Z","same_different-task_switching-rhyme-phon_sim","","1904","same_different","[""<img src=\""square.png\"" width=\""100\"" height=\""100\"" style=\""position: fixed;left:39%;top:47%\""><img src=\""square.png\"" width=\""100\"" height=\""100\"" style=\""position: fixed;left:54%;top:47%\""><img src=\""square.png\"" width=\""100\"" height=\""100\"" style=\""position: fixed;left:46.5%;top:32%\""><img src=\""square.png\"" width=\""100\"" height=\""100\"" style=\""position: fixed;left:46.5%;top:61%\""><div style=\""font-size:60px;text-align: center;margin-top:45.5%\"">+</div><div id=\""first\"" style=\""position: fixed;visibility: hidden;left:40%;top:48%\""><img src=\""same_diff_imgs/C14.gif\"" style=\""-webkit-transform: scaleX(-1);transform: scaleX(-1);\""></div><div id=\""delayed\"" style=\""position: fixed;visibility: hidden;left:48%;top:62%\""><img src=\""same_diff_imgs/D09.gif\"" style=\""-webkit-transform: scaleX(-1);transform: scaleX(-1);\""></div>""]","arrowdown","identical_image","same_diff_imgs/C14.gif","same_diff_imgs/D09.gif","yes","different","","true","1","","","","","","","","","","","","","","","","","","","","","","","","","","",""
"","","","","","html-keyboard-response","71","203959","0.0-5.0-2.16","A2SKY4RRWII0BF","2022-05-18T18:20:43.508Z","same_different-task_switching-rhyme-phon_sim","","null",""," ","null","","","","","","","","","","","","","","","","","","","","","","","","","","","","","","","","","","",""
"","","","","","html-keyboard-response","72","204261","0.0-5.0-3.16","A2SKY4RRWII0BF","2022-05-18T18:20:43.508Z","same_different-task_switching-rhyme-phon_sim","","null","same_different"," ","null","","","","","","","","","","","","","","","","","","","","","","","","","","","","","","","","","","",""
"","","","","","html-keyboard-response","73","205015","0.0-5.0-0.17","A2SKY4RRWII0BF","2022-05-18T18:20:43.508Z","same_different-task_switching-rhyme-phon_sim","","null","same_different","<div style=""font-size:60px"">+</div>","null","","","","","","","","","","","","","","","","","","","","","","","","","","","","","","","","","","",""
"","","","","","html-keyboard-response","74","206985","0.0-5.0-1.17","A2SKY4RRWII0BF","2022-05-18T18:20:43.508Z","same_different-task_switching-rhyme-phon_sim","","1967","same_different","[""<img src=\""square.png\"" width=\""100\"" height=\""100\"" style=\""position: fixed;left:39%;top:47%\""><img src=\""square.png\"" width=\""100\"" height=\""100\"" style=\""position: fixed;left:54%;top:47%\""><img src=\""square.png\"" width=\""100\"" height=\""100\"" style=\""position: fixed;left:46.5%;top:32%\""><img src=\""square.png\"" width=\""100\"" height=\""100\"" style=\""position: fixed;left:46.5%;top:61%\""><div style=\""font-size:60px; text-align: center;margin-top:45.5%\"">+</div><div id=\""first\"" style=\""position: fixed;visibility: hidden;left:48%;top:34%\""><img src=\""same_diff_imgs/D09.gif\""></div><div id=\""delayed\"" style=\""position: fixed;visibility: hidden;left:48%;top:62%\""><img src=\""same_diff_imgs/D09.gif\""></div>""]","arrowup","identical_image","same_diff_imgs/D09.gif","same_diff_imgs/D09.gif","no","same","1","true","","","","","","","","","","","","","","","","","","","","","","","","","","","",""
"","","","","","html-keyboard-response","75","206988","0.0-5.0-2.17","A2SKY4RRWII0BF","2022-05-18T18:20:43.508Z","same_different-task_switching-rhyme-phon_sim","","null",""," ","null","","","","","","","","","","","","","","","","","","","","","","","","","","","","","","","","","","",""
"","","","","","html-keyboard-response","76","207289","0.0-5.0-3.17","A2SKY4RRWII0BF","2022-05-18T18:20:43.508Z","same_different-task_switching-rhyme-phon_sim","","null","same_different"," ","null","","","","","","","","","","","","","","","","","","","","","","","","","","","","","","","","","","",""
"","","","","","html-keyboard-response","77","208039","0.0-5.0-0.18","A2SKY4RRWII0BF","2022-05-18T18:20:43.508Z","same_different-task_switching-rhyme-phon_sim","","null","same_different","<div style=""font-size:60px"">+</div>","null","","","","","","","","","","","","","","","","","","","","","","","","","","","","","","","","","","",""
"","","","","","html-keyboard-response","78","209985","0.0-5.0-1.18","A2SKY4RRWII0BF","2022-05-18T18:20:43.508Z","same_different-task_switching-rhyme-phon_sim","","1943","same_different","[""<img src=\""square.png\"" width=\""100\"" height=\""100\"" style=\""position: fixed;left:39%;top:47%\""><img src=\""square.png\"" width=\""100\"" height=\""100\"" style=\""position: fixed;left:54%;top:47%\""><img src=\""square.png\"" width=\""100\"" height=\""100\"" style=\""position: fixed;left:46.5%;top:32%\""><img src=\""square.png\"" width=\""100\"" height=\""100\"" style=\""position: fixed;left:46.5%;top:61%\""><div style=\""font-size:60px; text-align: center;margin-top:45.5%\"">+</div><div id=\""first\"" style=\""position: fixed;visibility: hidden;left:55%;top:49%\""><img src=\""same_diff_imgs/D11.gif\""></div><div id=\""delayed\"" style=\""position: fixed;visibility: hidden;left:48%;top:34%\""><img src=\""same_diff_imgs/D11.gif\""></div>""]","arrowup","identical_image","same_diff_imgs/D11.gif","same_diff_imgs/D11.gif","no","same","1","true","","","","","","","","","","","","","","","","","","","","","","","","","","","",""
"","","","","","html-keyboard-response","79","209991","0.0-5.0-2.18","A2SKY4RRWII0BF","2022-05-18T18:20:43.508Z","same_different-task_switching-rhyme-phon_sim","","null",""," ","null","","","","","","","","","","","","","","","","","","","","","","","","","","","","","","","","","","",""
"","","","","","html-keyboard-response","80","210292","0.0-5.0-3.18","A2SKY4RRWII0BF","2022-05-18T18:20:43.508Z","same_different-task_switching-rhyme-phon_sim","","null","same_different"," ","null","","","","","","","","","","","","","","","","","","","","","","","","","","","","","","","","","","",""
"","","","","","html-keyboard-response","81","211044","0.0-5.0-0.19","A2SKY4RRWII0BF","2022-05-18T18:20:43.508Z","same_different-task_switching-rhyme-phon_sim","","null","same_different","<div style=""font-size:60px"">+</div>","null","","","","","","","","","","","","","","","","","","","","","","","","","","","","","","","","","","",""
"","","","","","html-keyboard-response","82","212962","0.0-5.0-1.19","A2SKY4RRWII0BF","2022-05-18T18:20:43.508Z","same_different-task_switching-rhyme-phon_sim","","1917","same_different","[""<img src=\""square.png\"" width=\""100\"" height=\""100\"" style=\""position: fixed;left:39%;top:47%\""><img src=\""square.png\"" width=\""100\"" height=\""100\"" style=\""position: fixed;left:54%;top:47%\""><img src=\""square.png\"" width=\""100\"" height=\""100\"" style=\""position: fixed;left:46.5%;top:32%\""><img src=\""square.png\"" width=\""100\"" height=\""100\"" style=\""position: fixed;left:46.5%;top:61%\""><div style=\""font-size:60px;text-align: center;margin-top:45.5%\"">+</div><div id=\""first\"" style=\""position: fixed;visibility: hidden;left:48%;top:34%\""><img src=\""same_diff_imgs/D07.gif\"" style=\""-webkit-transform: scaleX(-1);transform: scaleX(-1);\""></div><div id=\""delayed\"" style=\""position: fixed;visibility: hidden;left:55%;top:49%\""><img src=\""same_diff_imgs/C09.gif\"" style=\""-webkit-transform: scaleX(-1);transform: scaleX(-1);\""></div>""]","arrowdown","identical_image","same_diff_imgs/D07.gif","same_diff_imgs/C09.gif","yes","different","","true","1","","","","","","","","","","","","","","","","","","","","","","","","","","",""
"","","","","","html-keyboard-response","83","212965","0.0-5.0-2.19","A2SKY4RRWII0BF","2022-05-18T18:20:43.508Z","same_different-task_switching-rhyme-phon_sim","","null",""," ","null","","","","","","","","","","","","","","","","","","","","","","","","","","","","","","","","","","",""
"","","","","","html-keyboard-response","84","213275","0.0-5.0-3.19","A2SKY4RRWII0BF","2022-05-18T18:20:43.508Z","same_different-task_switching-rhyme-phon_sim","","null","same_different"," ","null","","","","","","","","","","","","","","","","","","","","","","","","","","","","","","","","","","",""
"","","","","","html-keyboard-response","85","214027","0.0-5.0-0.20","A2SKY4RRWII0BF","2022-05-18T18:20:43.508Z","same_different-task_switching-rhyme-phon_sim","","null","same_different","<div style=""font-size:60px"">+</div>","null","","","","","","","","","","","","","","","","","","","","","","","","","","","","","","","","","","",""
"","","","","","html-keyboard-response","86","216254","0.0-5.0-1.20","A2SKY4RRWII0BF","2022-05-18T18:20:43.508Z","same_different-task_switching-rhyme-phon_sim","","2221","same_different","[""<img src=\""square.png\"" width=\""100\"" height=\""100\"" style=\""position: fixed;left:39%;top:47%\""><img src=\""square.png\"" width=\""100\"" height=\""100\"" style=\""position: fixed;left:54%;top:47%\""><img src=\""square.png\"" width=\""100\"" height=\""100\"" style=\""position: fixed;left:46.5%;top:32%\""><img src=\""square.png\"" width=\""100\"" height=\""100\"" style=\""position: fixed;left:46.5%;top:61%\""><div style=\""font-size:60px; text-align: center;margin-top:45.5%\"">+</div><div id=\""first\"" style=\""position: fixed;visibility: hidden;left:40%;top:48%\""><img src=\""same_diff_imgs/D07.gif\""></div><div id=\""delayed\"" style=\""position: fixed;visibility: hidden;left:48%;top:62%\""><img src=\""same_diff_imgs/D07.gif\""></div>""]","arrowup","identical_image","same_diff_imgs/D07.gif","same_diff_imgs/D07.gif","no","same","1","true","","","","","","","","","","","","","","","","","","","","","","","","","","","",""
"","","","","","html-keyboard-response","87","216276","0.0-5.0-2.20","A2SKY4RRWII0BF","2022-05-18T18:20:43.508Z","same_different-task_switching-rhyme-phon_sim","","null",""," ","null","","","","","","","","","","","","","","","","","","","","","","","","","","","","","","","","","","",""
"","","","","","html-keyboard-response","88","216577","0.0-5.0-3.20","A2SKY4RRWII0BF","2022-05-18T18:20:43.508Z","same_different-task_switching-rhyme-phon_sim","","null","same_different"," ","null","","","","","","","","","","","","","","","","","","","","","","","","","","","","","","","","","","",""
"","","","","","html-keyboard-response","89","217328","0.0-5.0-0.21","A2SKY4RRWII0BF","2022-05-18T18:20:43.508Z","same_different-task_switching-rhyme-phon_sim","","null","same_different","<div style=""font-size:60px"">+</div>","null","","","","","","","","","","","","","","","","","","","","","","","","","","","","","","","","","","",""
"","","","","","html-keyboard-response","90","219370","0.0-5.0-1.21","A2SKY4RRWII0BF","2022-05-18T18:20:43.508Z","same_different-task_switching-rhyme-phon_sim","","2040","same_different","[""<img src=\""square.png\"" width=\""100\"" height=\""100\"" style=\""position: fixed;left:39%;top:47%\""><img src=\""square.png\"" width=\""100\"" height=\""100\"" style=\""position: fixed;left:54%;top:47%\""><img src=\""square.png\"" width=\""100\"" height=\""100\"" style=\""position: fixed;left:46.5%;top:32%\""><img src=\""square.png\"" width=\""100\"" height=\""100\"" style=\""position: fixed;left:46.5%;top:61%\""><div style=\""font-size:60px; text-align: center;margin-top:45.5%\"">+</div><div id=\""first\"" style=\""position: fixed;visibility: hidden;left:48%;top:34%\""><img src=\""same_diff_imgs/C09.gif\""></div><div id=\""delayed\"" style=\""position: fixed;visibility: hidden;left:55%;top:49%\""><img src=\""same_diff_imgs/C09.gif\""></div>""]","arrowup","identical_image","same_diff_imgs/C09.gif","same_diff_imgs/C09.gif","no","same","1","true","","","","","","","","","","","","","","","","","","","","","","","","","","","",""
"","","","","","html-keyboard-response","91","219373","0.0-5.0-2.21","A2SKY4RRWII0BF","2022-05-18T18:20:43.508Z","same_different-task_switching-rhyme-phon_sim","","null",""," ","null","","","","","","","","","","","","","","","","","","","","","","","","","","","","","","","","","","",""
"","","","","","html-keyboard-response","92","219675","0.0-5.0-3.21","A2SKY4RRWII0BF","2022-05-18T18:20:43.508Z","same_different-task_switching-rhyme-phon_sim","","null","same_different"," ","null","","","","","","","","","","","","","","","","","","","","","","","","","","","","","","","","","","",""
"","","","","","html-keyboard-response","93","220426","0.0-5.0-0.22","A2SKY4RRWII0BF","2022-05-18T18:20:43.508Z","same_different-task_switching-rhyme-phon_sim","","null","same_different","<div style=""font-size:60px"">+</div>","null","","","","","","","","","","","","","","","","","","","","","","","","","","","","","","","","","","",""
"","","","","","html-keyboard-response","94","222259","0.0-5.0-1.22","A2SKY4RRWII0BF","2022-05-18T18:20:43.508Z","same_different-task_switching-rhyme-phon_sim","","1829","same_different","[""<img src=\""square.png\"" width=\""100\"" height=\""100\"" style=\""position: fixed;left:39%;top:47%\""><img src=\""square.png\"" width=\""100\"" height=\""100\"" style=\""position: fixed;left:54%;top:47%\""><img src=\""square.png\"" width=\""100\"" height=\""100\"" style=\""position: fixed;left:46.5%;top:32%\""><img src=\""square.png\"" width=\""100\"" height=\""100\"" style=\""position: fixed;left:46.5%;top:61%\""><div style=\""font-size:60px; text-align: center;margin-top:45.5%\"">+</div><div id=\""first\"" style=\""position: fixed;visibility: hidden;left:40%;top:48%\""><img src=\""same_diff_imgs/D11.gif\""></div><div id=\""delayed\"" style=\""position: fixed;visibility: hidden;left:48%;top:34%\""><img src=\""same_diff_imgs/D11.gif\""></div>""]","arrowup","identical_image","same_diff_imgs/D11.gif","same_diff_imgs/D11.gif","no","same","1","true","","","","","","","","","","","","","","","","","","","","","","","","","","","",""
"","","","","","html-keyboard-response","95","222264","0.0-5.0-2.22","A2SKY4RRWII0BF","2022-05-18T18:20:43.508Z","same_different-task_switching-rhyme-phon_sim","","null",""," ","null","","","","","","","","","","","","","","","","","","","","","","","","","","","","","","","","","","",""
"","","","","","html-keyboard-response","96","222573","0.0-5.0-3.22","A2SKY4RRWII0BF","2022-05-18T18:20:43.508Z","same_different-task_switching-rhyme-phon_sim","","null","same_different"," ","null","","","","","","","","","","","","","","","","","","","","","","","","","","","","","","","","","","",""
"","","","","","html-keyboard-response","97","223324","0.0-5.0-0.23","A2SKY4RRWII0BF","2022-05-18T18:20:43.508Z","same_different-task_switching-rhyme-phon_sim","","null","same_different","<div style=""font-size:60px"">+</div>","null","","","","","","","","","","","","","","","","","","","","","","","","","","","","","","","","","","",""
"","","","","","html-keyboard-response","98","225294","0.0-5.0-1.23","A2SKY4RRWII0BF","2022-05-18T18:20:43.508Z","same_different-task_switching-rhyme-phon_sim","","1966","same_different","[""<img src=\""square.png\"" width=\""100\"" height=\""100\"" style=\""position: fixed;left:39%;top:47%\""><img src=\""square.png\"" width=\""100\"" height=\""100\"" style=\""position: fixed;left:54%;top:47%\""><img src=\""square.png\"" width=\""100\"" height=\""100\"" style=\""position: fixed;left:46.5%;top:32%\""><img src=\""square.png\"" width=\""100\"" height=\""100\"" style=\""position: fixed;left:46.5%;top:61%\""><div style=\""font-size:60px; text-align: center;margin-top:45.5%\"">+</div><div id=\""first\"" style=\""position: fixed;visibility: hidden;left:40%;top:48%\""><img src=\""same_diff_imgs/D09.gif\""></div><div id=\""delayed\"" style=\""position: fixed;visibility: hidden;left:48%;top:34%\""><img src=\""same_diff_imgs/D09.gif\""></div>""]","arrowup","identical_image","same_diff_imgs/D09.gif","same_diff_imgs/D09.gif","no","same","1","true","","","","","","","","","","","","","","","","","","","","","","","","","","","",""
"","","","","","html-keyboard-response","99","225302","0.0-5.0-2.23","A2SKY4RRWII0BF","2022-05-18T18:20:43.508Z","same_different-task_switching-rhyme-phon_sim","","null",""," ","null","","","","","","","","","","","","","","","","","","","","","","","","","","","","","","","","","","",""
"","","","","","html-keyboard-response","100","225604","0.0-5.0-3.23","A2SKY4RRWII0BF","2022-05-18T18:20:43.508Z","same_different-task_switching-rhyme-phon_sim","","null","same_different"," ","null","","","","","","","","","","","","","","","","","","","","","","","","","","","","","","","","","","",""
"","","","","","html-keyboard-response","101","226354","0.0-5.0-0.24","A2SKY4RRWII0BF","2022-05-18T18:20:43.508Z","same_different-task_switching-rhyme-phon_sim","","null","same_different","<div style=""font-size:60px"">+</div>","null","","","","","","","","","","","","","","","","","","","","","","","","","","","","","","","","","","",""
"","","","","","html-keyboard-response","102","228181","0.0-5.0-1.24","A2SKY4RRWII0BF","2022-05-18T18:20:43.508Z","same_different-task_switching-rhyme-phon_sim","","1822","same_different","[""<img src=\""square.png\"" width=\""100\"" height=\""100\"" style=\""position: fixed;left:39%;top:47%\""><img src=\""square.png\"" width=\""100\"" height=\""100\"" style=\""position: fixed;left:54%;top:47%\""><img src=\""square.png\"" width=\""100\"" height=\""100\"" style=\""position: fixed;left:46.5%;top:32%\""><img src=\""square.png\"" width=\""100\"" height=\""100\"" style=\""position: fixed;left:46.5%;top:61%\""><div style=\""font-size:60px;text-align: center;margin-top:45.5%\"">+</div><div id=\""first\"" style=\""position: fixed;visibility: hidden;left:55%;top:49%\""><img src=\""same_diff_imgs/C09.gif\"" style=\""-webkit-transform: scaleX(-1);transform: scaleX(-1);\""></div><div id=\""delayed\"" style=\""position: fixed;visibility: hidden;left:40%;top:48%\""><img src=\""same_diff_imgs/D11.gif\"" style=\""-webkit-transform: scaleX(-1);transform: scaleX(-1);\""></div>""]","arrowdown","identical_image","same_diff_imgs/C09.gif","same_diff_imgs/D11.gif","yes","different","","true","1","","","","","","","","","","","","","","","","","","","","","","","","","","",""
"","","","","","html-keyboard-response","103","228183","0.0-5.0-2.24","A2SKY4RRWII0BF","2022-05-18T18:20:43.508Z","same_different-task_switching-rhyme-phon_sim","","null",""," ","null","","","","","","","","","","","","","","","","","","","","","","","","","","","","","","","","","","",""
"","","","","","html-keyboard-response","104","228485","0.0-5.0-3.24","A2SKY4RRWII0BF","2022-05-18T18:20:43.508Z","same_different-task_switching-rhyme-phon_sim","","null","same_different"," ","null","","","","","","","","","","","","","","","","","","","","","","","","","","","","","","","","","","",""
"","","","","","html-keyboard-response","105","229239","0.0-5.0-0.25","A2SKY4RRWII0BF","2022-05-18T18:20:43.508Z","same_different-task_switching-rhyme-phon_sim","","null","same_different","<div style=""font-size:60px"">+</div>","null","","","","","","","","","","","","","","","","","","","","","","","","","","","","","","","","","","",""
"","","","","","html-keyboard-response","106","231591","0.0-5.0-1.25","A2SKY4RRWII0BF","2022-05-18T18:20:43.508Z","same_different-task_switching-rhyme-phon_sim","","2349","same_different","[""<img src=\""square.png\"" width=\""100\"" height=\""100\"" style=\""position: fixed;left:39%;top:47%\""><img src=\""square.png\"" width=\""100\"" height=\""100\"" style=\""position: fixed;left:54%;top:47%\""><img src=\""square.png\"" width=\""100\"" height=\""100\"" style=\""position: fixed;left:46.5%;top:32%\""><img src=\""square.png\"" width=\""100\"" height=\""100\"" style=\""position: fixed;left:46.5%;top:61%\""><div style=\""font-size:60px; text-align: center;margin-top:45.5%\"">+</div><div id=\""first\"" style=\""position: fixed;visibility: hidden;left:40%;top:48%\""><img src=\""same_diff_imgs/C14.gif\""></div><div id=\""delayed\"" style=\""position: fixed;visibility: hidden;left:48%;top:62%\""><img src=\""same_diff_imgs/C04.gif\""></div>""]","arrowdown","identical_image","same_diff_imgs/C14.gif","same_diff_imgs/C04.gif","no","different","","true","1","","","","","","","","","","","","","","","","","","","","","","","","","","",""
"","","","","","html-keyboard-response","107","231596","0.0-5.0-2.25","A2SKY4RRWII0BF","2022-05-18T18:20:43.508Z","same_different-task_switching-rhyme-phon_sim","","null",""," ","null","","","","","","","","","","","","","","","","","","","","","","","","","","","","","","","","","","",""
"","","","","","html-keyboard-response","108","231897","0.0-5.0-3.25","A2SKY4RRWII0BF","2022-05-18T18:20:43.508Z","same_different-task_switching-rhyme-phon_sim","","null","same_different"," ","null","","","","","","","","","","","","","","","","","","","","","","","","","","","","","","","","","","",""
"","","","","","html-keyboard-response","109","232649","0.0-5.0-0.26","A2SKY4RRWII0BF","2022-05-18T18:20:43.508Z","same_different-task_switching-rhyme-phon_sim","","null","same_different","<div style=""font-size:60px"">+</div>","null","","","","","","","","","","","","","","","","","","","","","","","","","","","","","","","","","","",""
"","","","","","html-keyboard-response","110","234465","0.0-5.0-1.26","A2SKY4RRWII0BF","2022-05-18T18:20:43.508Z","same_different-task_switching-rhyme-phon_sim","","1814","same_different","[""<img src=\""square.png\"" width=\""100\"" height=\""100\"" style=\""position: fixed;left:39%;top:47%\""><img src=\""square.png\"" width=\""100\"" height=\""100\"" style=\""position: fixed;left:54%;top:47%\""><img src=\""square.png\"" width=\""100\"" height=\""100\"" style=\""position: fixed;left:46.5%;top:32%\""><img src=\""square.png\"" width=\""100\"" height=\""100\"" style=\""position: fixed;left:46.5%;top:61%\""><div style=\""font-size:60px; text-align: center;margin-top:45.5%\"">+</div><div id=\""first\"" style=\""position: fixed;visibility: hidden;left:40%;top:48%\""><img src=\""same_diff_imgs/D09.gif\""></div><div id=\""delayed\"" style=\""position: fixed;visibility: hidden;left:48%;top:62%\""><img src=\""same_diff_imgs/D09.gif\""></div>""]","arrowup","identical_image","same_diff_imgs/D09.gif","same_diff_imgs/D09.gif","no","same","1","true","","","","","","","","","","","","","","","","","","","","","","","","","","","",""
"","","","","","html-keyboard-response","111","234468","0.0-5.0-2.26","A2SKY4RRWII0BF","2022-05-18T18:20:43.508Z","same_different-task_switching-rhyme-phon_sim","","null",""," ","null","","","","","","","","","","","","","","","","","","","","","","","","","","","","","","","","","","",""
"","","","","","html-keyboard-response","112","234769","0.0-5.0-3.26","A2SKY4RRWII0BF","2022-05-18T18:20:43.508Z","same_different-task_switching-rhyme-phon_sim","","null","same_different"," ","null","","","","","","","","","","","","","","","","","","","","","","","","","","","","","","","","","","",""
"","","","","","html-keyboard-response","113","235520","0.0-5.0-0.27","A2SKY4RRWII0BF","2022-05-18T18:20:43.508Z","same_different-task_switching-rhyme-phon_sim","","null","same_different","<div style=""font-size:60px"">+</div>","null","","","","","","","","","","","","","","","","","","","","","","","","","","","","","","","","","","",""
"","","","","","html-keyboard-response","114","237257","0.0-5.0-1.27","A2SKY4RRWII0BF","2022-05-18T18:20:43.508Z","same_different-task_switching-rhyme-phon_sim","","1733","same_different","[""<img src=\""square.png\"" width=\""100\"" height=\""100\"" style=\""position: fixed;left:39%;top:47%\""><img src=\""square.png\"" width=\""100\"" height=\""100\"" style=\""position: fixed;left:54%;top:47%\""><img src=\""square.png\"" width=\""100\"" height=\""100\"" style=\""position: fixed;left:46.5%;top:32%\""><img src=\""square.png\"" width=\""100\"" height=\""100\"" style=\""position: fixed;left:46.5%;top:61%\""><div style=\""font-size:60px;text-align: center;margin-top:45.5%\"">+</div><div id=\""first\"" style=\""position: fixed;visibility: hidden;left:48%;top:34%\""><img src=\""same_diff_imgs/C09.gif\"" style=\""-webkit-transform: scaleX(-1);transform: scaleX(-1);\""></div><div id=\""delayed\"" style=\""position: fixed;visibility: hidden;left:55%;top:49%\""><img src=\""same_diff_imgs/D07.gif\"" style=\""-webkit-transform: scaleX(-1);transform: scaleX(-1);\""></div>""]","arrowdown","identical_image","same_diff_imgs/C09.gif","same_diff_imgs/D07.gif","yes","different","","true","1","","","","","","","","","","","","","","","","","","","","","","","","","","",""
"","","","","","html-keyboard-response","115","237260","0.0-5.0-2.27","A2SKY4RRWII0BF","2022-05-18T18:20:43.508Z","same_different-task_switching-rhyme-phon_sim","","null",""," ","null","","","","","","","","","","","","","","","","","","","","","","","","","","","","","","","","","","",""
"","","","","","html-keyboard-response","116","237562","0.0-5.0-3.27","A2SKY4RRWII0BF","2022-05-18T18:20:43.508Z","same_different-task_switching-rhyme-phon_sim","","null","same_different"," ","null","","","","","","","","","","","","","","","","","","","","","","","","","","","","","","","","","","",""
"","","","","","html-keyboard-response","117","238315","0.0-5.0-0.28","A2SKY4RRWII0BF","2022-05-18T18:20:43.508Z","same_different-task_switching-rhyme-phon_sim","","null","same_different","<div style=""font-size:60px"">+</div>","null","","","","","","","","","","","","","","","","","","","","","","","","","","","","","","","","","","",""
"","","","","","html-keyboard-response","118","240225","0.0-5.0-1.28","A2SKY4RRWII0BF","2022-05-18T18:20:43.508Z","same_different-task_switching-rhyme-phon_sim","","1908","same_different","[""<img src=\""square.png\"" width=\""100\"" height=\""100\"" style=\""position: fixed;left:39%;top:47%\""><img src=\""square.png\"" width=\""100\"" height=\""100\"" style=\""position: fixed;left:54%;top:47%\""><img src=\""square.png\"" width=\""100\"" height=\""100\"" style=\""position: fixed;left:46.5%;top:32%\""><img src=\""square.png\"" width=\""100\"" height=\""100\"" style=\""position: fixed;left:46.5%;top:61%\""><div style=\""font-size:60px; text-align: center;margin-top:45.5%\"">+</div><div id=\""first\"" style=\""position: fixed;visibility: hidden;left:40%;top:48%\""><img src=\""same_diff_imgs/C09.gif\""></div><div id=\""delayed\"" style=\""position: fixed;visibility: hidden;left:55%;top:49%\""><img src=\""same_diff_imgs/C14.gif\""></div>""]","arrowdown","identical_image","same_diff_imgs/C09.gif","same_diff_imgs/C14.gif","no","different","","true","1","","","","","","","","","","","","","","","","","","","","","","","","","","",""
"","","","","","html-keyboard-response","119","240228","0.0-5.0-2.28","A2SKY4RRWII0BF","2022-05-18T18:20:43.508Z","same_different-task_switching-rhyme-phon_sim","","null",""," ","null","","","","","","","","","","","","","","","","","","","","","","","","","","","","","","","","","","",""
"","","","","","html-keyboard-response","120","240529","0.0-5.0-3.28","A2SKY4RRWII0BF","2022-05-18T18:20:43.508Z","same_different-task_switching-rhyme-phon_sim","","null","same_different"," ","null","","","","","","","","","","","","","","","","","","","","","","","","","","","","","","","","","","",""
"","","","","","html-keyboard-response","121","241288","0.0-5.0-0.29","A2SKY4RRWII0BF","2022-05-18T18:20:43.508Z","same_different-task_switching-rhyme-phon_sim","","null","same_different","<div style=""font-size:60px"">+</div>","null","","","","","","","","","","","","","","","","","","","","","","","","","","","","","","","","","","",""
"","","","","","html-keyboard-response","122","243109","0.0-5.0-1.29","A2SKY4RRWII0BF","2022-05-18T18:20:43.508Z","same_different-task_switching-rhyme-phon_sim","","1818","same_different","[""<img src=\""square.png\"" width=\""100\"" height=\""100\"" style=\""position: fixed;left:39%;top:47%\""><img src=\""square.png\"" width=\""100\"" height=\""100\"" style=\""position: fixed;left:54%;top:47%\""><img src=\""square.png\"" width=\""100\"" height=\""100\"" style=\""position: fixed;left:46.5%;top:32%\""><img src=\""square.png\"" width=\""100\"" height=\""100\"" style=\""position: fixed;left:46.5%;top:61%\""><div style=\""font-size:60px;text-align: center;margin-top:45.5%\"">+</div><div id=\""first\"" style=\""position: fixed;visibility: hidden;left:48%;top:34%\""><img src=\""same_diff_imgs/D11.gif\"" style=\""-webkit-transform: scaleX(-1);transform: scaleX(-1);\""></div><div id=\""delayed\"" style=\""position: fixed;visibility: hidden;left:48%;top:62%\""><img src=\""same_diff_imgs/C04.gif\"" style=\""-webkit-transform: scaleX(-1);transform: scaleX(-1);\""></div>""]","arrowdown","identical_image","same_diff_imgs/D11.gif","same_diff_imgs/C04.gif","yes","different","","true","1","","","","","","","","","","","","","","","","","","","","","","","","","","",""
"","","","","","html-keyboard-response","123","243114","0.0-5.0-2.29","A2SKY4RRWII0BF","2022-05-18T18:20:43.508Z","same_different-task_switching-rhyme-phon_sim","","null",""," ","null","","","","","","","","","","","","","","","","","","","","","","","","","","","","","","","","","","",""
"","","","","","html-keyboard-response","124","243415","0.0-5.0-3.29","A2SKY4RRWII0BF","2022-05-18T18:20:43.508Z","same_different-task_switching-rhyme-phon_sim","","null","same_different"," ","null","","","","","","","","","","","","","","","","","","","","","","","","","","","","","","","","","","",""
"","","","","","html-keyboard-response","125","244166","0.0-5.0-0.30","A2SKY4RRWII0BF","2022-05-18T18:20:43.508Z","same_different-task_switching-rhyme-phon_sim","","null","same_different","<div style=""font-size:60px"">+</div>","null","","","","","","","","","","","","","","","","","","","","","","","","","","","","","","","","","","",""
"","","","","","html-keyboard-response","126","246141","0.0-5.0-1.30","A2SKY4RRWII0BF","2022-05-18T18:20:43.508Z","same_different-task_switching-rhyme-phon_sim","","1969","same_different","[""<img src=\""square.png\"" width=\""100\"" height=\""100\"" style=\""position: fixed;left:39%;top:47%\""><img src=\""square.png\"" width=\""100\"" height=\""100\"" style=\""position: fixed;left:54%;top:47%\""><img src=\""square.png\"" width=\""100\"" height=\""100\"" style=\""position: fixed;left:46.5%;top:32%\""><img src=\""square.png\"" width=\""100\"" height=\""100\"" style=\""position: fixed;left:46.5%;top:61%\""><div style=\""font-size:60px; text-align: center;margin-top:45.5%\"">+</div><div id=\""first\"" style=\""position: fixed;visibility: hidden;left:48%;top:34%\""><img src=\""same_diff_imgs/D09.gif\""></div><div id=\""delayed\"" style=\""position: fixed;visibility: hidden;left:40%;top:48%\""><img src=\""same_diff_imgs/D09.gif\""></div>""]","arrowup","identical_image","same_diff_imgs/D09.gif","same_diff_imgs/D09.gif","no","same","1","true","","","","","","","","","","","","","","","","","","","","","","","","","","","",""
"","","","","","html-keyboard-response","127","246144","0.0-5.0-2.30","A2SKY4RRWII0BF","2022-05-18T18:20:43.508Z","same_different-task_switching-rhyme-phon_sim","","null",""," ","null","","","","","","","","","","","","","","","","","","","","","","","","","","","","","","","","","","",""
"","","","","","html-keyboard-response","128","246445","0.0-5.0-3.30","A2SKY4RRWII0BF","2022-05-18T18:20:43.508Z","same_different-task_switching-rhyme-phon_sim","","null","same_different"," ","null","","","","","","","","","","","","","","","","","","","","","","","","","","","","","","","","","","",""
"","","","","","html-keyboard-response","129","247197","0.0-5.0-0.31","A2SKY4RRWII0BF","2022-05-18T18:20:43.508Z","same_different-task_switching-rhyme-phon_sim","","null","same_different","<div style=""font-size:60px"">+</div>","null","","","","","","","","","","","","","","","","","","","","","","","","","","","","","","","","","","",""
"","","","","","html-keyboard-response","130","249450","0.0-5.0-1.31","A2SKY4RRWII0BF","2022-05-18T18:20:43.508Z","same_different-task_switching-rhyme-phon_sim","","2248","same_different","[""<img src=\""square.png\"" width=\""100\"" height=\""100\"" style=\""position: fixed;left:39%;top:47%\""><img src=\""square.png\"" width=\""100\"" height=\""100\"" style=\""position: fixed;left:54%;top:47%\""><img src=\""square.png\"" width=\""100\"" height=\""100\"" style=\""position: fixed;left:46.5%;top:32%\""><img src=\""square.png\"" width=\""100\"" height=\""100\"" style=\""position: fixed;left:46.5%;top:61%\""><div style=\""font-size:60px; text-align: center;margin-top:45.5%\"">+</div><div id=\""first\"" style=\""position: fixed;visibility: hidden;left:40%;top:48%\""><img src=\""same_diff_imgs/C09.gif\""></div><div id=\""delayed\"" style=\""position: fixed;visibility: hidden;left:55%;top:49%\""><img src=\""same_diff_imgs/C09.gif\""></div>""]","arrowup","identical_image","same_diff_imgs/C09.gif","same_diff_imgs/C09.gif","no","same","1","true","","","","","","","","","","","","","","","","","","","","","","","","","","","",""
"","","","","","html-keyboard-response","131","249461","0.0-5.0-2.31","A2SKY4RRWII0BF","2022-05-18T18:20:43.508Z","same_different-task_switching-rhyme-phon_sim","","null",""," ","null","","","","","","","","","","","","","","","","","","","","","","","","","","","","","","","","","","",""
"","","","","","html-keyboard-response","132","249765","0.0-5.0-3.31","A2SKY4RRWII0BF","2022-05-18T18:20:43.508Z","same_different-task_switching-rhyme-phon_sim","","null","same_different"," ","null","","","","","","","","","","","","","","","","","","","","","","","","","","","","","","","","","","",""
"","","","","","html-keyboard-response","133","250517","0.0-5.0-0.32","A2SKY4RRWII0BF","2022-05-18T18:20:43.508Z","same_different-task_switching-rhyme-phon_sim","","null","same_different","<div style=""font-size:60px"">+</div>","null","","","","","","","","","","","","","","","","","","","","","","","","","","","","","","","","","","",""
"","","","","","html-keyboard-response","134","252345","0.0-5.0-1.32","A2SKY4RRWII0BF","2022-05-18T18:20:43.508Z","same_different-task_switching-rhyme-phon_sim","","1823","same_different","[""<img src=\""square.png\"" width=\""100\"" height=\""100\"" style=\""position: fixed;left:39%;top:47%\""><img src=\""square.png\"" width=\""100\"" height=\""100\"" style=\""position: fixed;left:54%;top:47%\""><img src=\""square.png\"" width=\""100\"" height=\""100\"" style=\""position: fixed;left:46.5%;top:32%\""><img src=\""square.png\"" width=\""100\"" height=\""100\"" style=\""position: fixed;left:46.5%;top:61%\""><div style=\""font-size:60px;text-align: center;margin-top:45.5%\"">+</div><div id=\""first\"" style=\""position: fixed;visibility: hidden;left:48%;top:62%\""><img src=\""same_diff_imgs/D09.gif\"" style=\""-webkit-transform: scaleX(-1);transform: scaleX(-1);\""></div><div id=\""delayed\"" style=\""position: fixed;visibility: hidden;left:48%;top:34%\""><img src=\""same_diff_imgs/C09.gif\"" style=\""-webkit-transform: scaleX(-1);transform: scaleX(-1);\""></div>""]","arrowdown","identical_image","same_diff_imgs/D09.gif","same_diff_imgs/C09.gif","yes","different","","true","1","","","","","","","","","","","","","","","","","","","","","","","","","","",""
"","","","","","html-keyboard-response","135","252349","0.0-5.0-2.32","A2SKY4RRWII0BF","2022-05-18T18:20:43.508Z","same_different-task_switching-rhyme-phon_sim","","null",""," ","null","","","","","","","","","","","","","","","","","","","","","","","","","","","","","","","","","","",""
"","","","","","html-keyboard-response","136","252651","0.0-5.0-3.32","A2SKY4RRWII0BF","2022-05-18T18:20:43.508Z","same_different-task_switching-rhyme-phon_sim","","null","same_different"," ","null","","","","","","","","","","","","","","","","","","","","","","","","","","","","","","","","","","",""
"","","","","","html-keyboard-response","137","253404","0.0-5.0-0.33","A2SKY4RRWII0BF","2022-05-18T18:20:43.508Z","same_different-task_switching-rhyme-phon_sim","","null","same_different","<div style=""font-size:60px"">+</div>","null","","","","","","","","","","","","","","","","","","","","","","","","","","","","","","","","","","",""
"","","","","","html-keyboard-response","138","255298","0.0-5.0-1.33","A2SKY4RRWII0BF","2022-05-18T18:20:43.508Z","same_different-task_switching-rhyme-phon_sim","","1891","same_different","[""<img src=\""square.png\"" width=\""100\"" height=\""100\"" style=\""position: fixed;left:39%;top:47%\""><img src=\""square.png\"" width=\""100\"" height=\""100\"" style=\""position: fixed;left:54%;top:47%\""><img src=\""square.png\"" width=\""100\"" height=\""100\"" style=\""position: fixed;left:46.5%;top:32%\""><img src=\""square.png\"" width=\""100\"" height=\""100\"" style=\""position: fixed;left:46.5%;top:61%\""><div style=\""font-size:60px; text-align: center;margin-top:45.5%\"">+</div><div id=\""first\"" style=\""position: fixed;visibility: hidden;left:40%;top:48%\""><img src=\""same_diff_imgs/D11.gif\""></div><div id=\""delayed\"" style=\""position: fixed;visibility: hidden;left:48%;top:34%\""><img src=\""same_diff_imgs/C09.gif\""></div>""]","arrowdown","identical_image","same_diff_imgs/D11.gif","same_diff_imgs/C09.gif","no","different","","true","1","","","","","","","","","","","","","","","","","","","","","","","","","","",""
"","","","","","html-keyboard-response","139","255301","0.0-5.0-2.33","A2SKY4RRWII0BF","2022-05-18T18:20:43.508Z","same_different-task_switching-rhyme-phon_sim","","null",""," ","null","","","","","","","","","","","","","","","","","","","","","","","","","","","","","","","","","","",""
"","","","","","html-keyboard-response","140","255602","0.0-5.0-3.33","A2SKY4RRWII0BF","2022-05-18T18:20:43.508Z","same_different-task_switching-rhyme-phon_sim","","null","same_different"," ","null","","","","","","","","","","","","","","","","","","","","","","","","","","","","","","","","","","",""
"","","","","","html-keyboard-response","141","256353","0.0-5.0-0.34","A2SKY4RRWII0BF","2022-05-18T18:20:43.508Z","same_different-task_switching-rhyme-phon_sim","","null","same_different","<div style=""font-size:60px"">+</div>","null","","","","","","","","","","","","","","","","","","","","","","","","","","","","","","","","","","",""
"","","","","","html-keyboard-response","142","258343","0.0-5.0-1.34","A2SKY4RRWII0BF","2022-05-18T18:20:43.508Z","same_different-task_switching-rhyme-phon_sim","","1987","same_different","[""<img src=\""square.png\"" width=\""100\"" height=\""100\"" style=\""position: fixed;left:39%;top:47%\""><img src=\""square.png\"" width=\""100\"" height=\""100\"" style=\""position: fixed;left:54%;top:47%\""><img src=\""square.png\"" width=\""100\"" height=\""100\"" style=\""position: fixed;left:46.5%;top:32%\""><img src=\""square.png\"" width=\""100\"" height=\""100\"" style=\""position: fixed;left:46.5%;top:61%\""><div style=\""font-size:60px;text-align: center;margin-top:45.5%\"">+</div><div id=\""first\"" style=\""position: fixed;visibility: hidden;left:55%;top:49%\""><img src=\""same_diff_imgs/C09.gif\"" style=\""-webkit-transform: scaleX(-1);transform: scaleX(-1);\""></div><div id=\""delayed\"" style=\""position: fixed;visibility: hidden;left:48%;top:62%\""><img src=\""same_diff_imgs/D09.gif\"" style=\""-webkit-transform: scaleX(-1);transform: scaleX(-1);\""></div>""]","arrowdown","identical_image","same_diff_imgs/C09.gif","same_diff_imgs/D09.gif","yes","different","","true","1","","","","","","","","","","","","","","","","","","","","","","","","","","",""
"","","","","","html-keyboard-response","143","258347","0.0-5.0-2.34","A2SKY4RRWII0BF","2022-05-18T18:20:43.508Z","same_different-task_switching-rhyme-phon_sim","","null",""," ","null","","","","","","","","","","","","","","","","","","","","","","","","","","","","","","","","","","",""
"","","","","","html-keyboard-response","144","258648","0.0-5.0-3.34","A2SKY4RRWII0BF","2022-05-18T18:20:43.508Z","same_different-task_switching-rhyme-phon_sim","","null","same_different"," ","null","","","","","","","","","","","","","","","","","","","","","","","","","","","","","","","","","","",""
"","","","","","html-keyboard-response","145","259398","0.0-5.0-0.35","A2SKY4RRWII0BF","2022-05-18T18:20:43.508Z","same_different-task_switching-rhyme-phon_sim","","null","same_different","<div style=""font-size:60px"">+</div>","null","","","","","","","","","","","","","","","","","","","","","","","","","","","","","","","","","","",""
"","","","","","html-keyboard-response","146","261128","0.0-5.0-1.35","A2SKY4RRWII0BF","2022-05-18T18:20:43.508Z","same_different-task_switching-rhyme-phon_sim","","1728","same_different","[""<img src=\""square.png\"" width=\""100\"" height=\""100\"" style=\""position: fixed;left:39%;top:47%\""><img src=\""square.png\"" width=\""100\"" height=\""100\"" style=\""position: fixed;left:54%;top:47%\""><img src=\""square.png\"" width=\""100\"" height=\""100\"" style=\""position: fixed;left:46.5%;top:32%\""><img src=\""square.png\"" width=\""100\"" height=\""100\"" style=\""position: fixed;left:46.5%;top:61%\""><div style=\""font-size:60px; text-align: center;margin-top:45.5%\"">+</div><div id=\""first\"" style=\""position: fixed;visibility: hidden;left:48%;top:62%\""><img src=\""same_diff_imgs/D09.gif\""></div><div id=\""delayed\"" style=\""position: fixed;visibility: hidden;left:55%;top:49%\""><img src=\""same_diff_imgs/C04.gif\""></div>""]","arrowdown","identical_image","same_diff_imgs/D09.gif","same_diff_imgs/C04.gif","no","different","","true","1","","","","","","","","","","","","","","","","","","","","","","","","","","",""
"","","","","","html-keyboard-response","147","261131","0.0-5.0-2.35","A2SKY4RRWII0BF","2022-05-18T18:20:43.508Z","same_different-task_switching-rhyme-phon_sim","","null",""," ","null","","","","","","","","","","","","","","","","","","","","","","","","","","","","","","","","","","",""
"","","","","","html-keyboard-response","148","261432","0.0-5.0-3.35","A2SKY4RRWII0BF","2022-05-18T18:20:43.508Z","same_different-task_switching-rhyme-phon_sim","","null","same_different"," ","null","","","","","","","","","","","","","","","","","","","","","","","","","","","","","","","","","","",""
"","","","","","html-keyboard-response","149","262183","0.0-5.0-0.36","A2SKY4RRWII0BF","2022-05-18T18:20:43.508Z","same_different-task_switching-rhyme-phon_sim","","null","same_different","<div style=""font-size:60px"">+</div>","null","","","","","","","","","","","","","","","","","","","","","","","","","","","","","","","","","","",""
"","","","","","html-keyboard-response","150","264017","0.0-5.0-1.36","A2SKY4RRWII0BF","2022-05-18T18:20:43.508Z","same_different-task_switching-rhyme-phon_sim","","1832","same_different","[""<img src=\""square.png\"" width=\""100\"" height=\""100\"" style=\""position: fixed;left:39%;top:47%\""><img src=\""square.png\"" width=\""100\"" height=\""100\"" style=\""position: fixed;left:54%;top:47%\""><img src=\""square.png\"" width=\""100\"" height=\""100\"" style=\""position: fixed;left:46.5%;top:32%\""><img src=\""square.png\"" width=\""100\"" height=\""100\"" style=\""position: fixed;left:46.5%;top:61%\""><div style=\""font-size:60px;text-align: center;margin-top:45.5%\"">+</div><div id=\""first\"" style=\""position: fixed;visibility: hidden;left:40%;top:48%\""><img src=\""same_diff_imgs/C14.gif\"" style=\""-webkit-transform: scaleX(-1);transform: scaleX(-1);\""></div><div id=\""delayed\"" style=\""position: fixed;visibility: hidden;left:48%;top:62%\""><img src=\""same_diff_imgs/D07.gif\"" style=\""-webkit-transform: scaleX(-1);transform: scaleX(-1);\""></div>""]","arrowdown","identical_image","same_diff_imgs/C14.gif","same_diff_imgs/D07.gif","yes","different","","true","1","","","","","","","","","","","","","","","","","","","","","","","","","","",""
"","","","","","html-keyboard-response","151","264020","0.0-5.0-2.36","A2SKY4RRWII0BF","2022-05-18T18:20:43.508Z","same_different-task_switching-rhyme-phon_sim","","null",""," ","null","","","","","","","","","","","","","","","","","","","","","","","","","","","","","","","","","","",""
"","","","","","html-keyboard-response","152","264321","0.0-5.0-3.36","A2SKY4RRWII0BF","2022-05-18T18:20:43.508Z","same_different-task_switching-rhyme-phon_sim","","null","same_different"," ","null","","","","","","","","","","","","","","","","","","","","","","","","","","","","","","","","","","",""
"","","","","","html-keyboard-response","153","265075","0.0-5.0-0.37","A2SKY4RRWII0BF","2022-05-18T18:20:43.508Z","same_different-task_switching-rhyme-phon_sim","","null","same_different","<div style=""font-size:60px"">+</div>","null","","","","","","","","","","","","","","","","","","","","","","","","","","","","","","","","","","",""
"","","","","","html-keyboard-response","154","266867","0.0-5.0-1.37","A2SKY4RRWII0BF","2022-05-18T18:20:43.508Z","same_different-task_switching-rhyme-phon_sim","","1790","same_different","[""<img src=\""square.png\"" width=\""100\"" height=\""100\"" style=\""position: fixed;left:39%;top:47%\""><img src=\""square.png\"" width=\""100\"" height=\""100\"" style=\""position: fixed;left:54%;top:47%\""><img src=\""square.png\"" width=\""100\"" height=\""100\"" style=\""position: fixed;left:46.5%;top:32%\""><img src=\""square.png\"" width=\""100\"" height=\""100\"" style=\""position: fixed;left:46.5%;top:61%\""><div style=\""font-size:60px; text-align: center;margin-top:45.5%\"">+</div><div id=\""first\"" style=\""position: fixed;visibility: hidden;left:48%;top:34%\""><img src=\""same_diff_imgs/D11.gif\""></div><div id=\""delayed\"" style=\""position: fixed;visibility: hidden;left:55%;top:49%\""><img src=\""same_diff_imgs/D11.gif\""></div>""]","arrowup","identical_image","same_diff_imgs/D11.gif","same_diff_imgs/D11.gif","no","same","1","true","","","","","","","","","","","","","","","","","","","","","","","","","","","",""
"","","","","","html-keyboard-response","155","266871","0.0-5.0-2.37","A2SKY4RRWII0BF","2022-05-18T18:20:43.508Z","same_different-task_switching-rhyme-phon_sim","","null",""," ","null","","","","","","","","","","","","","","","","","","","","","","","","","","","","","","","","","","",""
"","","","","","html-keyboard-response","156","267173","0.0-5.0-3.37","A2SKY4RRWII0BF","2022-05-18T18:20:43.508Z","same_different-task_switching-rhyme-phon_sim","","null","same_different"," ","null","","","","","","","","","","","","","","","","","","","","","","","","","","","","","","","","","","",""
"","","","","","html-keyboard-response","157","267926","0.0-5.0-0.38","A2SKY4RRWII0BF","2022-05-18T18:20:43.508Z","same_different-task_switching-rhyme-phon_sim","","null","same_different","<div style=""font-size:60px"">+</div>","null","","","","","","","","","","","","","","","","","","","","","","","","","","","","","","","","","","",""
"","","","","","html-keyboard-response","158","269617","0.0-5.0-1.38","A2SKY4RRWII0BF","2022-05-18T18:20:43.508Z","same_different-task_switching-rhyme-phon_sim","","1686","same_different","[""<img src=\""square.png\"" width=\""100\"" height=\""100\"" style=\""position: fixed;left:39%;top:47%\""><img src=\""square.png\"" width=\""100\"" height=\""100\"" style=\""position: fixed;left:54%;top:47%\""><img src=\""square.png\"" width=\""100\"" height=\""100\"" style=\""position: fixed;left:46.5%;top:32%\""><img src=\""square.png\"" width=\""100\"" height=\""100\"" style=\""position: fixed;left:46.5%;top:61%\""><div style=\""font-size:60px; text-align: center;margin-top:45.5%\"">+</div><div id=\""first\"" style=\""position: fixed;visibility: hidden;left:55%;top:49%\""><img src=\""same_diff_imgs/D11.gif\""></div><div id=\""delayed\"" style=\""position: fixed;visibility: hidden;left:40%;top:48%\""><img src=\""same_diff_imgs/C04.gif\""></div>""]","arrowdown","identical_image","same_diff_imgs/D11.gif","same_diff_imgs/C04.gif","no","different","","true","1","","","","","","","","","","","","","","","","","","","","","","","","","","",""
"","","","","","html-keyboard-response","159","269622","0.0-5.0-2.38","A2SKY4RRWII0BF","2022-05-18T18:20:43.508Z","same_different-task_switching-rhyme-phon_sim","","null",""," ","null","","","","","","","","","","","","","","","","","","","","","","","","","","","","","","","","","","",""
"","","","","","html-keyboard-response","160","269924","0.0-5.0-3.38","A2SKY4RRWII0BF","2022-05-18T18:20:43.508Z","same_different-task_switching-rhyme-phon_sim","","null","same_different"," ","null","","","","","","","","","","","","","","","","","","","","","","","","","","","","","","","","","","",""
"","","","","","html-keyboard-response","161","270675","0.0-5.0-0.39","A2SKY4RRWII0BF","2022-05-18T18:20:43.508Z","same_different-task_switching-rhyme-phon_sim","","null","same_different","<div style=""font-size:60px"">+</div>","null","","","","","","","","","","","","","","","","","","","","","","","","","","","","","","","","","","",""
"","","","","","html-keyboard-response","162","272865","0.0-5.0-1.39","A2SKY4RRWII0BF","2022-05-18T18:20:43.508Z","same_different-task_switching-rhyme-phon_sim","","2186","same_different","[""<img src=\""square.png\"" width=\""100\"" height=\""100\"" style=\""position: fixed;left:39%;top:47%\""><img src=\""square.png\"" width=\""100\"" height=\""100\"" style=\""position: fixed;left:54%;top:47%\""><img src=\""square.png\"" width=\""100\"" height=\""100\"" style=\""position: fixed;left:46.5%;top:32%\""><img src=\""square.png\"" width=\""100\"" height=\""100\"" style=\""position: fixed;left:46.5%;top:61%\""><div style=\""font-size:60px; text-align: center;margin-top:45.5%\"">+</div><div id=\""first\"" style=\""position: fixed;visibility: hidden;left:48%;top:62%\""><img src=\""same_diff_imgs/C14.gif\""></div><div id=\""delayed\"" style=\""position: fixed;visibility: hidden;left:48%;top:34%\""><img src=\""same_diff_imgs/C14.gif\""></div>""]","arrowup","identical_image","same_diff_imgs/C14.gif","same_diff_imgs/C14.gif","no","same","1","true","","","","","","","","","","","","","","","","","","","","","","","","","","","",""
"","","","","","html-keyboard-response","163","272875","0.0-5.0-2.39","A2SKY4RRWII0BF","2022-05-18T18:20:43.508Z","same_different-task_switching-rhyme-phon_sim","","null",""," ","null","","","","","","","","","","","","","","","","","","","","","","","","","","","","","","","","","","",""
"","","","","","html-keyboard-response","164","273177","0.0-5.0-3.39","A2SKY4RRWII0BF","2022-05-18T18:20:43.508Z","same_different-task_switching-rhyme-phon_sim","","null","same_different"," ","null","","","","","","","","","","","","","","","","","","","","","","","","","","","","","","","","","","",""
"","","","","","html-keyboard-response","165","273929","0.0-5.0-0.40","A2SKY4RRWII0BF","2022-05-18T18:20:43.508Z","same_different-task_switching-rhyme-phon_sim","","null","same_different","<div style=""font-size:60px"">+</div>","null","","","","","","","","","","","","","","","","","","","","","","","","","","","","","","","","","","",""
"","","","","","html-keyboard-response","166","275729","0.0-5.0-1.40","A2SKY4RRWII0BF","2022-05-18T18:20:43.508Z","same_different-task_switching-rhyme-phon_sim","","1796","same_different","[""<img src=\""square.png\"" width=\""100\"" height=\""100\"" style=\""position: fixed;left:39%;top:47%\""><img src=\""square.png\"" width=\""100\"" height=\""100\"" style=\""position: fixed;left:54%;top:47%\""><img src=\""square.png\"" width=\""100\"" height=\""100\"" style=\""position: fixed;left:46.5%;top:32%\""><img src=\""square.png\"" width=\""100\"" height=\""100\"" style=\""position: fixed;left:46.5%;top:61%\""><div style=\""font-size:60px;text-align: center;margin-top:45.5%\"">+</div><div id=\""first\"" style=\""position: fixed;visibility: hidden;left:48%;top:62%\""><img src=\""same_diff_imgs/C04.gif\"" style=\""-webkit-transform: scaleX(-1);transform: scaleX(-1);\""></div><div id=\""delayed\"" style=\""position: fixed;visibility: hidden;left:55%;top:49%\""><img src=\""same_diff_imgs/C14.gif\"" style=\""-webkit-transform: scaleX(-1);transform: scaleX(-1);\""></div>""]","arrowdown","identical_image","same_diff_imgs/C04.gif","same_diff_imgs/C14.gif","yes","different","","true","1","","","","","","","","","","","","","","","","","","","","","","","","","","",""
"","","","","","html-keyboard-response","167","275733","0.0-5.0-2.40","A2SKY4RRWII0BF","2022-05-18T18:20:43.508Z","same_different-task_switching-rhyme-phon_sim","","null",""," ","null","","","","","","","","","","","","","","","","","","","","","","","","","","","","","","","","","","",""
"","","","","","html-keyboard-response","168","276037","0.0-5.0-3.40","A2SKY4RRWII0BF","2022-05-18T18:20:43.508Z","same_different-task_switching-rhyme-phon_sim","","null","same_different"," ","null","","","","","","","","","","","","","","","","","","","","","","","","","","","","","","","","","","",""
"","","","","","html-keyboard-response","169","276789","0.0-5.0-0.41","A2SKY4RRWII0BF","2022-05-18T18:20:43.508Z","same_different-task_switching-rhyme-phon_sim","","null","same_different","<div style=""font-size:60px"">+</div>","null","","","","","","","","","","","","","","","","","","","","","","","","","","","","","","","","","","",""
"","","","","","html-keyboard-response","170","279124","0.0-5.0-1.41","A2SKY4RRWII0BF","2022-05-18T18:20:43.508Z","same_different-task_switching-rhyme-phon_sim","","2331","same_different","[""<img src=\""square.png\"" width=\""100\"" height=\""100\"" style=\""position: fixed;left:39%;top:47%\""><img src=\""square.png\"" width=\""100\"" height=\""100\"" style=\""position: fixed;left:54%;top:47%\""><img src=\""square.png\"" width=\""100\"" height=\""100\"" style=\""position: fixed;left:46.5%;top:32%\""><img src=\""square.png\"" width=\""100\"" height=\""100\"" style=\""position: fixed;left:46.5%;top:61%\""><div style=\""font-size:60px;text-align: center;margin-top:45.5%\"">+</div><div id=\""first\"" style=\""position: fixed;visibility: hidden;left:55%;top:49%\""><img src=\""same_diff_imgs/C09.gif\"" style=\""-webkit-transform: scaleX(-1);transform: scaleX(-1);\""></div><div id=\""delayed\"" style=\""position: fixed;visibility: hidden;left:48%;top:34%\""><img src=\""same_diff_imgs/C14.gif\"" style=\""-webkit-transform: scaleX(-1);transform: scaleX(-1);\""></div>""]","arrowdown","identical_image","same_diff_imgs/C09.gif","same_diff_imgs/C14.gif","yes","different","","true","1","","","","","","","","","","","","","","","","","","","","","","","","","","",""
"","","","","","html-keyboard-response","171","279129","0.0-5.0-2.41","A2SKY4RRWII0BF","2022-05-18T18:20:43.508Z","same_different-task_switching-rhyme-phon_sim","","null",""," ","null","","","","","","","","","","","","","","","","","","","","","","","","","","","","","","","","","","",""
"","","","","","html-keyboard-response","172","279430","0.0-5.0-3.41","A2SKY4RRWII0BF","2022-05-18T18:20:43.508Z","same_different-task_switching-rhyme-phon_sim","","null","same_different"," ","null","","","","","","","","","","","","","","","","","","","","","","","","","","","","","","","","","","",""
"","","","","","html-keyboard-response","173","280189","0.0-5.0-0.42","A2SKY4RRWII0BF","2022-05-18T18:20:43.508Z","same_different-task_switching-rhyme-phon_sim","","null","same_different","<div style=""font-size:60px"">+</div>","null","","","","","","","","","","","","","","","","","","","","","","","","","","","","","","","","","","",""
"","","","","","html-keyboard-response","174","282664","0.0-5.0-1.42","A2SKY4RRWII0BF","2022-05-18T18:20:43.508Z","same_different-task_switching-rhyme-phon_sim","","2456","same_different","[""<img src=\""square.png\"" width=\""100\"" height=\""100\"" style=\""position: fixed;left:39%;top:47%\""><img src=\""square.png\"" width=\""100\"" height=\""100\"" style=\""position: fixed;left:54%;top:47%\""><img src=\""square.png\"" width=\""100\"" height=\""100\"" style=\""position: fixed;left:46.5%;top:32%\""><img src=\""square.png\"" width=\""100\"" height=\""100\"" style=\""position: fixed;left:46.5%;top:61%\""><div style=\""font-size:60px; text-align: center;margin-top:45.5%\"">+</div><div id=\""first\"" style=\""position: fixed;visibility: hidden;left:55%;top:49%\""><img src=\""same_diff_imgs/C04.gif\""></div><div id=\""delayed\"" style=\""position: fixed;visibility: hidden;left:48%;top:34%\""><img src=\""same_diff_imgs/C04.gif\""></div>""]","arrowup","identical_image","same_diff_imgs/C04.gif","same_diff_imgs/C04.gif","no","same","1","true","","","","","","","","","","","","","","","","","","","","","","","","","","","",""
"","","","","","html-keyboard-response","175","282669","0.0-5.0-2.42","A2SKY4RRWII0BF","2022-05-18T18:20:43.508Z","same_different-task_switching-rhyme-phon_sim","","null",""," ","null","","","","","","","","","","","","","","","","","","","","","","","","","","","","","","","","","","",""
"","","","","","html-keyboard-response","176","282970","0.0-5.0-3.42","A2SKY4RRWII0BF","2022-05-18T18:20:43.508Z","same_different-task_switching-rhyme-phon_sim","","null","same_different"," ","null","","","","","","","","","","","","","","","","","","","","","","","","","","","","","","","","","","",""
"","","","","","html-keyboard-response","177","283722","0.0-5.0-0.43","A2SKY4RRWII0BF","2022-05-18T18:20:43.508Z","same_different-task_switching-rhyme-phon_sim","","null","same_different","<div style=""font-size:60px"">+</div>","null","","","","","","","","","","","","","","","","","","","","","","","","","","","","","","","","","","",""
"","","","","","html-keyboard-response","178","285617","0.0-5.0-1.43","A2SKY4RRWII0BF","2022-05-18T18:20:43.508Z","same_different-task_switching-rhyme-phon_sim","","1891","same_different","[""<img src=\""square.png\"" width=\""100\"" height=\""100\"" style=\""position: fixed;left:39%;top:47%\""><img src=\""square.png\"" width=\""100\"" height=\""100\"" style=\""position: fixed;left:54%;top:47%\""><img src=\""square.png\"" width=\""100\"" height=\""100\"" style=\""position: fixed;left:46.5%;top:32%\""><img src=\""square.png\"" width=\""100\"" height=\""100\"" style=\""position: fixed;left:46.5%;top:61%\""><div style=\""font-size:60px; text-align: center;margin-top:45.5%\"">+</div><div id=\""first\"" style=\""position: fixed;visibility: hidden;left:55%;top:49%\""><img src=\""same_diff_imgs/C14.gif\""></div><div id=\""delayed\"" style=\""position: fixed;visibility: hidden;left:48%;top:62%\""><img src=\""same_diff_imgs/C14.gif\""></div>""]","arrowup","identical_image","same_diff_imgs/C14.gif","same_diff_imgs/C14.gif","no","same","1","true","","","","","","","","","","","","","","","","","","","","","","","","","","","",""
"","","","","","html-keyboard-response","179","285619","0.0-5.0-2.43","A2SKY4RRWII0BF","2022-05-18T18:20:43.508Z","same_different-task_switching-rhyme-phon_sim","","null",""," ","null","","","","","","","","","","","","","","","","","","","","","","","","","","","","","","","","","","",""
"","","","","","html-keyboard-response","180","285920","0.0-5.0-3.43","A2SKY4RRWII0BF","2022-05-18T18:20:43.508Z","same_different-task_switching-rhyme-phon_sim","","null","same_different"," ","null","","","","","","","","","","","","","","","","","","","","","","","","","","","","","","","","","","",""
"","","","","","html-keyboard-response","181","286676","0.0-5.0-0.44","A2SKY4RRWII0BF","2022-05-18T18:20:43.508Z","same_different-task_switching-rhyme-phon_sim","","null","same_different","<div style=""font-size:60px"">+</div>","null","","","","","","","","","","","","","","","","","","","","","","","","","","","","","","","","","","",""
"","","","","","html-keyboard-response","182","288337","0.0-5.0-1.44","A2SKY4RRWII0BF","2022-05-18T18:20:43.508Z","same_different-task_switching-rhyme-phon_sim","","1657","same_different","[""<img src=\""square.png\"" width=\""100\"" height=\""100\"" style=\""position: fixed;left:39%;top:47%\""><img src=\""square.png\"" width=\""100\"" height=\""100\"" style=\""position: fixed;left:54%;top:47%\""><img src=\""square.png\"" width=\""100\"" height=\""100\"" style=\""position: fixed;left:46.5%;top:32%\""><img src=\""square.png\"" width=\""100\"" height=\""100\"" style=\""position: fixed;left:46.5%;top:61%\""><div style=\""font-size:60px; text-align: center;margin-top:45.5%\"">+</div><div id=\""first\"" style=\""position: fixed;visibility: hidden;left:48%;top:62%\""><img src=\""same_diff_imgs/D07.gif\""></div><div id=\""delayed\"" style=\""position: fixed;visibility: hidden;left:55%;top:49%\""><img src=\""same_diff_imgs/D11.gif\""></div>""]","arrowdown","identical_image","same_diff_imgs/D07.gif","same_diff_imgs/D11.gif","no","different","","true","1","","","","","","","","","","","","","","","","","","","","","","","","","","",""
"","","","","","html-keyboard-response","183","288342","0.0-5.0-2.44","A2SKY4RRWII0BF","2022-05-18T18:20:43.508Z","same_different-task_switching-rhyme-phon_sim","","null",""," ","null","","","","","","","","","","","","","","","","","","","","","","","","","","","","","","","","","","",""
"","","","","","html-keyboard-response","184","288643","0.0-5.0-3.44","A2SKY4RRWII0BF","2022-05-18T18:20:43.508Z","same_different-task_switching-rhyme-phon_sim","","null","same_different"," ","null","","","","","","","","","","","","","","","","","","","","","","","","","","","","","","","","","","",""
"","","","","","html-keyboard-response","185","289396","0.0-5.0-0.45","A2SKY4RRWII0BF","2022-05-18T18:20:43.508Z","same_different-task_switching-rhyme-phon_sim","","null","same_different","<div style=""font-size:60px"">+</div>","null","","","","","","","","","","","","","","","","","","","","","","","","","","","","","","","","","","",""
"","","","","","html-keyboard-response","186","291778","0.0-5.0-1.45","A2SKY4RRWII0BF","2022-05-18T18:20:43.508Z","same_different-task_switching-rhyme-phon_sim","","2379","same_different","[""<img src=\""square.png\"" width=\""100\"" height=\""100\"" style=\""position: fixed;left:39%;top:47%\""><img src=\""square.png\"" width=\""100\"" height=\""100\"" style=\""position: fixed;left:54%;top:47%\""><img src=\""square.png\"" width=\""100\"" height=\""100\"" style=\""position: fixed;left:46.5%;top:32%\""><img src=\""square.png\"" width=\""100\"" height=\""100\"" style=\""position: fixed;left:46.5%;top:61%\""><div style=\""font-size:60px; text-align: center;margin-top:45.5%\"">+</div><div id=\""first\"" style=\""position: fixed;visibility: hidden;left:55%;top:49%\""><img src=\""same_diff_imgs/C04.gif\""></div><div id=\""delayed\"" style=\""position: fixed;visibility: hidden;left:40%;top:48%\""><img src=\""same_diff_imgs/C04.gif\""></div>""]","arrowup","identical_image","same_diff_imgs/C04.gif","same_diff_imgs/C04.gif","no","same","1","true","","","","","","","","","","","","","","","","","","","","","","","","","","","",""
"","","","","","html-keyboard-response","187","291786","0.0-5.0-2.45","A2SKY4RRWII0BF","2022-05-18T18:20:43.508Z","same_different-task_switching-rhyme-phon_sim","","null",""," ","null","","","","","","","","","","","","","","","","","","","","","","","","","","","","","","","","","","",""
"","","","","","html-keyboard-response","188","292090","0.0-5.0-3.45","A2SKY4RRWII0BF","2022-05-18T18:20:43.508Z","same_different-task_switching-rhyme-phon_sim","","null","same_different"," ","null","","","","","","","","","","","","","","","","","","","","","","","","","","","","","","","","","","",""
"","","","","","html-keyboard-response","189","292845","0.0-5.0-0.46","A2SKY4RRWII0BF","2022-05-18T18:20:43.508Z","same_different-task_switching-rhyme-phon_sim","","null","same_different","<div style=""font-size:60px"">+</div>","null","","","","","","","","","","","","","","","","","","","","","","","","","","","","","","","","","","",""
