"success","timeout","failed_images","failed_audio","failed_video","trial_type","trial_index","time_elapsed","internal_node_id","worker_id","start_time","experiment_order","view_history","rt","experiment","response","phase","stimulus","condition","answer","correct","operation","symbol_cue","trial_no","color_cue","question_order","talk_out_loud","strategy_free_ans","judgment_type","stim_1","stim_2","inverted","true_neg","true_pos","false_pos","false_neg","wait_time","image_1","image_2","cor_key","type"
"true","false","[]","[]","[]","preload","0","8638","0.0-0.0","A1BM57TUNAQIXM","2022-05-19T03:36:11.572Z","task_switching-same_different-rhyme-phon_sim","","","","","","","","","","","","","","","","","","","","","","","","","","","","",""
"","","","","","instructions","1","413186","0.0-1.0","A1BM57TUNAQIXM","2022-05-19T03:36:11.572Z","task_switching-same_different-rhyme-phon_sim","[{""page_index"":0,""viewing_time"":404549.5}]","404549.700000003","","","","","","","","","","","","","","","","","","","","","","","","","","",""
"true","","","","","fullscreen","2","415519","0.0-2.0","A1BM57TUNAQIXM","2022-05-19T03:36:11.572Z","task_switching-same_different-rhyme-phon_sim","","","","","","","","","","","","","","","","","","","","","","","","","","","","",""
"","","","","","instructions","3","433867","0.0-3.0","A1BM57TUNAQIXM","2022-05-19T03:36:11.572Z","task_switching-same_different-rhyme-phon_sim","[{""page_index"":0,""viewing_time"":18345.70000000298}]","18346","task_switching","","","","","","","","","","","","","","","","","","","","","","","","","",""
"","","","","","instructions","4","436953","0.0-4.0","A1BM57TUNAQIXM","2022-05-19T03:36:11.572Z","task_switching-same_different-rhyme-phon_sim","[{""page_index"":0,""viewing_time"":3083.6999999955297}]","3083.89999999851","task_switching","","","","","","","","","","","","","","","","","","","","","","","","","",""
"","","","","","survey-text","5","439305","0.0-5.0","A1BM57TUNAQIXM","2022-05-19T03:36:11.572Z","task_switching-same_different-rhyme-phon_sim","","2345.8000000044703","task_switching","{""subtraction_ans"":""33""}","training","35","subtraction","33","false","subtract","","","","","","","","","","","","","","","","","","",""
"","","","","","html-keyboard-response","6","444308","0.0-6.0","A1BM57TUNAQIXM","2022-05-19T03:36:11.572Z","task_switching-same_different-rhyme-phon_sim","","null","task_switching","null","training","<div style=""color:darkred; font-size:40px"">Right direction but be careful with the numbers.<p> Correct answer: 32</p></div>","subtraction","","","","","","","","","","","","","","","","","","","","","",""
"","","","","","survey-text","7","450559","0.0-7.0","A1BM57TUNAQIXM","2022-05-19T03:36:11.572Z","task_switching-same_different-rhyme-phon_sim","","6247.39999999851","task_switching","{""subtraction_ans"":""86""}","training","89","subtraction","86","true","subtract","","","","","","","","","","","","","","","","","","",""
"","","","","","html-keyboard-response","8","451568","0.0-8.0","A1BM57TUNAQIXM","2022-05-19T03:36:11.572Z","task_switching-same_different-rhyme-phon_sim","","null","task_switching","null","training","<div style=""color:darkgreen; font-size:60px"">Well done!</div>","subtraction","","","","","","","","","","","","","","","","","","","","","",""
"","","","","","survey-text","9","453584","0.0-9.0","A1BM57TUNAQIXM","2022-05-19T03:36:11.572Z","task_switching-same_different-rhyme-phon_sim","","2012","task_switching","{""subtraction_ans"":""18""}","training","21","subtraction","18","true","subtract","","","","","","","","","","","","","","","","","","",""
"","","","","","html-keyboard-response","10","454593","0.0-10.0","A1BM57TUNAQIXM","2022-05-19T03:36:11.572Z","task_switching-same_different-rhyme-phon_sim","","null","task_switching","null","training","<div style=""color:darkgreen; font-size:60px"">Well done!</div>","subtraction","","","","","","","","","","","","","","","","","","","","","",""
"","","","","","survey-text","11","456272","0.0-11.0","A1BM57TUNAQIXM","2022-05-19T03:36:11.572Z","task_switching-same_different-rhyme-phon_sim","","1674.7999999970198","task_switching","{""subtraction_ans"":""15""}","training","18","subtraction","15","true","subtract","","","","","","","","","","","","","","","","","","",""
"","","","","","html-keyboard-response","12","457289","0.0-12.0","A1BM57TUNAQIXM","2022-05-19T03:36:11.572Z","task_switching-same_different-rhyme-phon_sim","","null","task_switching","null","training","<div style=""color:darkgreen; font-size:60px"">Well done!</div>","subtraction","","","","","","","","","","","","","","","","","","","","","",""
"","","","","","survey-text","13","460544","0.0-13.0","A1BM57TUNAQIXM","2022-05-19T03:36:11.572Z","task_switching-same_different-rhyme-phon_sim","","3249.6999999955297","task_switching","{""subtraction_ans"":""46""}","training","49","subtraction","46","true","subtract","","","","","","","","","","","","","","","","","","",""
"","","","","","html-keyboard-response","14","461548","0.0-14.0","A1BM57TUNAQIXM","2022-05-19T03:36:11.572Z","task_switching-same_different-rhyme-phon_sim","","null","task_switching","null","training","<div style=""color:darkgreen; font-size:60px"">Well done!</div>","subtraction","","","","","","","","","","","","","","","","","","","","","",""
"","","","","","survey-text","15","464095","0.0-15.0","A1BM57TUNAQIXM","2022-05-19T03:36:11.572Z","task_switching-same_different-rhyme-phon_sim","","2541.39999999851","task_switching","{""subtraction_ans"":""43""}","training","46","subtraction","43","true","subtract","","","","","","","","","","","","","","","","","","",""
"","","","","","html-keyboard-response","16","465102","0.0-16.0","A1BM57TUNAQIXM","2022-05-19T03:36:11.572Z","task_switching-same_different-rhyme-phon_sim","","null","task_switching","null","training","<div style=""color:darkgreen; font-size:60px"">Well done!</div>","subtraction","","","","","","","","","","","","","","","","","","","","","",""
"","","","","","survey-text","17","466446","0.0-17.0","A1BM57TUNAQIXM","2022-05-19T03:36:11.572Z","task_switching-same_different-rhyme-phon_sim","","1338.1999999955297","task_switching","{""subtraction_ans"":""10""}","training","13","subtraction","10","true","subtract","","","","","","","","","","","","","","","","","","",""
"","","","","","html-keyboard-response","18","467451","0.0-18.0","A1BM57TUNAQIXM","2022-05-19T03:36:11.572Z","task_switching-same_different-rhyme-phon_sim","","null","task_switching","null","training","<div style=""color:darkgreen; font-size:60px"">Well done!</div>","subtraction","","","","","","","","","","","","","","","","","","","","","",""
"","","","","","survey-text","19","468852","0.0-19.0","A1BM57TUNAQIXM","2022-05-19T03:36:11.572Z","task_switching-same_different-rhyme-phon_sim","","1398.6000000014901","task_switching","{""subtraction_ans"":""30""}","training","33","subtraction","30","true","subtract","","","","","","","","","","","","","","","","","","",""
"","","","","","html-keyboard-response","20","469869","0.0-20.0","A1BM57TUNAQIXM","2022-05-19T03:36:11.572Z","task_switching-same_different-rhyme-phon_sim","","null","task_switching","null","training","<div style=""color:darkgreen; font-size:60px"">Well done!</div>","subtraction","","","","","","","","","","","","","","","","","","","","","",""
"","","","","","survey-text","21","472186","0.0-21.0","A1BM57TUNAQIXM","2022-05-19T03:36:11.572Z","task_switching-same_different-rhyme-phon_sim","","2310.10000000149","task_switching","{""subtraction_ans"":""44""}","training","47","subtraction","44","true","subtract","","","","","","","","","","","","","","","","","","",""
"","","","","","html-keyboard-response","22","473194","0.0-22.0","A1BM57TUNAQIXM","2022-05-19T03:36:11.572Z","task_switching-same_different-rhyme-phon_sim","","null","task_switching","null","training","<div style=""color:darkgreen; font-size:60px"">Well done!</div>","subtraction","","","","","","","","","","","","","","","","","","","","","",""
"","","","","","survey-text","23","479952","0.0-23.0","A1BM57TUNAQIXM","2022-05-19T03:36:11.572Z","task_switching-same_different-rhyme-phon_sim","","6753.89999999851","task_switching","{""subtraction_ans"":""88""}","training","91","subtraction","88","true","subtract","","","","","","","","","","","","","","","","","","",""
"","","","","","html-keyboard-response","24","480961","0.0-24.0","A1BM57TUNAQIXM","2022-05-19T03:36:11.572Z","task_switching-same_different-rhyme-phon_sim","","null","task_switching","null","training","<div style=""color:darkgreen; font-size:60px"">Well done!</div>","subtraction","","","","","","","","","","","","","","","","","","","","","",""
"","","","","","instructions","25","482375","0.0-25.0","A1BM57TUNAQIXM","2022-05-19T03:36:11.572Z","task_switching-same_different-rhyme-phon_sim","[{""page_index"":0,""viewing_time"":1413.6000000014901}]","1413.8999999985099","task_switching","","","","","","","","","","","","","","","","","","","","","","","","","",""
"","","","","","survey-text","26","484506","0.0-26.0","A1BM57TUNAQIXM","2022-05-19T03:36:11.572Z","task_switching-same_different-rhyme-phon_sim","","2128.9000000059605","task_switching","{""subtraction_ans"":""48""}","experiment","51","subtraction","48","true","subtract","","","","","","","","","","","","","","","","","","",""
"","","","","","survey-text","27","487620","0.0-27.0","A1BM57TUNAQIXM","2022-05-19T03:36:11.572Z","task_switching-same_different-rhyme-phon_sim","","3110","task_switching","{""subtraction_ans"":""55""}","experiment","58","subtraction","55","true","subtract","","","","","","","","","","","","","","","","","","",""
"","","","","","survey-text","28","489581","0.0-28.0","A1BM57TUNAQIXM","2022-05-19T03:36:11.572Z","task_switching-same_different-rhyme-phon_sim","","1959.2999999970198","task_switching","{""subtraction_ans"":""71""}","experiment","74","subtraction","71","true","subtract","","","","","","","","","","","","","","","","","","",""
"","","","","","survey-text","29","495108","0.0-29.0","A1BM57TUNAQIXM","2022-05-19T03:36:11.572Z","task_switching-same_different-rhyme-phon_sim","","5525.29999999702","task_switching","{""subtraction_ans"":""38""}","experiment","41","subtraction","38","true","subtract","","","","","","","","","","","","","","","","","","",""
"","","","","","survey-text","30","501714","0.0-30.0","A1BM57TUNAQIXM","2022-05-19T03:36:11.572Z","task_switching-same_different-rhyme-phon_sim","","6598.19999999553","task_switching","{""subtraction_ans"":""96""}","experiment","99","subtraction","96","true","subtract","","","","","","","","","","","","","","","","","","",""
"","","","","","survey-text","31","506247","0.0-31.0","A1BM57TUNAQIXM","2022-05-19T03:36:11.572Z","task_switching-same_different-rhyme-phon_sim","","4531.60000000149","task_switching","{""subtraction_ans"":""79""}","experiment","82","subtraction","79","true","subtract","","","","","","","","","","","","","","","","","","",""
"","","","","","survey-text","32","508902","0.0-32.0","A1BM57TUNAQIXM","2022-05-19T03:36:11.572Z","task_switching-same_different-rhyme-phon_sim","","2653.4000000059605","task_switching","{""subtraction_ans"":""34""}","experiment","37","subtraction","34","true","subtract","","","","","","","","","","","","","","","","","","",""
"","","","","","survey-text","33","510486","0.0-33.0","A1BM57TUNAQIXM","2022-05-19T03:36:11.572Z","task_switching-same_different-rhyme-phon_sim","","1578.1999999955297","task_switching","{""subtraction_ans"":""30""}","experiment","33","subtraction","30","true","subtract","","","","","","","","","","","","","","","","","","",""
"","","","","","survey-text","34","512891","0.0-34.0","A1BM57TUNAQIXM","2022-05-19T03:36:11.572Z","task_switching-same_different-rhyme-phon_sim","","2399.5","task_switching","{""subtraction_ans"":""39""}","experiment","42","subtraction","39","true","subtract","","","","","","","","","","","","","","","","","","",""
"","","","","","survey-text","35","520982","0.0-35.0","A1BM57TUNAQIXM","2022-05-19T03:36:11.572Z","task_switching-same_different-rhyme-phon_sim","","8086.89999999851","task_switching","{""subtraction_ans"":""24""}","experiment","27","subtraction","24","true","subtract","","","","","","","","","","","","","","","","","","",""
"","","","","","survey-text","36","526042","0.0-36.0","A1BM57TUNAQIXM","2022-05-19T03:36:11.572Z","task_switching-same_different-rhyme-phon_sim","","5058.39999999851","task_switching","{""subtraction_ans"":""77""}","experiment","79","subtraction","77","false","subtract","","","","","","","","","","","","","","","","","","",""
"","","","","","survey-text","37","530882","0.0-37.0","A1BM57TUNAQIXM","2022-05-19T03:36:11.572Z","task_switching-same_different-rhyme-phon_sim","","4833.9000000059605","task_switching","{""subtraction_ans"":""73""}","experiment","76","subtraction","73","true","subtract","","","","","","","","","","","","","","","","","","",""
"","","","","","survey-text","38","533266","0.0-38.0","A1BM57TUNAQIXM","2022-05-19T03:36:11.572Z","task_switching-same_different-rhyme-phon_sim","","2376.39999999851","task_switching","{""subtraction_ans"":""29""}","experiment","32","subtraction","29","true","subtract","","","","","","","","","","","","","","","","","","",""
"","","","","","survey-text","39","537288","0.0-39.0","A1BM57TUNAQIXM","2022-05-19T03:36:11.572Z","task_switching-same_different-rhyme-phon_sim","","4016.5","task_switching","{""subtraction_ans"":""61""}","experiment","64","subtraction","61","true","subtract","","","","","","","","","","","","","","","","","","",""
"","","","","","survey-text","40","540327","0.0-40.0","A1BM57TUNAQIXM","2022-05-19T03:36:11.572Z","task_switching-same_different-rhyme-phon_sim","","3035.7000000029802","task_switching","{""subtraction_ans"":""83""}","experiment","86","subtraction","83","true","subtract","","","","","","","","","","","","","","","","","","",""
"","","","","","survey-text","41","541967","0.0-41.0","A1BM57TUNAQIXM","2022-05-19T03:36:11.572Z","task_switching-same_different-rhyme-phon_sim","","1636.0999999940395","task_switching","{""subtraction_ans"":""27""}","experiment","30","subtraction","27","true","subtract","","","","","","","","","","","","","","","","","","",""
"","","","","","survey-text","42","545155","0.0-42.0","A1BM57TUNAQIXM","2022-05-19T03:36:11.572Z","task_switching-same_different-rhyme-phon_sim","","3185.2999999970198","task_switching","{""subtraction_ans"":""93""}","experiment","96","subtraction","93","true","subtract","","","","","","","","","","","","","","","","","","",""
"","","","","","survey-text","43","547644","0.0-43.0","A1BM57TUNAQIXM","2022-05-19T03:36:11.572Z","task_switching-same_different-rhyme-phon_sim","","2487.10000000149","task_switching","{""subtraction_ans"":""32""}","experiment","35","subtraction","32","true","subtract","","","","","","","","","","","","","","","","","","",""
"","","","","","survey-text","44","549065","0.0-44.0","A1BM57TUNAQIXM","2022-05-19T03:36:11.572Z","task_switching-same_different-rhyme-phon_sim","","1414.2999999970198","task_switching","{""subtraction_ans"":""11""}","experiment","14","subtraction","11","true","subtract","","","","","","","","","","","","","","","","","","",""
"","","","","","survey-text","45","552667","0.0-45.0","A1BM57TUNAQIXM","2022-05-19T03:36:11.572Z","task_switching-same_different-rhyme-phon_sim","","3597.89999999851","task_switching","{""subtraction_ans"":""66""}","experiment","69","subtraction","66","true","subtract","","","","","","","","","","","","","","","","","","",""
"","","","","","survey-text","46","555265","0.0-46.0","A1BM57TUNAQIXM","2022-05-19T03:36:11.572Z","task_switching-same_different-rhyme-phon_sim","","2596.7999999970198","task_switching","{""subtraction_ans"":""53""}","experiment","56","subtraction","53","true","subtract","","","","","","","","","","","","","","","","","","",""
"","","","","","survey-text","47","556866","0.0-47.0","A1BM57TUNAQIXM","2022-05-19T03:36:11.572Z","task_switching-same_different-rhyme-phon_sim","","1598.6000000014901","task_switching","{""subtraction_ans"":""22""}","experiment","25","subtraction","22","true","subtract","","","","","","","","","","","","","","","","","","",""
"","","","","","survey-text","48","559004","0.0-48.0","A1BM57TUNAQIXM","2022-05-19T03:36:11.572Z","task_switching-same_different-rhyme-phon_sim","","2134.89999999851","task_switching","{""subtraction_ans"":""25""}","experiment","28","subtraction","25","true","subtract","","","","","","","","","","","","","","","","","","",""
"","","","","","survey-text","49","561730","0.0-49.0","A1BM57TUNAQIXM","2022-05-19T03:36:11.572Z","task_switching-same_different-rhyme-phon_sim","","2724","task_switching","{""subtraction_ans"":""62""}","experiment","75","subtraction","62","false","subtract","","","","","","","","","","","","","","","","","","",""
"","","","","","survey-text","50","578077","0.0-50.0","A1BM57TUNAQIXM","2022-05-19T03:36:11.572Z","task_switching-same_different-rhyme-phon_sim","","16341.60000000149","task_switching","{""subtraction_ans"":""87""}","experiment","91","subtraction","87","false","subtract","","","","","","","","","","","","","","","","","","",""
"","","","","","survey-text","51","579779","0.0-51.0","A1BM57TUNAQIXM","2022-05-19T03:36:11.572Z","task_switching-same_different-rhyme-phon_sim","","1696.6999999955297","task_switching","{""subtraction_ans"":""91""}","experiment","94","subtraction","91","true","subtract","","","","","","","","","","","","","","","","","","",""
"","","","","","survey-text","52","582513","0.0-52.0","A1BM57TUNAQIXM","2022-05-19T03:36:11.572Z","task_switching-same_different-rhyme-phon_sim","","2729.5","task_switching","{""subtraction_ans"":""37""}","experiment","40","subtraction","37","true","subtract","","","","","","","","","","","","","","","","","","",""
"","","","","","survey-text","53","584202","0.0-53.0","A1BM57TUNAQIXM","2022-05-19T03:36:11.572Z","task_switching-same_different-rhyme-phon_sim","","1686.7000000029802","task_switching","{""subtraction_ans"":""80""}","experiment","83","subtraction","80","true","subtract","","","","","","","","","","","","","","","","","","",""
"","","","","","survey-text","54","586970","0.0-54.0","A1BM57TUNAQIXM","2022-05-19T03:36:11.572Z","task_switching-same_different-rhyme-phon_sim","","2766.10000000149","task_switching","{""subtraction_ans"":""85""}","experiment","88","subtraction","85","true","subtract","","","","","","","","","","","","","","","","","","",""
"","","","","","survey-text","55","588544","0.0-55.0","A1BM57TUNAQIXM","2022-05-19T03:36:11.572Z","task_switching-same_different-rhyme-phon_sim","","1572.5","task_switching","{""subtraction_ans"":""20""}","experiment","23","subtraction","20","true","subtract","","","","","","","","","","","","","","","","","","",""
"","","","","","instructions","56","591948","0.0-56.0","A1BM57TUNAQIXM","2022-05-19T03:36:11.572Z","task_switching-same_different-rhyme-phon_sim","[{""page_index"":0,""viewing_time"":3403.10000000149}]","3403.39999999851","task_switching","","","","","","","","","","","","","","","","","","","","","","","","","",""
"","","","","","survey-text","57","594523","0.0-57.0","A1BM57TUNAQIXM","2022-05-19T03:36:11.572Z","task_switching-same_different-rhyme-phon_sim","","2572.5","task_switching","{""addition_ans"":""22""}","training","19","addition","22","true","add","","","","","","","","","","","","","","","","","","",""
"","","","","","html-keyboard-response","58","595540","0.0-58.0","A1BM57TUNAQIXM","2022-05-19T03:36:11.572Z","task_switching-same_different-rhyme-phon_sim","","null","task_switching","null","training","<div style=""color:darkgreen; font-size:60px"">Well done!</div>","addition","","","","","","","","","","","","","","","","","","","","","",""
"","","","","","survey-text","59","598002","0.0-59.0","A1BM57TUNAQIXM","2022-05-19T03:36:11.572Z","task_switching-same_different-rhyme-phon_sim","","2457.2999999970198","task_switching","{""addition_ans"":""60""}","training","57","addition","60","true","add","","","","","","","","","","","","","","","","","","",""
"","","","","","html-keyboard-response","60","599005","0.0-60.0","A1BM57TUNAQIXM","2022-05-19T03:36:11.572Z","task_switching-same_different-rhyme-phon_sim","","null","task_switching","null","training","<div style=""color:darkgreen; font-size:60px"">Well done!</div>","addition","","","","","","","","","","","","","","","","","","","","","",""
"","","","","","survey-text","61","601048","0.0-61.0","A1BM57TUNAQIXM","2022-05-19T03:36:11.572Z","task_switching-same_different-rhyme-phon_sim","","2040.4000000059605","task_switching","{""addition_ans"":""86""}","training","83","addition","86","true","add","","","","","","","","","","","","","","","","","","",""
"","","","","","html-keyboard-response","62","602053","0.0-62.0","A1BM57TUNAQIXM","2022-05-19T03:36:11.572Z","task_switching-same_different-rhyme-phon_sim","","null","task_switching","null","training","<div style=""color:darkgreen; font-size:60px"">Well done!</div>","addition","","","","","","","","","","","","","","","","","","","","","",""
"","","","","","survey-text","63","604404","0.0-63.0","A1BM57TUNAQIXM","2022-05-19T03:36:11.572Z","task_switching-same_different-rhyme-phon_sim","","2347.2999999970198","task_switching","{""addition_ans"":""35""}","training","32","addition","35","true","add","","","","","","","","","","","","","","","","","","",""
"","","","","","html-keyboard-response","64","605415","0.0-64.0","A1BM57TUNAQIXM","2022-05-19T03:36:11.572Z","task_switching-same_different-rhyme-phon_sim","","null","task_switching","null","training","<div style=""color:darkgreen; font-size:60px"">Well done!</div>","addition","","","","","","","","","","","","","","","","","","","","","",""
"","","","","","survey-text","65","606732","0.0-65.0","A1BM57TUNAQIXM","2022-05-19T03:36:11.572Z","task_switching-same_different-rhyme-phon_sim","","1313.1000000014901","task_switching","{""addition_ans"":""26""}","training","23","addition","26","true","add","","","","","","","","","","","","","","","","","","",""
"","","","","","html-keyboard-response","66","607735","0.0-66.0","A1BM57TUNAQIXM","2022-05-19T03:36:11.572Z","task_switching-same_different-rhyme-phon_sim","","null","task_switching","null","training","<div style=""color:darkgreen; font-size:60px"">Well done!</div>","addition","","","","","","","","","","","","","","","","","","","","","",""
"","","","","","survey-text","67","609809","0.0-67.0","A1BM57TUNAQIXM","2022-05-19T03:36:11.572Z","task_switching-same_different-rhyme-phon_sim","","2069.3000000044703","task_switching","{""addition_ans"":""19""}","training","16","addition","19","true","add","","","","","","","","","","","","","","","","","","",""
"","","","","","html-keyboard-response","68","610817","0.0-68.0","A1BM57TUNAQIXM","2022-05-19T03:36:11.572Z","task_switching-same_different-rhyme-phon_sim","","null","task_switching","null","training","<div style=""color:darkgreen; font-size:60px"">Well done!</div>","addition","","","","","","","","","","","","","","","","","","","","","",""
"","","","","","survey-text","69","612935","0.0-69.0","A1BM57TUNAQIXM","2022-05-19T03:36:11.572Z","task_switching-same_different-rhyme-phon_sim","","2114","task_switching","{""addition_ans"":""71""}","training","68","addition","71","true","add","","","","","","","","","","","","","","","","","","",""
"","","","","","html-keyboard-response","70","613941","0.0-70.0","A1BM57TUNAQIXM","2022-05-19T03:36:11.572Z","task_switching-same_different-rhyme-phon_sim","","null","task_switching","null","training","<div style=""color:darkgreen; font-size:60px"">Well done!</div>","addition","","","","","","","","","","","","","","","","","","","","","",""
"","","","","","survey-text","71","619071","0.0-71.0","A1BM57TUNAQIXM","2022-05-19T03:36:11.572Z","task_switching-same_different-rhyme-phon_sim","","5123.70000000298","task_switching","{""addition_ans"":""92""}","training","88","addition","92","false","add","","","","","","","","","","","","","","","","","","",""
"","","","","","html-keyboard-response","72","624085","0.0-72.0","A1BM57TUNAQIXM","2022-05-19T03:36:11.572Z","task_switching-same_different-rhyme-phon_sim","","null","task_switching","null","training","<div style=""color:darkred; font-size:40px"">Right direction but be careful with the numbers.<p> Correct answer: 91</p></div>","addition","","","","","","","","","","","","","","","","","","","","","",""
"","","","","","survey-text","73","625828","0.0-73.0","A1BM57TUNAQIXM","2022-05-19T03:36:11.572Z","task_switching-same_different-rhyme-phon_sim","","1738.2000000029802","task_switching","{""addition_ans"":""17""}","training","14","addition","17","true","add","","","","","","","","","","","","","","","","","","",""
"","","","","","html-keyboard-response","74","626836","0.0-74.0","A1BM57TUNAQIXM","2022-05-19T03:36:11.572Z","task_switching-same_different-rhyme-phon_sim","","null","task_switching","null","training","<div style=""color:darkgreen; font-size:60px"">Well done!</div>","addition","","","","","","","","","","","","","","","","","","","","","",""
"","","","","","survey-text","75","631721","0.0-75.0","A1BM57TUNAQIXM","2022-05-19T03:36:11.572Z","task_switching-same_different-rhyme-phon_sim","","4880.30000000447","task_switching","{""addition_ans"":""47""}","training","44","addition","47","true","add","","","","","","","","","","","","","","","","","","",""
"","","","","","html-keyboard-response","76","632735","0.0-76.0","A1BM57TUNAQIXM","2022-05-19T03:36:11.572Z","task_switching-same_different-rhyme-phon_sim","","null","task_switching","null","training","<div style=""color:darkgreen; font-size:60px"">Well done!</div>","addition","","","","","","","","","","","","","","","","","","","","","",""
"","","","","","instructions","77","633754","0.0-77.0","A1BM57TUNAQIXM","2022-05-19T03:36:11.572Z","task_switching-same_different-rhyme-phon_sim","[{""page_index"":0,""viewing_time"":1017.3999999985099}]","1017.7000000029802","task_switching","","","","","","","","","","","","","","","","","","","","","","","","","",""
"","","","","","survey-text","78","636326","0.0-78.0","A1BM57TUNAQIXM","2022-05-19T03:36:11.572Z","task_switching-same_different-rhyme-phon_sim","","2569.7999999970198","task_switching","{""addition_ans"":""59""}","experiment","54","addition","59","false","add","","","","","","","","","","","","","","","","","","",""
"","","","","","survey-text","79","638908","0.0-79.0","A1BM57TUNAQIXM","2022-05-19T03:36:11.572Z","task_switching-same_different-rhyme-phon_sim","","2579","task_switching","{""addition_ans"":""79""}","experiment","76","addition","79","true","add","","","","","","","","","","","","","","","","","","",""
"","","","","","survey-text","80","641744","0.0-80.0","A1BM57TUNAQIXM","2022-05-19T03:36:11.572Z","task_switching-same_different-rhyme-phon_sim","","2829.9000000059605","task_switching","{""addition_ans"":""51""}","experiment","48","addition","51","true","add","","","","","","","","","","","","","","","","","","",""
"","","","","","survey-text","81","644027","0.0-81.0","A1BM57TUNAQIXM","2022-05-19T03:36:11.572Z","task_switching-same_different-rhyme-phon_sim","","2279.2999999970198","task_switching","{""addition_ans"":""82""}","experiment","79","addition","82","true","add","","","","","","","","","","","","","","","","","","",""
"","","","","","survey-text","82","647841","0.0-82.0","A1BM57TUNAQIXM","2022-05-19T03:36:11.572Z","task_switching-same_different-rhyme-phon_sim","","3808.7000000029802","task_switching","{""addition_ans"":""99""}","experiment","96","addition","99","true","add","","","","","","","","","","","","","","","","","","",""
"","","","","","survey-text","83","649504","0.0-83.0","A1BM57TUNAQIXM","2022-05-19T03:36:11.572Z","task_switching-same_different-rhyme-phon_sim","","1657.2999999970198","task_switching","{""addition_ans"":""46""}","experiment","43","addition","46","true","add","","","","","","","","","","","","","","","","","","",""
"","","","","","survey-text","84","651846","0.0-84.0","A1BM57TUNAQIXM","2022-05-19T03:36:11.572Z","task_switching-same_different-rhyme-phon_sim","","2336.1999999955297","task_switching","{""addition_ans"":""50""}","experiment","47","addition","50","true","add","","","","","","","","","","","","","","","","","","",""
"","","","","","survey-text","85","653473","0.0-85.0","A1BM57TUNAQIXM","2022-05-19T03:36:11.572Z","task_switching-same_different-rhyme-phon_sim","","1620.2999999970198","task_switching","{""addition_ans"":""34""}","experiment","31","addition","34","true","add","","","","","","","","","","","","","","","","","","",""
"","","","","","survey-text","86","658398","0.0-86.0","A1BM57TUNAQIXM","2022-05-19T03:36:11.572Z","task_switching-same_different-rhyme-phon_sim","","4921.30000000447","task_switching","{""addition_ans"":""21""}","experiment","18","addition","21","true","add","","","","","","","","","","","","","","","","","","",""
"","","","","","survey-text","87","660564","0.0-87.0","A1BM57TUNAQIXM","2022-05-19T03:36:11.572Z","task_switching-same_different-rhyme-phon_sim","","2163.5","task_switching","{""addition_ans"":""25""}","experiment","22","addition","25","true","add","","","","","","","","","","","","","","","","","","",""
"","","","","","survey-text","88","662254","0.0-88.0","A1BM57TUNAQIXM","2022-05-19T03:36:11.572Z","task_switching-same_different-rhyme-phon_sim","","1683.9000000059605","task_switching","{""addition_ans"":""36""}","experiment","33","addition","36","true","add","","","","","","","","","","","","","","","","","","",""
"","","","","","survey-text","89","664618","0.0-89.0","A1BM57TUNAQIXM","2022-05-19T03:36:11.572Z","task_switching-same_different-rhyme-phon_sim","","2362.60000000149","task_switching","{""addition_ans"":""27""}","experiment","24","addition","27","true","add","","","","","","","","","","","","","","","","","","",""
"","","","","","survey-text","90","666407","0.0-90.0","A1BM57TUNAQIXM","2022-05-19T03:36:11.572Z","task_switching-same_different-rhyme-phon_sim","","1783.3999999985099","task_switching","{""addition_ans"":""39""}","experiment","36","addition","39","true","add","","","","","","","","","","","","","","","","","","",""
"","","","","","survey-text","91","668314","0.0-91.0","A1BM57TUNAQIXM","2022-05-19T03:36:11.572Z","task_switching-same_different-rhyme-phon_sim","","1902.5999999940395","task_switching","{""addition_ans"":""85""}","experiment","82","addition","85","true","add","","","","","","","","","","","","","","","","","","",""
"","","","","","survey-text","92","670439","0.0-92.0","A1BM57TUNAQIXM","2022-05-19T03:36:11.572Z","task_switching-same_different-rhyme-phon_sim","","2123","task_switching","{""addition_ans"":""74""}","experiment","71","addition","74","true","add","","","","","","","","","","","","","","","","","","",""
"","","","","","survey-text","93","672878","0.0-93.0","A1BM57TUNAQIXM","2022-05-19T03:36:11.572Z","task_switching-same_different-rhyme-phon_sim","","2433.6999999955297","task_switching","{""addition_ans"":""38""}","experiment","35","addition","38","true","add","","","","","","","","","","","","","","","","","","",""
"","","","","","survey-text","94","676313","0.0-94.0","A1BM57TUNAQIXM","2022-05-19T03:36:11.572Z","task_switching-same_different-rhyme-phon_sim","","3430.2000000029802","task_switching","{""addition_ans"":""61""}","experiment","58","addition","61","true","add","","","","","","","","","","","","","","","","","","",""
"","","","","","survey-text","95","679397","0.0-95.0","A1BM57TUNAQIXM","2022-05-19T03:36:11.572Z","task_switching-same_different-rhyme-phon_sim","","3082.0999999940395","task_switching","{""addition_ans"":""48""}","experiment","45","addition","48","true","add","","","","","","","","","","","","","","","","","","",""
"","","","","","survey-text","96","682939","0.0-96.0","A1BM57TUNAQIXM","2022-05-19T03:36:11.572Z","task_switching-same_different-rhyme-phon_sim","","3536.10000000149","task_switching","{""addition_ans"":""78""}","experiment","75","addition","78","true","add","","","","","","","","","","","","","","","","","","",""
"","","","","","survey-text","97","684261","0.0-97.0","A1BM57TUNAQIXM","2022-05-19T03:36:11.572Z","task_switching-same_different-rhyme-phon_sim","","1315.8999999985099","task_switching","{""addition_ans"":""23""}","experiment","20","addition","23","true","add","","","","","","","","","","","","","","","","","","",""
"","","","","","survey-text","98","686359","0.0-98.0","A1BM57TUNAQIXM","2022-05-19T03:36:11.572Z","task_switching-same_different-rhyme-phon_sim","","2096.8000000044703","task_switching","{""addition_ans"":""59""}","experiment","56","addition","59","true","add","","","","","","","","","","","","","","","","","","",""
"","","","","","survey-text","99","687815","0.0-99.0","A1BM57TUNAQIXM","2022-05-19T03:36:11.572Z","task_switching-same_different-rhyme-phon_sim","","1452.7999999970198","task_switching","{""addition_ans"":""26""}","experiment","23","addition","26","true","add","","","","","","","","","","","","","","","","","","",""
"","","","","","survey-text","100","690734","0.0-100.0","A1BM57TUNAQIXM","2022-05-19T03:36:11.572Z","task_switching-same_different-rhyme-phon_sim","","2913.89999999851","task_switching","{""addition_ans"":""98""}","experiment","95","addition","98","true","add","","","","","","","","","","","","","","","","","","",""
"","","","","","survey-text","101","693213","0.0-101.0","A1BM57TUNAQIXM","2022-05-19T03:36:11.572Z","task_switching-same_different-rhyme-phon_sim","","2474.2000000029802","task_switching","{""addition_ans"":""77""}","experiment","74","addition","77","true","add","","","","","","","","","","","","","","","","","","",""
"","","","","","survey-text","102","695966","0.0-102.0","A1BM57TUNAQIXM","2022-05-19T03:36:11.572Z","task_switching-same_different-rhyme-phon_sim","","2750.6999999955297","task_switching","{""addition_ans"":""28""}","experiment","25","addition","28","true","add","","","","","","","","","","","","","","","","","","",""
"","","","","","survey-text","103","697741","0.0-103.0","A1BM57TUNAQIXM","2022-05-19T03:36:11.572Z","task_switching-same_different-rhyme-phon_sim","","1773.5","task_switching","{""addition_ans"":""80""}","experiment","77","addition","80","true","add","","","","","","","","","","","","","","","","","","",""
"","","","","","survey-text","104","699112","0.0-104.0","A1BM57TUNAQIXM","2022-05-19T03:36:11.572Z","task_switching-same_different-rhyme-phon_sim","","1365.1000000014901","task_switching","{""addition_ans"":""16""}","experiment","13","addition","16","true","add","","","","","","","","","","","","","","","","","","",""
"","","","","","survey-text","105","700788","0.0-105.0","A1BM57TUNAQIXM","2022-05-19T03:36:11.572Z","task_switching-same_different-rhyme-phon_sim","","1670","task_switching","{""addition_ans"":""60""}","experiment","57","addition","60","true","add","","","","","","","","","","","","","","","","","","",""
"","","","","","survey-text","106","702925","0.0-106.0","A1BM57TUNAQIXM","2022-05-19T03:36:11.572Z","task_switching-same_different-rhyme-phon_sim","","2131.89999999851","task_switching","{""addition_ans"":""42""}","experiment","39","addition","42","true","add","","","","","","","","","","","","","","","","","","",""
"","","","","","survey-text","107","704926","0.0-107.0","A1BM57TUNAQIXM","2022-05-19T03:36:11.572Z","task_switching-same_different-rhyme-phon_sim","","1994.2999999970198","task_switching","{""addition_ans"":""84""}","experiment","81","addition","84","true","add","","","","","","","","","","","","","","","","","","",""
"","","","","","instructions","108","707932","0.0-108.0","A1BM57TUNAQIXM","2022-05-19T03:36:11.572Z","task_switching-same_different-rhyme-phon_sim","[{""page_index"":0,""viewing_time"":3003.89999999851}]","3004.2000000029802","task_switching","","","","","","","","","","","","","","","","","","","","","","","","","",""
"","","","","","survey-text","109","711934","0.0-109.0","A1BM57TUNAQIXM","2022-05-19T03:36:11.572Z","task_switching-same_different-rhyme-phon_sim","","3999.5999999940395","task_switching","{""symbolcue_switch_ans"":""82""}","training","79","symbolcue_switch","82","true","add","+","0","","","","","","","","","","","","","","","","",""
"","","","","","html-keyboard-response","110","712939","0.0-110.0","A1BM57TUNAQIXM","2022-05-19T03:36:11.572Z","task_switching-same_different-rhyme-phon_sim","","null","task_switching","null","training","<div style=""color:darkgreen; font-size:60px"">Well done!</div>","symbolcue_switch","","","","","","","","","","","","","","","","","","","","","",""
"","","","","","survey-text","111","714467","0.0-111.0","A1BM57TUNAQIXM","2022-05-19T03:36:11.572Z","task_switching-same_different-rhyme-phon_sim","","1521.8000000044703","task_switching","{""symbolcue_switch_ans"":""25""}","training","28","symbolcue_switch","25","true","subtract","-","1","","","","","","","","","","","","","","","","",""
"","","","","","html-keyboard-response","112","715483","0.0-112.0","A1BM57TUNAQIXM","2022-05-19T03:36:11.572Z","task_switching-same_different-rhyme-phon_sim","","null","task_switching","null","training","<div style=""color:darkgreen; font-size:60px"">Well done!</div>","symbolcue_switch","","","","","","","","","","","","","","","","","","","","","",""
"","","","","","survey-text","113","718131","0.0-113.0","A1BM57TUNAQIXM","2022-05-19T03:36:11.572Z","task_switching-same_different-rhyme-phon_sim","","2644.2999999970198","task_switching","{""symbolcue_switch_ans"":""81""}","training","78","symbolcue_switch","81","true","add","+","2","","","","","","","","","","","","","","","","",""
"","","","","","html-keyboard-response","114","719133","0.0-114.0","A1BM57TUNAQIXM","2022-05-19T03:36:11.572Z","task_switching-same_different-rhyme-phon_sim","","null","task_switching","null","training","<div style=""color:darkgreen; font-size:60px"">Well done!</div>","symbolcue_switch","","","","","","","","","","","","","","","","","","","","","",""
"","","","","","survey-text","115","721362","0.0-115.0","A1BM57TUNAQIXM","2022-05-19T03:36:11.572Z","task_switching-same_different-rhyme-phon_sim","","2224.3000000044703","task_switching","{""symbolcue_switch_ans"":""44""}","training","47","symbolcue_switch","44","true","subtract","-","3","","","","","","","","","","","","","","","","",""
"","","","","","html-keyboard-response","116","722376","0.0-116.0","A1BM57TUNAQIXM","2022-05-19T03:36:11.572Z","task_switching-same_different-rhyme-phon_sim","","null","task_switching","null","training","<div style=""color:darkgreen; font-size:60px"">Well done!</div>","symbolcue_switch","","","","","","","","","","","","","","","","","","","","","",""
"","","","","","survey-text","117","723900","0.0-117.0","A1BM57TUNAQIXM","2022-05-19T03:36:11.572Z","task_switching-same_different-rhyme-phon_sim","","1518.8999999985099","task_switching","{""symbolcue_switch_ans"":""38""}","training","35","symbolcue_switch","38","true","add","+","4","","","","","","","","","","","","","","","","",""
"","","","","","html-keyboard-response","118","724908","0.0-118.0","A1BM57TUNAQIXM","2022-05-19T03:36:11.572Z","task_switching-same_different-rhyme-phon_sim","","null","task_switching","null","training","<div style=""color:darkgreen; font-size:60px"">Well done!</div>","symbolcue_switch","","","","","","","","","","","","","","","","","","","","","",""
"","","","","","survey-text","119","726967","0.0-119.0","A1BM57TUNAQIXM","2022-05-19T03:36:11.572Z","task_switching-same_different-rhyme-phon_sim","","2054.10000000149","task_switching","{""symbolcue_switch_ans"":""85""}","training","88","symbolcue_switch","85","true","subtract","-","5","","","","","","","","","","","","","","","","",""
"","","","","","html-keyboard-response","120","727979","0.0-120.0","A1BM57TUNAQIXM","2022-05-19T03:36:11.572Z","task_switching-same_different-rhyme-phon_sim","","null","task_switching","null","training","<div style=""color:darkgreen; font-size:60px"">Well done!</div>","symbolcue_switch","","","","","","","","","","","","","","","","","","","","","",""
"","","","","","survey-text","121","731389","0.0-121.0","A1BM57TUNAQIXM","2022-05-19T03:36:11.572Z","task_switching-same_different-rhyme-phon_sim","","3406.10000000149","task_switching","{""symbolcue_switch_ans"":""99""}","training","85","symbolcue_switch","99","false","add","+","6","","","","","","","","","","","","","","","","",""
"","","","","","html-keyboard-response","122","736397","0.0-122.0","A1BM57TUNAQIXM","2022-05-19T03:36:11.572Z","task_switching-same_different-rhyme-phon_sim","","null","task_switching","null","training","<div style=""color:darkred; font-size:40px"">Right direction but be careful with the numbers.<p> Correct answer: 88.</p><p> Next trial subtract 3.</p></div>","symbolcue_switch","","","","","","","","","","","","","","","","","","","","","",""
"","","","","","survey-text","123","739160","0.0-123.0","A1BM57TUNAQIXM","2022-05-19T03:36:11.572Z","task_switching-same_different-rhyme-phon_sim","","2760.5999999940395","task_switching","{""symbolcue_switch_ans"":""52""}","training","55","symbolcue_switch","52","true","subtract","-","7","","","","","","","","","","","","","","","","",""
"","","","","","html-keyboard-response","124","740169","0.0-124.0","A1BM57TUNAQIXM","2022-05-19T03:36:11.572Z","task_switching-same_different-rhyme-phon_sim","","null","task_switching","null","training","<div style=""color:darkgreen; font-size:60px"">Well done!</div>","symbolcue_switch","","","","","","","","","","","","","","","","","","","","","",""
"","","","","","survey-text","125","742489","0.0-125.0","A1BM57TUNAQIXM","2022-05-19T03:36:11.572Z","task_switching-same_different-rhyme-phon_sim","","2317.7000000029802","task_switching","{""symbolcue_switch_ans"":""57""}","training","54","symbolcue_switch","57","true","add","+","8","","","","","","","","","","","","","","","","",""
"","","","","","html-keyboard-response","126","743498","0.0-126.0","A1BM57TUNAQIXM","2022-05-19T03:36:11.572Z","task_switching-same_different-rhyme-phon_sim","","null","task_switching","null","training","<div style=""color:darkgreen; font-size:60px"">Well done!</div>","symbolcue_switch","","","","","","","","","","","","","","","","","","","","","",""
"","","","","","survey-text","127","746911","0.0-127.0","A1BM57TUNAQIXM","2022-05-19T03:36:11.572Z","task_switching-same_different-rhyme-phon_sim","","3411","task_switching","{""symbolcue_switch_ans"":""92""}","training","95","symbolcue_switch","92","true","subtract","-","9","","","","","","","","","","","","","","","","",""
"","","","","","html-keyboard-response","128","747929","0.0-128.0","A1BM57TUNAQIXM","2022-05-19T03:36:11.572Z","task_switching-same_different-rhyme-phon_sim","","null","task_switching","null","training","<div style=""color:darkgreen; font-size:60px"">Well done!</div>","symbolcue_switch","","","","","","","","","","","","","","","","","","","","","",""
"","","","","","instructions","129","748804","0.0-129.0","A1BM57TUNAQIXM","2022-05-19T03:36:11.572Z","task_switching-same_different-rhyme-phon_sim","[{""page_index"":0,""viewing_time"":874.2000000029802}]","874.5","task_switching","","","","","","","","","","","","","","","","","","","","","","","","","",""
"","","","","","survey-text","130","751093","0.0-130.0","A1BM57TUNAQIXM","2022-05-19T03:36:11.572Z","task_switching-same_different-rhyme-phon_sim","","2285.7999999970198","task_switching","{""symbolcue_switch_ans"":""92""}","experiment","89","symbolcue_switch","92","true","add","+","0","","","","","","","","","","","","","","","","",""
"","","","","","survey-text","131","753356","0.0-131.0","A1BM57TUNAQIXM","2022-05-19T03:36:11.572Z","task_switching-same_different-rhyme-phon_sim","","2256.60000000149","task_switching","{""symbolcue_switch_ans"":""77""}","experiment","80","symbolcue_switch","77","true","subtract","-","1","","","","","","","","","","","","","","","","",""
"","","","","","survey-text","132","755128","0.0-132.0","A1BM57TUNAQIXM","2022-05-19T03:36:11.572Z","task_switching-same_different-rhyme-phon_sim","","1767","task_switching","{""symbolcue_switch_ans"":""18""}","experiment","15","symbolcue_switch","18","true","add","+","2","","","","","","","","","","","","","","","","",""
"","","","","","survey-text","133","757915","0.0-133.0","A1BM57TUNAQIXM","2022-05-19T03:36:11.572Z","task_switching-same_different-rhyme-phon_sim","","2783.5","task_switching","{""symbolcue_switch_ans"":""24""}","experiment","27","symbolcue_switch","24","true","subtract","-","3","","","","","","","","","","","","","","","","",""
"","","","","","survey-text","134","760692","0.0-134.0","A1BM57TUNAQIXM","2022-05-19T03:36:11.572Z","task_switching-same_different-rhyme-phon_sim","","2773.2999999970198","task_switching","{""symbolcue_switch_ans"":""90""}","experiment","87","symbolcue_switch","90","true","add","+","4","","","","","","","","","","","","","","","","",""
"","","","","","survey-text","135","763146","0.0-135.0","A1BM57TUNAQIXM","2022-05-19T03:36:11.572Z","task_switching-same_different-rhyme-phon_sim","","2451.9000000059605","task_switching","{""symbolcue_switch_ans"":""47""}","experiment","50","symbolcue_switch","47","true","subtract","-","5","","","","","","","","","","","","","","","","",""
"","","","","","survey-text","136","764973","0.0-136.0","A1BM57TUNAQIXM","2022-05-19T03:36:11.572Z","task_switching-same_different-rhyme-phon_sim","","1824.2999999970198","task_switching","{""symbolcue_switch_ans"":""54""}","experiment","51","symbolcue_switch","54","true","add","+","6","","","","","","","","","","","","","","","","",""
"","","","","","survey-text","137","767106","0.0-137.0","A1BM57TUNAQIXM","2022-05-19T03:36:11.572Z","task_switching-same_different-rhyme-phon_sim","","2127.5","task_switching","{""symbolcue_switch_ans"":""44""}","experiment","47","symbolcue_switch","44","true","subtract","-","7","","","","","","","","","","","","","","","","",""
"","","","","","survey-text","138","769627","0.0-138.0","A1BM57TUNAQIXM","2022-05-19T03:36:11.572Z","task_switching-same_different-rhyme-phon_sim","","2514.2000000029802","task_switching","{""symbolcue_switch_ans"":""99""}","experiment","96","symbolcue_switch","99","true","add","+","8","","","","","","","","","","","","","","","","",""
"","","","","","survey-text","139","772810","0.0-139.0","A1BM57TUNAQIXM","2022-05-19T03:36:11.572Z","task_switching-same_different-rhyme-phon_sim","","3178","task_switching","{""symbolcue_switch_ans"":""59""}","experiment","62","symbolcue_switch","59","true","subtract","-","9","","","","","","","","","","","","","","","","",""
"","","","","","survey-text","140","774896","0.0-140.0","A1BM57TUNAQIXM","2022-05-19T03:36:11.572Z","task_switching-same_different-rhyme-phon_sim","","2080","task_switching","{""symbolcue_switch_ans"":""35""}","experiment","32","symbolcue_switch","35","true","add","+","10","","","","","","","","","","","","","","","","",""
"","","","","","survey-text","141","780840","0.0-141.0","A1BM57TUNAQIXM","2022-05-19T03:36:11.572Z","task_switching-same_different-rhyme-phon_sim","","5939.10000000149","task_switching","{""symbolcue_switch_ans"":""49""}","experiment","52","symbolcue_switch","49","true","subtract","-","11","","","","","","","","","","","","","","","","",""
"","","","","","survey-text","142","782920","0.0-142.0","A1BM57TUNAQIXM","2022-05-19T03:36:11.572Z","task_switching-same_different-rhyme-phon_sim","","2073.7000000029802","task_switching","{""symbolcue_switch_ans"":""97""}","experiment","94","symbolcue_switch","97","true","add","+","12","","","","","","","","","","","","","","","","",""
"","","","","","survey-text","143","784410","0.0-143.0","A1BM57TUNAQIXM","2022-05-19T03:36:11.572Z","task_switching-same_different-rhyme-phon_sim","","1485.3000000044703","task_switching","{""symbolcue_switch_ans"":""10""}","experiment","13","symbolcue_switch","10","true","subtract","-","13","","","","","","","","","","","","","","","","",""
"","","","","","survey-text","144","786851","0.0-144.0","A1BM57TUNAQIXM","2022-05-19T03:36:11.572Z","task_switching-same_different-rhyme-phon_sim","","2435.7999999970198","task_switching","{""symbolcue_switch_ans"":""46""}","experiment","43","symbolcue_switch","46","true","add","+","14","","","","","","","","","","","","","","","","",""
"","","","","","survey-text","145","788573","0.0-145.0","A1BM57TUNAQIXM","2022-05-19T03:36:11.572Z","task_switching-same_different-rhyme-phon_sim","","1716.7000000029802","task_switching","{""symbolcue_switch_ans"":""55""}","experiment","58","symbolcue_switch","55","true","subtract","-","15","","","","","","","","","","","","","","","","",""
"","","","","","survey-text","146","791395","0.0-146.0","A1BM57TUNAQIXM","2022-05-19T03:36:11.572Z","task_switching-same_different-rhyme-phon_sim","","2819.3000000044703","task_switching","{""symbolcue_switch_ans"":""26""}","experiment","23","symbolcue_switch","26","true","add","+","16","","","","","","","","","","","","","","","","",""
"","","","","","survey-text","147","793517","0.0-147.0","A1BM57TUNAQIXM","2022-05-19T03:36:11.572Z","task_switching-same_different-rhyme-phon_sim","","2116.3000000044703","task_switching","{""symbolcue_switch_ans"":""67""}","experiment","70","symbolcue_switch","67","true","subtract","-","17","","","","","","","","","","","","","","","","",""
"","","","","","survey-text","148","795762","0.0-148.0","A1BM57TUNAQIXM","2022-05-19T03:36:11.572Z","task_switching-same_different-rhyme-phon_sim","","2238.8000000044703","task_switching","{""symbolcue_switch_ans"":""91""}","experiment","88","symbolcue_switch","91","true","add","+","18","","","","","","","","","","","","","","","","",""
"","","","","","survey-text","149","797794","0.0-149.0","A1BM57TUNAQIXM","2022-05-19T03:36:11.572Z","task_switching-same_different-rhyme-phon_sim","","2027","task_switching","{""symbolcue_switch_ans"":""19""}","experiment","22","symbolcue_switch","19","true","subtract","-","19","","","","","","","","","","","","","","","","",""
"","","","","","survey-text","150","800565","0.0-150.0","A1BM57TUNAQIXM","2022-05-19T03:36:11.572Z","task_switching-same_different-rhyme-phon_sim","","2765.7000000029802","task_switching","{""symbolcue_switch_ans"":""95""}","experiment","92","symbolcue_switch","95","true","add","+","20","","","","","","","","","","","","","","","","",""
"","","","","","survey-text","151","802875","0.0-151.0","A1BM57TUNAQIXM","2022-05-19T03:36:11.572Z","task_switching-same_different-rhyme-phon_sim","","2304.6999999955297","task_switching","{""symbolcue_switch_ans"":""64""}","experiment","67","symbolcue_switch","64","true","subtract","-","21","","","","","","","","","","","","","","","","",""
"","","","","","survey-text","152","804617","0.0-152.0","A1BM57TUNAQIXM","2022-05-19T03:36:11.572Z","task_switching-same_different-rhyme-phon_sim","","1735.6999999955297","task_switching","{""symbolcue_switch_ans"":""80""}","experiment","77","symbolcue_switch","80","true","add","+","22","","","","","","","","","","","","","","","","",""
"","","","","","survey-text","153","808834","0.0-153.0","A1BM57TUNAQIXM","2022-05-19T03:36:11.572Z","task_switching-same_different-rhyme-phon_sim","","4215.19999999553","task_switching","{""symbolcue_switch_ans"":""26""}","experiment","29","symbolcue_switch","26","true","subtract","-","23","","","","","","","","","","","","","","","","",""
"","","","","","survey-text","154","810527","0.0-154.0","A1BM57TUNAQIXM","2022-05-19T03:36:11.572Z","task_switching-same_different-rhyme-phon_sim","","1689.5","task_switching","{""symbolcue_switch_ans"":""29""}","experiment","26","symbolcue_switch","29","true","add","+","24","","","","","","","","","","","","","","","","",""
"","","","","","survey-text","155","812783","0.0-155.0","A1BM57TUNAQIXM","2022-05-19T03:36:11.572Z","task_switching-same_different-rhyme-phon_sim","","2253.1999999955297","task_switching","{""symbolcue_switch_ans"":""19""}","experiment","21","symbolcue_switch","19","false","subtract","-","25","","","","","","","","","","","","","","","","",""
"","","","","","survey-text","156","814355","0.0-156.0","A1BM57TUNAQIXM","2022-05-19T03:36:11.572Z","task_switching-same_different-rhyme-phon_sim","","1567.2000000029802","task_switching","{""symbolcue_switch_ans"":""39""}","experiment","36","symbolcue_switch","39","true","add","+","26","","","","","","","","","","","","","","","","",""
"","","","","","survey-text","157","815767","0.0-157.0","A1BM57TUNAQIXM","2022-05-19T03:36:11.572Z","task_switching-same_different-rhyme-phon_sim","","1406.1000000014901","task_switching","{""symbolcue_switch_ans"":""11""}","experiment","14","symbolcue_switch","11","true","subtract","-","27","","","","","","","","","","","","","","","","",""
"","","","","","survey-text","158","819418","0.0-158.0","A1BM57TUNAQIXM","2022-05-19T03:36:11.572Z","task_switching-same_different-rhyme-phon_sim","","3646.3000000044703","task_switching","{""symbolcue_switch_ans"":""67""}","experiment","64","symbolcue_switch","67","true","add","+","28","","","","","","","","","","","","","","","","",""
"","","","","","survey-text","159","821026","0.0-159.0","A1BM57TUNAQIXM","2022-05-19T03:36:11.572Z","task_switching-same_different-rhyme-phon_sim","","1605.6000000014901","task_switching","{""symbolcue_switch_ans"":""50""}","experiment","53","symbolcue_switch","50","true","subtract","-","29","","","","","","","","","","","","","","","","",""
"","","","","","instructions","160","824923","0.0-160.0","A1BM57TUNAQIXM","2022-05-19T03:36:11.572Z","task_switching-same_different-rhyme-phon_sim","[{""page_index"":0,""viewing_time"":3896.10000000149}]","3896.60000000149","task_switching","","","","","","","","","","","","","","","","","","","","","","","","","",""
"","","","","","survey-text","161","829566","0.0-161.0","A1BM57TUNAQIXM","2022-05-19T03:36:11.572Z","task_switching-same_different-rhyme-phon_sim","","4640.19999999553","task_switching","{""colorcue_switch_ans"":""64""}","training","61","colorcue_switch","64","true","add","","0","red","","","","","","","","","","","","","","","",""
"","","","","","html-keyboard-response","162","830573","0.0-162.0","A1BM57TUNAQIXM","2022-05-19T03:36:11.572Z","task_switching-same_different-rhyme-phon_sim","","null","task_switching","null","training","<div style=""color:darkgreen; font-size:60px"">Well done!</div>","colorcue_switch","","","","","","","","","","","","","","","","","","","","","",""
"","","","","","survey-text","163","831865","0.0-163.0","A1BM57TUNAQIXM","2022-05-19T03:36:11.572Z","task_switching-same_different-rhyme-phon_sim","","1286.4000000059605","task_switching","{""colorcue_switch_ans"":""30""}","training","33","colorcue_switch","30","true","subtract","","1","blue","","","","","","","","","","","","","","","",""
"","","","","","html-keyboard-response","164","832875","0.0-164.0","A1BM57TUNAQIXM","2022-05-19T03:36:11.572Z","task_switching-same_different-rhyme-phon_sim","","null","task_switching","null","training","<div style=""color:darkgreen; font-size:60px"">Well done!</div>","colorcue_switch","","","","","","","","","","","","","","","","","","","","","",""
"","","","","","survey-text","165","835627","0.0-165.0","A1BM57TUNAQIXM","2022-05-19T03:36:11.572Z","task_switching-same_different-rhyme-phon_sim","","2748.10000000149","task_switching","{""colorcue_switch_ans"":""10""}","training","13","colorcue_switch","10","false","add","","2","red","","","","","","","","","","","","","","","",""
"","","","","","html-keyboard-response","166","840632","0.0-166.0","A1BM57TUNAQIXM","2022-05-19T03:36:11.572Z","task_switching-same_different-rhyme-phon_sim","","null","task_switching","null","training","<div style=""color:darkred; font-size:40px"">That was an <b>add</b> trial.<p> Correct answer: 16.</p><p> Next trial subtract 3.</p></div>","colorcue_switch","","","","","","","","","","","","","","","","","","","","","",""
"","","","","","survey-text","167","844305","0.0-167.0","A1BM57TUNAQIXM","2022-05-19T03:36:11.572Z","task_switching-same_different-rhyme-phon_sim","","3666.8000000044703","task_switching","{""colorcue_switch_ans"":""75""}","training","78","colorcue_switch","75","true","subtract","","3","blue","","","","","","","","","","","","","","","",""
"","","","","","html-keyboard-response","168","845319","0.0-168.0","A1BM57TUNAQIXM","2022-05-19T03:36:11.572Z","task_switching-same_different-rhyme-phon_sim","","null","task_switching","null","training","<div style=""color:darkgreen; font-size:60px"">Well done!</div>","colorcue_switch","","","","","","","","","","","","","","","","","","","","","",""
"","","","","","survey-text","169","847595","0.0-169.0","A1BM57TUNAQIXM","2022-05-19T03:36:11.572Z","task_switching-same_different-rhyme-phon_sim","","2273.2999999970198","task_switching","{""colorcue_switch_ans"":""92""}","training","89","colorcue_switch","92","true","add","","4","red","","","","","","","","","","","","","","","",""
"","","","","","html-keyboard-response","170","848610","0.0-170.0","A1BM57TUNAQIXM","2022-05-19T03:36:11.572Z","task_switching-same_different-rhyme-phon_sim","","null","task_switching","null","training","<div style=""color:darkgreen; font-size:60px"">Well done!</div>","colorcue_switch","","","","","","","","","","","","","","","","","","","","","",""
"","","","","","survey-text","171","850705","0.0-171.0","A1BM57TUNAQIXM","2022-05-19T03:36:11.572Z","task_switching-same_different-rhyme-phon_sim","","2089.89999999851","task_switching","{""colorcue_switch_ans"":""41""}","training","44","colorcue_switch","41","true","subtract","","5","blue","","","","","","","","","","","","","","","",""
"","","","","","html-keyboard-response","172","851720","0.0-172.0","A1BM57TUNAQIXM","2022-05-19T03:36:11.572Z","task_switching-same_different-rhyme-phon_sim","","null","task_switching","null","training","<div style=""color:darkgreen; font-size:60px"">Well done!</div>","colorcue_switch","","","","","","","","","","","","","","","","","","","","","",""
"","","","","","survey-text","173","853745","0.0-173.0","A1BM57TUNAQIXM","2022-05-19T03:36:11.572Z","task_switching-same_different-rhyme-phon_sim","","2020.2999999970198","task_switching","{""colorcue_switch_ans"":""53""}","training","50","colorcue_switch","53","true","add","","6","red","","","","","","","","","","","","","","","",""
"","","","","","html-keyboard-response","174","854756","0.0-174.0","A1BM57TUNAQIXM","2022-05-19T03:36:11.572Z","task_switching-same_different-rhyme-phon_sim","","null","task_switching","null","training","<div style=""color:darkgreen; font-size:60px"">Well done!</div>","colorcue_switch","","","","","","","","","","","","","","","","","","","","","",""
"","","","","","survey-text","175","856468","0.0-175.0","A1BM57TUNAQIXM","2022-05-19T03:36:11.572Z","task_switching-same_different-rhyme-phon_sim","","1706.7000000029802","task_switching","{""colorcue_switch_ans"":""57""}","training","59","colorcue_switch","57","false","subtract","","7","blue","","","","","","","","","","","","","","","",""
"","","","","","html-keyboard-response","176","861471","0.0-176.0","A1BM57TUNAQIXM","2022-05-19T03:36:11.572Z","task_switching-same_different-rhyme-phon_sim","","null","task_switching","null","training","<div style=""color:darkred; font-size:40px"">Right direction but be careful with the numbers.<p> Correct answer: 56.</p><p> Next trial add 3.</p></div>","colorcue_switch","","","","","","","","","","","","","","","","","","","","","",""
"","","","","","survey-text","177","863004","0.0-177.0","A1BM57TUNAQIXM","2022-05-19T03:36:11.572Z","task_switching-same_different-rhyme-phon_sim","","1531.1999999955297","task_switching","{""colorcue_switch_ans"":""30""}","training","27","colorcue_switch","30","true","add","","8","red","","","","","","","","","","","","","","","",""
"","","","","","html-keyboard-response","178","864021","0.0-178.0","A1BM57TUNAQIXM","2022-05-19T03:36:11.572Z","task_switching-same_different-rhyme-phon_sim","","null","task_switching","null","training","<div style=""color:darkgreen; font-size:60px"">Well done!</div>","colorcue_switch","","","","","","","","","","","","","","","","","","","","","",""
"","","","","","survey-text","179","865633","0.0-179.0","A1BM57TUNAQIXM","2022-05-19T03:36:11.572Z","task_switching-same_different-rhyme-phon_sim","","1606.6999999955297","task_switching","{""colorcue_switch_ans"":""29""}","training","31","colorcue_switch","29","false","subtract","","9","blue","","","","","","","","","","","","","","","",""
"","","","","","html-keyboard-response","180","870643","0.0-180.0","A1BM57TUNAQIXM","2022-05-19T03:36:11.572Z","task_switching-same_different-rhyme-phon_sim","","null","task_switching","null","training","<div style=""color:darkred; font-size:40px"">Right direction but be careful with the numbers.<p> Correct answer: 28.</p><p> Next trial add 3.</p></div>","colorcue_switch","","","","","","","","","","","","","","","","","","","","","",""
"","","","","","instructions","181","872781","0.0-181.0","A1BM57TUNAQIXM","2022-05-19T03:36:11.572Z","task_switching-same_different-rhyme-phon_sim","[{""page_index"":0,""viewing_time"":2136.1999999955297}]","2136.39999999851","task_switching","","","","","","","","","","","","","","","","","","","","","","","","","",""
"","","","","","survey-text","182","879236","0.0-182.0","A1BM57TUNAQIXM","2022-05-19T03:36:11.572Z","task_switching-same_different-rhyme-phon_sim","","6452.69999999553","task_switching","{""colorcue_switch_ans"":""91""}","experiment","88","colorcue_switch","91","true","add","","0","red","","","","","","","","","","","","","","","",""
"","","","","","survey-text","183","881377","0.0-183.0","A1BM57TUNAQIXM","2022-05-19T03:36:11.572Z","task_switching-same_different-rhyme-phon_sim","","2139.5","task_switching","{""colorcue_switch_ans"":""91""}","experiment","94","colorcue_switch","91","true","subtract","","1","blue","","","","","","","","","","","","","","","",""
"","","","","","survey-text","184","883402","0.0-184.0","A1BM57TUNAQIXM","2022-05-19T03:36:11.572Z","task_switching-same_different-rhyme-phon_sim","","2022.6999999955297","task_switching","{""colorcue_switch_ans"":""92""}","experiment","89","colorcue_switch","92","true","add","","2","red","","","","","","","","","","","","","","","",""
"","","","","","survey-text","185","885553","0.0-185.0","A1BM57TUNAQIXM","2022-05-19T03:36:11.572Z","task_switching-same_different-rhyme-phon_sim","","2146.3000000044703","task_switching","{""colorcue_switch_ans"":""44""}","experiment","47","colorcue_switch","44","true","subtract","","3","blue","","","","","","","","","","","","","","","",""
"","","","","","survey-text","186","887434","0.0-186.0","A1BM57TUNAQIXM","2022-05-19T03:36:11.572Z","task_switching-same_different-rhyme-phon_sim","","1876.7000000029802","task_switching","{""colorcue_switch_ans"":""37""}","experiment","34","colorcue_switch","37","true","add","","4","red","","","","","","","","","","","","","","","",""
"","","","","","survey-text","187","889541","0.0-187.0","A1BM57TUNAQIXM","2022-05-19T03:36:11.572Z","task_switching-same_different-rhyme-phon_sim","","2101.3000000044703","task_switching","{""colorcue_switch_ans"":""71""}","experiment","74","colorcue_switch","71","true","subtract","","5","blue","","","","","","","","","","","","","","","",""
"","","","","","survey-text","188","891271","0.0-188.0","A1BM57TUNAQIXM","2022-05-19T03:36:11.572Z","task_switching-same_different-rhyme-phon_sim","","1729","task_switching","{""colorcue_switch_ans"":""69""}","experiment","63","colorcue_switch","69","false","add","","6","red","","","","","","","","","","","","","","","",""
"","","","","","survey-text","189","893243","0.0-189.0","A1BM57TUNAQIXM","2022-05-19T03:36:11.572Z","task_switching-same_different-rhyme-phon_sim","","1970.8999999985099","task_switching","{""colorcue_switch_ans"":""24""}","experiment","27","colorcue_switch","24","true","subtract","","7","blue","","","","","","","","","","","","","","","",""
"","","","","","survey-text","190","897862","0.0-190.0","A1BM57TUNAQIXM","2022-05-19T03:36:11.572Z","task_switching-same_different-rhyme-phon_sim","","4617","task_switching","{""colorcue_switch_ans"":""98""}","experiment","95","colorcue_switch","98","true","add","","8","red","","","","","","","","","","","","","","","",""
"","","","","","survey-text","191","901257","0.0-191.0","A1BM57TUNAQIXM","2022-05-19T03:36:11.572Z","task_switching-same_different-rhyme-phon_sim","","3389.7999999970198","task_switching","{""colorcue_switch_ans"":""58""}","experiment","61","colorcue_switch","58","true","subtract","","9","blue","","","","","","","","","","","","","","","",""
"","","","","","survey-text","192","904493","0.0-192.0","A1BM57TUNAQIXM","2022-05-19T03:36:11.572Z","task_switching-same_different-rhyme-phon_sim","","3234.10000000149","task_switching","{""colorcue_switch_ans"":""62""}","experiment","59","colorcue_switch","62","true","add","","10","red","","","","","","","","","","","","","","","",""
"","","","","","survey-text","193","906295","0.0-193.0","A1BM57TUNAQIXM","2022-05-19T03:36:11.572Z","task_switching-same_different-rhyme-phon_sim","","1798","task_switching","{""colorcue_switch_ans"":""22""}","experiment","25","colorcue_switch","22","true","subtract","","11","blue","","","","","","","","","","","","","","","",""
"","","","","","survey-text","194","910060","0.0-194.0","A1BM57TUNAQIXM","2022-05-19T03:36:11.572Z","task_switching-same_different-rhyme-phon_sim","","3762.5999999940395","task_switching","{""colorcue_switch_ans"":""87""}","experiment","84","colorcue_switch","87","true","add","","12","red","","","","","","","","","","","","","","","",""
"","","","","","survey-text","195","914275","0.0-195.0","A1BM57TUNAQIXM","2022-05-19T03:36:11.572Z","task_switching-same_different-rhyme-phon_sim","","4206.39999999851","task_switching","{""colorcue_switch_ans"":""72""}","experiment","75","colorcue_switch","72","true","subtract","","13","blue","","","","","","","","","","","","","","","",""
"","","","","","survey-text","196","917300","0.0-196.0","A1BM57TUNAQIXM","2022-05-19T03:36:11.572Z","task_switching-same_different-rhyme-phon_sim","","3018","task_switching","{""colorcue_switch_ans"":""68""}","experiment","65","colorcue_switch","68","true","add","","14","red","","","","","","","","","","","","","","","",""
"","","","","","survey-text","197","924597","0.0-197.0","A1BM57TUNAQIXM","2022-05-19T03:36:11.572Z","task_switching-same_different-rhyme-phon_sim","","7291.4000000059605","task_switching","{""colorcue_switch_ans"":""16""}","experiment","19","colorcue_switch","16","true","subtract","","15","blue","","","","","","","","","","","","","","","",""
"","","","","","survey-text","198","927365","0.0-198.0","A1BM57TUNAQIXM","2022-05-19T03:36:11.572Z","task_switching-same_different-rhyme-phon_sim","","2762.7000000029802","task_switching","{""colorcue_switch_ans"":""59""}","experiment","56","colorcue_switch","59","true","add","","16","red","","","","","","","","","","","","","","","",""
"","","","","","survey-text","199","929989","0.0-199.0","A1BM57TUNAQIXM","2022-05-19T03:36:11.572Z","task_switching-same_different-rhyme-phon_sim","","2621.10000000149","task_switching","{""colorcue_switch_ans"":""57""}","experiment","60","colorcue_switch","57","true","subtract","","17","blue","","","","","","","","","","","","","","","",""
"","","","","","survey-text","200","932788","0.0-200.0","A1BM57TUNAQIXM","2022-05-19T03:36:11.572Z","task_switching-same_different-rhyme-phon_sim","","2793.60000000149","task_switching","{""colorcue_switch_ans"":""39""}","experiment","36","colorcue_switch","39","true","add","","18","red","","","","","","","","","","","","","","","",""
"","","","","","survey-text","201","936733","0.0-201.0","A1BM57TUNAQIXM","2022-05-19T03:36:11.572Z","task_switching-same_different-rhyme-phon_sim","","3940.39999999851","task_switching","{""colorcue_switch_ans"":""66""}","experiment","69","colorcue_switch","66","true","subtract","","19","blue","","","","","","","","","","","","","","","",""
"","","","","","survey-text","202","939368","0.0-202.0","A1BM57TUNAQIXM","2022-05-19T03:36:11.572Z","task_switching-same_different-rhyme-phon_sim","","2632.8000000044703","task_switching","{""colorcue_switch_ans"":""32""}","experiment","29","colorcue_switch","32","true","add","","20","red","","","","","","","","","","","","","","","",""
"","","","","","survey-text","203","940898","0.0-203.0","A1BM57TUNAQIXM","2022-05-19T03:36:11.572Z","task_switching-same_different-rhyme-phon_sim","","1524","task_switching","{""colorcue_switch_ans"":""32""}","experiment","35","colorcue_switch","32","true","subtract","","21","blue","","","","","","","","","","","","","","","",""
"","","","","","survey-text","204","942280","0.0-204.0","A1BM57TUNAQIXM","2022-05-19T03:36:11.572Z","task_switching-same_different-rhyme-phon_sim","","1378","task_switching","{""colorcue_switch_ans"":""73""}","experiment","70","colorcue_switch","73","true","add","","22","red","","","","","","","","","","","","","","","",""
"","","","","","survey-text","205","944303","0.0-205.0","A1BM57TUNAQIXM","2022-05-19T03:36:11.572Z","task_switching-same_different-rhyme-phon_sim","","2022.4000000059605","task_switching","{""colorcue_switch_ans"":""17""}","experiment","20","colorcue_switch","17","true","subtract","","23","blue","","","","","","","","","","","","","","","",""
"","","","","","survey-text","206","947448","0.0-206.0","A1BM57TUNAQIXM","2022-05-19T03:36:11.572Z","task_switching-same_different-rhyme-phon_sim","","3142.5999999940395","task_switching","{""colorcue_switch_ans"":""35""}","experiment","32","colorcue_switch","35","true","add","","24","red","","","","","","","","","","","","","","","",""
"","","","","","survey-text","207","949734","0.0-207.0","A1BM57TUNAQIXM","2022-05-19T03:36:11.572Z","task_switching-same_different-rhyme-phon_sim","","2283.60000000149","task_switching","{""colorcue_switch_ans"":""15""}","experiment","18","colorcue_switch","15","true","subtract","","25","blue","","","","","","","","","","","","","","","",""
"","","","","","survey-text","208","951720","0.0-208.0","A1BM57TUNAQIXM","2022-05-19T03:36:11.572Z","task_switching-same_different-rhyme-phon_sim","","1982.5","task_switching","{""colorcue_switch_ans"":""54""}","experiment","51","colorcue_switch","54","true","add","","26","red","","","","","","","","","","","","","","","",""
"","","","","","survey-text","209","953084","0.0-209.0","A1BM57TUNAQIXM","2022-05-19T03:36:11.572Z","task_switching-same_different-rhyme-phon_sim","","1359.6000000014901","task_switching","{""colorcue_switch_ans"":""10""}","experiment","13","colorcue_switch","10","true","subtract","","27","blue","","","","","","","","","","","","","","","",""
"","","","","","survey-text","210","954857","0.0-210.0","A1BM57TUNAQIXM","2022-05-19T03:36:11.572Z","task_switching-same_different-rhyme-phon_sim","","1767.6000000014901","task_switching","{""colorcue_switch_ans"":""36""}","experiment","33","colorcue_switch","36","true","add","","28","red","","","","","","","","","","","","","","","",""
"","","","","","survey-text","211","957264","0.0-211.0","A1BM57TUNAQIXM","2022-05-19T03:36:11.572Z","task_switching-same_different-rhyme-phon_sim","","2402.89999999851","task_switching","{""colorcue_switch_ans"":""64""}","experiment","67","colorcue_switch","64","true","subtract","","29","blue","","","","","","","","","","","","","","","",""
"","","","","","instructions","212","964321","0.0-212.0","A1BM57TUNAQIXM","2022-05-19T03:36:11.572Z","task_switching-same_different-rhyme-phon_sim","[{""page_index"":0,""viewing_time"":7055.60000000149}]","7055.89999999851","task_switching","","","","","","","","","","","","","","","","","","","","","","","","","",""
"","","","","","survey-text","213","966452","0.0-213.0","A1BM57TUNAQIXM","2022-05-19T03:36:11.572Z","task_switching-same_different-rhyme-phon_sim","","2128.2000000029802","task_switching","{""uncued_switch_ans"":""69""}","training","66","uncued_switch","69","true","add","","0","","","","","","","","","","","","","","","","",""
"","","","","","html-keyboard-response","214","967468","0.0-214.0","A1BM57TUNAQIXM","2022-05-19T03:36:11.572Z","task_switching-same_different-rhyme-phon_sim","","null","task_switching","null","training","<div style=""color:darkgreen; font-size:60px"">Well done!</div>","uncued_switch","","","","","","","","","","","","","","","","","","","","","",""
"","","","","","survey-text","215","970235","0.0-215.0","A1BM57TUNAQIXM","2022-05-19T03:36:11.572Z","task_switching-same_different-rhyme-phon_sim","","2765.2999999970198","task_switching","{""uncued_switch_ans"":""88""}","training","91","uncued_switch","88","true","subtract","","1","","","","","","","","","","","","","","","","",""
"","","","","","html-keyboard-response","216","971238","0.0-216.0","A1BM57TUNAQIXM","2022-05-19T03:36:11.572Z","task_switching-same_different-rhyme-phon_sim","","null","task_switching","null","training","<div style=""color:darkgreen; font-size:60px"">Well done!</div>","uncued_switch","","","","","","","","","","","","","","","","","","","","","",""
"","","","","","survey-text","217","973528","0.0-217.0","A1BM57TUNAQIXM","2022-05-19T03:36:11.572Z","task_switching-same_different-rhyme-phon_sim","","2287.5","task_switching","{""uncued_switch_ans"":""60""}","training","57","uncued_switch","60","true","add","","2","","","","","","","","","","","","","","","","",""
"","","","","","html-keyboard-response","218","974540","0.0-218.0","A1BM57TUNAQIXM","2022-05-19T03:36:11.572Z","task_switching-same_different-rhyme-phon_sim","","null","task_switching","null","training","<div style=""color:darkgreen; font-size:60px"">Well done!</div>","uncued_switch","","","","","","","","","","","","","","","","","","","","","",""
"","","","","","survey-text","219","976300","0.0-219.0","A1BM57TUNAQIXM","2022-05-19T03:36:11.572Z","task_switching-same_different-rhyme-phon_sim","","1755.2000000029802","task_switching","{""uncued_switch_ans"":""78""}","training","81","uncued_switch","78","true","subtract","","3","","","","","","","","","","","","","","","","",""
"","","","","","html-keyboard-response","220","977308","0.0-220.0","A1BM57TUNAQIXM","2022-05-19T03:36:11.572Z","task_switching-same_different-rhyme-phon_sim","","null","task_switching","null","training","<div style=""color:darkgreen; font-size:60px"">Well done!</div>","uncued_switch","","","","","","","","","","","","","","","","","","","","","",""
"","","","","","survey-text","221","979686","0.0-221.0","A1BM57TUNAQIXM","2022-05-19T03:36:11.572Z","task_switching-same_different-rhyme-phon_sim","","2375.5","task_switching","{""uncued_switch_ans"":""86""}","training","83","uncued_switch","86","true","add","","4","","","","","","","","","","","","","","","","",""
"","","","","","html-keyboard-response","222","980695","0.0-222.0","A1BM57TUNAQIXM","2022-05-19T03:36:11.572Z","task_switching-same_different-rhyme-phon_sim","","null","task_switching","null","training","<div style=""color:darkgreen; font-size:60px"">Well done!</div>","uncued_switch","","","","","","","","","","","","","","","","","","","","","",""
"","","","","","survey-text","223","983864","0.0-223.0","A1BM57TUNAQIXM","2022-05-19T03:36:11.572Z","task_switching-same_different-rhyme-phon_sim","","3163.89999999851","task_switching","{""uncued_switch_ans"":""87""}","training","89","uncued_switch","87","false","subtract","","5","","","","","","","","","","","","","","","","",""
"","","","","","html-keyboard-response","224","988875","0.0-224.0","A1BM57TUNAQIXM","2022-05-19T03:36:11.572Z","task_switching-same_different-rhyme-phon_sim","","null","task_switching","null","training","<div style=""color:darkred; font-size:40px"">Right direction but be careful with the numbers.<p> Correct answer: 86.</p><p> Next trial add 3.</p></div>","uncued_switch","","","","","","","","","","","","","","","","","","","","","",""
"","","","","","survey-text","225","991563","0.0-225.0","A1BM57TUNAQIXM","2022-05-19T03:36:11.572Z","task_switching-same_different-rhyme-phon_sim","","2682.9000000059605","task_switching","{""uncued_switch_ans"":""59""}","training","56","uncued_switch","59","true","add","","6","","","","","","","","","","","","","","","","",""
"","","","","","html-keyboard-response","226","992569","0.0-226.0","A1BM57TUNAQIXM","2022-05-19T03:36:11.572Z","task_switching-same_different-rhyme-phon_sim","","null","task_switching","null","training","<div style=""color:darkgreen; font-size:60px"">Well done!</div>","uncued_switch","","","","","","","","","","","","","","","","","","","","","",""
"","","","","","survey-text","227","995987","0.0-227.0","A1BM57TUNAQIXM","2022-05-19T03:36:11.572Z","task_switching-same_different-rhyme-phon_sim","","3414.10000000149","task_switching","{""uncued_switch_ans"":""57""}","training","60","uncued_switch","57","true","subtract","","7","","","","","","","","","","","","","","","","",""
"","","","","","html-keyboard-response","228","997000","0.0-228.0","A1BM57TUNAQIXM","2022-05-19T03:36:11.572Z","task_switching-same_different-rhyme-phon_sim","","null","task_switching","null","training","<div style=""color:darkgreen; font-size:60px"">Well done!</div>","uncued_switch","","","","","","","","","","","","","","","","","","","","","",""
"","","","","","survey-text","229","1000314","0.0-229.0","A1BM57TUNAQIXM","2022-05-19T03:36:11.572Z","task_switching-same_different-rhyme-phon_sim","","3309.60000000149","task_switching","{""uncued_switch_ans"":""90""}","training","93","uncued_switch","90","false","add","","8","","","","","","","","","","","","","","","","",""
"","","","","","html-keyboard-response","230","1005319","0.0-230.0","A1BM57TUNAQIXM","2022-05-19T03:36:11.572Z","task_switching-same_different-rhyme-phon_sim","","null","task_switching","null","training","<div style=""color:darkred; font-size:40px"">That was an <b>add</b> trial.<p> Correct answer: 96.</p><p> Next trial subtract 3.</p></div>","uncued_switch","","","","","","","","","","","","","","","","","","","","","",""
"","","","","","survey-text","231","1006799","0.0-231.0","A1BM57TUNAQIXM","2022-05-19T03:36:11.572Z","task_switching-same_different-rhyme-phon_sim","","1477.2999999970198","task_switching","{""uncued_switch_ans"":""21""}","training","24","uncued_switch","21","true","subtract","","9","","","","","","","","","","","","","","","","",""
"","","","","","html-keyboard-response","232","1007815","0.0-232.0","A1BM57TUNAQIXM","2022-05-19T03:36:11.572Z","task_switching-same_different-rhyme-phon_sim","","null","task_switching","null","training","<div style=""color:darkgreen; font-size:60px"">Well done!</div>","uncued_switch","","","","","","","","","","","","","","","","","","","","","",""
"","","","","","instructions","233","1009614","0.0-233.0","A1BM57TUNAQIXM","2022-05-19T03:36:11.572Z","task_switching-same_different-rhyme-phon_sim","[{""page_index"":0,""viewing_time"":1798.1000000014901}]","1798.4000000059605","task_switching","","","","","","","","","","","","","","","","","","","","","","","","","",""
"","","","","","survey-text","234","1011587","0.0-234.0","A1BM57TUNAQIXM","2022-05-19T03:36:11.572Z","task_switching-same_different-rhyme-phon_sim","","1969.7999999970198","task_switching","{""uncued_switch_ans"":""86""}","experiment","83","uncued_switch","86","true","add","","0","","","","","","","","","","","","","","","","",""
"","","","","","survey-text","235","1013084","0.0-235.0","A1BM57TUNAQIXM","2022-05-19T03:36:11.572Z","task_switching-same_different-rhyme-phon_sim","","1491.6999999955297","task_switching","{""uncued_switch_ans"":""21""}","experiment","24","uncued_switch","21","true","subtract","","1","","","","","","","","","","","","","","","","",""
"","","","","","survey-text","236","1014488","0.0-236.0","A1BM57TUNAQIXM","2022-05-19T03:36:11.572Z","task_switching-same_different-rhyme-phon_sim","","1397.1000000014901","task_switching","{""uncued_switch_ans"":""18""}","experiment","15","uncued_switch","18","true","add","","2","","","","","","","","","","","","","","","","",""
"","","","","","survey-text","237","1016042","0.0-237.0","A1BM57TUNAQIXM","2022-05-19T03:36:11.572Z","task_switching-same_different-rhyme-phon_sim","","1549.4000000059605","task_switching","{""uncued_switch_ans"":""37""}","experiment","40","uncued_switch","37","true","subtract","","3","","","","","","","","","","","","","","","","",""
"","","","","","survey-text","238","1017981","0.0-238.0","A1BM57TUNAQIXM","2022-05-19T03:36:11.572Z","task_switching-same_different-rhyme-phon_sim","","1936.8999999985099","task_switching","{""uncued_switch_ans"":""94""}","experiment","91","uncued_switch","94","true","add","","4","","","","","","","","","","","","","","","","",""
"","","","","","survey-text","239","1020891","0.0-239.0","A1BM57TUNAQIXM","2022-05-19T03:36:11.572Z","task_switching-same_different-rhyme-phon_sim","","2907.5","task_switching","{""uncued_switch_ans"":""28""}","experiment","31","uncued_switch","28","true","subtract","","5","","","","","","","","","","","","","","","","",""
"","","","","","survey-text","240","1022669","0.0-240.0","A1BM57TUNAQIXM","2022-05-19T03:36:11.572Z","task_switching-same_different-rhyme-phon_sim","","1772.6000000014901","task_switching","{""uncued_switch_ans"":""84""}","experiment","81","uncued_switch","84","true","add","","6","","","","","","","","","","","","","","","","",""
"","","","","","survey-text","241","1026719","0.0-241.0","A1BM57TUNAQIXM","2022-05-19T03:36:11.572Z","task_switching-same_different-rhyme-phon_sim","","4044.10000000149","task_switching","{""uncued_switch_ans"":""79""}","experiment","82","uncued_switch","79","true","subtract","","7","","","","","","","","","","","","","","","","",""
"","","","","","survey-text","242","1031398","0.0-242.0","A1BM57TUNAQIXM","2022-05-19T03:36:11.572Z","task_switching-same_different-rhyme-phon_sim","","4673.30000000447","task_switching","{""uncued_switch_ans"":""98""}","experiment","95","uncued_switch","98","true","add","","8","","","","","","","","","","","","","","","","",""
"","","","","","survey-text","243","1034913","0.0-243.0","A1BM57TUNAQIXM","2022-05-19T03:36:11.572Z","task_switching-same_different-rhyme-phon_sim","","3511.5","task_switching","{""uncued_switch_ans"":""44""}","experiment","47","uncued_switch","44","true","subtract","","9","","","","","","","","","","","","","","","","",""
"","","","","","survey-text","244","1037294","0.0-244.0","A1BM57TUNAQIXM","2022-05-19T03:36:11.572Z","task_switching-same_different-rhyme-phon_sim","","2375.7999999970198","task_switching","{""uncued_switch_ans"":""58""}","experiment","55","uncued_switch","58","true","add","","10","","","","","","","","","","","","","","","","",""
"","","","","","survey-text","245","1039278","0.0-245.0","A1BM57TUNAQIXM","2022-05-19T03:36:11.572Z","task_switching-same_different-rhyme-phon_sim","","1982","task_switching","{""uncued_switch_ans"":""42""}","experiment","45","uncued_switch","42","true","subtract","","11","","","","","","","","","","","","","","","","",""
"","","","","","survey-text","246","1043253","0.0-246.0","A1BM57TUNAQIXM","2022-05-19T03:36:11.572Z","task_switching-same_different-rhyme-phon_sim","","3973.5","task_switching","{""uncued_switch_ans"":""67""}","experiment","64","uncued_switch","67","true","add","","12","","","","","","","","","","","","","","","","",""
"","","","","","survey-text","247","1045570","0.0-247.0","A1BM57TUNAQIXM","2022-05-19T03:36:11.572Z","task_switching-same_different-rhyme-phon_sim","","2314.7999999970198","task_switching","{""uncued_switch_ans"":""11""}","experiment","14","uncued_switch","11","true","subtract","","13","","","","","","","","","","","","","","","","",""
"","","","","","survey-text","248","1050929","0.0-248.0","A1BM57TUNAQIXM","2022-05-19T03:36:11.572Z","task_switching-same_different-rhyme-phon_sim","","5353.10000000149","task_switching","{""uncued_switch_ans"":""78""}","experiment","75","uncued_switch","78","true","add","","14","","","","","","","","","","","","","","","","",""
"","","","","","survey-text","249","1052852","0.0-249.0","A1BM57TUNAQIXM","2022-05-19T03:36:11.572Z","task_switching-same_different-rhyme-phon_sim","","1917","task_switching","{""uncued_switch_ans"":""23""}","experiment","26","uncued_switch","23","true","subtract","","15","","","","","","","","","","","","","","","","",""
"","","","","","survey-text","250","1055573","0.0-250.0","A1BM57TUNAQIXM","2022-05-19T03:36:11.572Z","task_switching-same_different-rhyme-phon_sim","","2715.2999999970198","task_switching","{""uncued_switch_ans"":""21""}","experiment","18","uncued_switch","21","true","add","","16","","","","","","","","","","","","","","","","",""
"","","","","","survey-text","251","1060452","0.0-251.0","A1BM57TUNAQIXM","2022-05-19T03:36:11.572Z","task_switching-same_different-rhyme-phon_sim","","4875.19999999553","task_switching","{""uncued_switch_ans"":""46""}","experiment","49","uncued_switch","46","true","subtract","","17","","","","","","","","","","","","","","","","",""
"","","","","","survey-text","252","1062644","0.0-252.0","A1BM57TUNAQIXM","2022-05-19T03:36:11.572Z","task_switching-same_different-rhyme-phon_sim","","2189.60000000149","task_switching","{""uncued_switch_ans"":""77""}","experiment","74","uncued_switch","77","true","add","","18","","","","","","","","","","","","","","","","",""
"","","","","","survey-text","253","1064192","0.0-253.0","A1BM57TUNAQIXM","2022-05-19T03:36:11.572Z","task_switching-same_different-rhyme-phon_sim","","1543.2999999970198","task_switching","{""uncued_switch_ans"":""31""}","experiment","34","uncued_switch","31","true","subtract","","19","","","","","","","","","","","","","","","","",""
"","","","","","survey-text","254","1066543","0.0-254.0","A1BM57TUNAQIXM","2022-05-19T03:36:11.572Z","task_switching-same_different-rhyme-phon_sim","","2348.60000000149","task_switching","{""uncued_switch_ans"":""28""}","experiment","25","uncued_switch","28","true","add","","20","","","","","","","","","","","","","","","","",""
"","","","","","survey-text","255","1069541","0.0-255.0","A1BM57TUNAQIXM","2022-05-19T03:36:11.572Z","task_switching-same_different-rhyme-phon_sim","","2995.7000000029802","task_switching","{""uncued_switch_ans"":""48""}","experiment","51","uncued_switch","48","true","subtract","","21","","","","","","","","","","","","","","","","",""
"","","","","","survey-text","256","1071190","0.0-256.0","A1BM57TUNAQIXM","2022-05-19T03:36:11.572Z","task_switching-same_different-rhyme-phon_sim","","1647.7000000029802","task_switching","{""uncued_switch_ans"":""33""}","experiment","30","uncued_switch","33","true","add","","22","","","","","","","","","","","","","","","","",""
"","","","","","survey-text","257","1075218","0.0-257.0","A1BM57TUNAQIXM","2022-05-19T03:36:11.572Z","task_switching-same_different-rhyme-phon_sim","","4026.3000000044703","task_switching","{""uncued_switch_ans"":""66""}","experiment","69","uncued_switch","66","true","subtract","","23","","","","","","","","","","","","","","","","",""
"","","","","","survey-text","258","1077530","0.0-258.0","A1BM57TUNAQIXM","2022-05-19T03:36:11.572Z","task_switching-same_different-rhyme-phon_sim","","2307.89999999851","task_switching","{""uncued_switch_ans"":""40""}","experiment","37","uncued_switch","40","true","add","","24","","","","","","","","","","","","","","","","",""
"","","","","","survey-text","259","1079865","0.0-259.0","A1BM57TUNAQIXM","2022-05-19T03:36:11.572Z","task_switching-same_different-rhyme-phon_sim","","2329.5","task_switching","{""uncued_switch_ans"":""83""}","experiment","86","uncued_switch","83","true","subtract","","25","","","","","","","","","","","","","","","","",""
"","","","","","survey-text","260","1081550","0.0-260.0","A1BM57TUNAQIXM","2022-05-19T03:36:11.572Z","task_switching-same_different-rhyme-phon_sim","","1679.1000000014901","task_switching","{""uncued_switch_ans"":""31""}","experiment","28","uncued_switch","31","true","add","","26","","","","","","","","","","","","","","","","",""
"","","","","","survey-text","261","1083179","0.0-261.0","A1BM57TUNAQIXM","2022-05-19T03:36:11.572Z","task_switching-same_different-rhyme-phon_sim","","1624.8999999985099","task_switching","{""uncued_switch_ans"":""82""}","experiment","85","uncued_switch","82","true","subtract","","27","","","","","","","","","","","","","","","","",""
"","","","","","survey-text","262","1085177","0.0-262.0","A1BM57TUNAQIXM","2022-05-19T03:36:11.572Z","task_switching-same_different-rhyme-phon_sim","","1997","task_switching","{""uncued_switch_ans"":""95""}","experiment","92","uncued_switch","95","true","add","","28","","","","","","","","","","","","","","","","",""
"","","","","","survey-text","263","1087376","0.0-263.0","A1BM57TUNAQIXM","2022-05-19T03:36:11.572Z","task_switching-same_different-rhyme-phon_sim","","2196.2999999970198","task_switching","{""uncued_switch_ans"":""62""}","experiment","65","uncued_switch","62","true","subtract","","29","","","","","","","","","","","","","","","","",""
"","","","","","survey-multi-choice","264","1091454","0.0-264.0","A1BM57TUNAQIXM","2022-05-19T03:36:11.572Z","task_switching-same_different-rhyme-phon_sim","","4075.10000000149","task_switching","{""Q0"":""Yes""}","","","","","","","","","","[0]","Yes","","","","","","","","","","","","","",""
"","","","","","survey-text","265","1118564","0.0-265.0","A1BM57TUNAQIXM","2022-05-19T03:36:11.572Z","task_switching-same_different-rhyme-phon_sim","","27106.40000000596","task_switching","{""Q0"":""I mentally also told myself red means add, red means add to not forget what red and blue meant.""}","","","","","","","","","","","","I mentally also told myself red means add, red means add to not forget what red and blue meant.","","","","","","","","","","","","",""
"","","","","","instructions","266","1119429","0.0-266.0","A1BM57TUNAQIXM","2022-05-19T03:36:11.572Z","task_switching-same_different-rhyme-phon_sim","[{""page_index"":0,""viewing_time"":863.8999999985099}]","864.1000000014901","task_switching","","","","","","","","","","","","","","","","","","","","","","","","","",""
"","","","","","instructions","267","1123985","0.0-267.0","A1BM57TUNAQIXM","2022-05-19T03:36:11.572Z","task_switching-same_different-rhyme-phon_sim","[{""page_index"":0,""viewing_time"":4555.70000000298}]","4556.10000000149","same_different","","","","","","","","","","","","","","","","","","","","","","","","","",""
"","","","","","instructions","268","1128033","0.0-268.0","A1BM57TUNAQIXM","2022-05-19T03:36:11.572Z","task_switching-same_different-rhyme-phon_sim","[{""page_index"":0,""viewing_time"":4047.2999999970198}]","4047.5","","","","","","","","","","","","","","","","","","","","","","","","","","",""
"","","","","","html-keyboard-response","269","1128786","0.0-269.0-0.0","A1BM57TUNAQIXM","2022-05-19T03:36:11.572Z","task_switching-same_different-rhyme-phon_sim","","null","same_different","null","","<div style=""font-size:60px"">+</div>","","","","","","","","","","","","","","","","","","","","","","",""
"","","","","","html-keyboard-response","270","1131249","0.0-269.0-1.0","A1BM57TUNAQIXM","2022-05-19T03:36:11.572Z","task_switching-same_different-rhyme-phon_sim","","2456.2000000029802","same_different","arrowdown","","[""<img src=\""square.png\"" width=\""100\"" height=\""100\"" style=\""position: fixed;left:39%;top:47%\""><img src=\""square.png\"" width=\""100\"" height=\""100\"" style=\""position: fixed;left:54%;top:47%\""><img src=\""square.png\"" width=\""100\"" height=\""100\"" style=\""position: fixed;left:46.5%;top:32%\""><img src=\""square.png\"" width=\""100\"" height=\""100\"" style=\""position: fixed;left:46.5%;top:61%\""><div style=\""font-size:60px; text-align: center;margin-top:45.5%\"">+</div><div id=\""first\"" style=\""position: fixed;visibility: hidden;left:48%;top:62%\""><img src=\""same_diff_imgs/D11.gif\""></div><div id=\""delayed\"" style=\""position: fixed;visibility: hidden;left:48%;top:34%\""><img src=\""same_diff_imgs/C04.gif\""></div>""]","","different","true","","","","","","","","identical_image","same_diff_imgs/D11.gif","same_diff_imgs/C04.gif","no","1","","","","","","","",""
"","","","","","html-keyboard-response","271","1131252","0.0-269.0-2.0","A1BM57TUNAQIXM","2022-05-19T03:36:11.572Z","task_switching-same_different-rhyme-phon_sim","","null","","null",""," ","","","","","","","","","","","","","","","","","","","","","","",""
"","","","","","html-keyboard-response","272","1131553","0.0-269.0-3.0","A1BM57TUNAQIXM","2022-05-19T03:36:11.572Z","task_switching-same_different-rhyme-phon_sim","","null","same_different","null",""," ","","","","","","","","","","","","","","","","","","","","","","",""
"","","","","","html-keyboard-response","273","1132318","0.0-269.0-0.1","A1BM57TUNAQIXM","2022-05-19T03:36:11.572Z","task_switching-same_different-rhyme-phon_sim","","null","same_different","null","","<div style=""font-size:60px"">+</div>","","","","","","","","","","","","","","","","","","","","","","",""
"","","","","","html-keyboard-response","274","1133845","0.0-269.0-1.1","A1BM57TUNAQIXM","2022-05-19T03:36:11.572Z","task_switching-same_different-rhyme-phon_sim","","1525.7000000029802","same_different","arrowdown","","[""<img src=\""square.png\"" width=\""100\"" height=\""100\"" style=\""position: fixed;left:39%;top:47%\""><img src=\""square.png\"" width=\""100\"" height=\""100\"" style=\""position: fixed;left:54%;top:47%\""><img src=\""square.png\"" width=\""100\"" height=\""100\"" style=\""position: fixed;left:46.5%;top:32%\""><img src=\""square.png\"" width=\""100\"" height=\""100\"" style=\""position: fixed;left:46.5%;top:61%\""><div style=\""font-size:60px;text-align: center;margin-top:45.5%\"">+</div><div id=\""first\"" style=\""position: fixed;visibility: hidden;left:55%;top:49%\""><img src=\""same_diff_imgs/C04.gif\"" style=\""-webkit-transform: scaleX(-1);transform: scaleX(-1);\""></div><div id=\""delayed\"" style=\""position: fixed;visibility: hidden;left:48%;top:34%\""><img src=\""same_diff_imgs/C14.gif\"" style=\""-webkit-transform: scaleX(-1);transform: scaleX(-1);\""></div>""]","","different","true","","","","","","","","identical_image","same_diff_imgs/C04.gif","same_diff_imgs/C14.gif","yes","1","","","","","","","",""
"","","","","","html-keyboard-response","275","1133849","0.0-269.0-2.1","A1BM57TUNAQIXM","2022-05-19T03:36:11.572Z","task_switching-same_different-rhyme-phon_sim","","null","","null",""," ","","","","","","","","","","","","","","","","","","","","","","",""
"","","","","","html-keyboard-response","276","1134160","0.0-269.0-3.1","A1BM57TUNAQIXM","2022-05-19T03:36:11.572Z","task_switching-same_different-rhyme-phon_sim","","null","same_different","null",""," ","","","","","","","","","","","","","","","","","","","","","","",""
"","","","","","html-keyboard-response","277","1134912","0.0-269.0-0.2","A1BM57TUNAQIXM","2022-05-19T03:36:11.572Z","task_switching-same_different-rhyme-phon_sim","","null","same_different","null","","<div style=""font-size:60px"">+</div>","","","","","","","","","","","","","","","","","","","","","","",""
"","","","","","html-keyboard-response","278","1136239","0.0-269.0-1.2","A1BM57TUNAQIXM","2022-05-19T03:36:11.572Z","task_switching-same_different-rhyme-phon_sim","","1323","same_different","arrowup","","[""<img src=\""square.png\"" width=\""100\"" height=\""100\"" style=\""position: fixed;left:39%;top:47%\""><img src=\""square.png\"" width=\""100\"" height=\""100\"" style=\""position: fixed;left:54%;top:47%\""><img src=\""square.png\"" width=\""100\"" height=\""100\"" style=\""position: fixed;left:46.5%;top:32%\""><img src=\""square.png\"" width=\""100\"" height=\""100\"" style=\""position: fixed;left:46.5%;top:61%\""><div style=\""font-size:60px; text-align: center;margin-top:45.5%\"">+</div><div id=\""first\"" style=\""position: fixed;visibility: hidden;left:40%;top:48%\""><img src=\""same_diff_imgs/D07.gif\""></div><div id=\""delayed\"" style=\""position: fixed;visibility: hidden;left:48%;top:62%\""><img src=\""same_diff_imgs/D07.gif\""></div>""]","","same","true","","","","","","","","identical_image","same_diff_imgs/D07.gif","same_diff_imgs/D07.gif","no","","1","","","","","","",""
"","","","","","html-keyboard-response","279","1136242","0.0-269.0-2.2","A1BM57TUNAQIXM","2022-05-19T03:36:11.572Z","task_switching-same_different-rhyme-phon_sim","","null","","null",""," ","","","","","","","","","","","","","","","","","","","","","","",""
"","","","","","html-keyboard-response","280","1136549","0.0-269.0-3.2","A1BM57TUNAQIXM","2022-05-19T03:36:11.572Z","task_switching-same_different-rhyme-phon_sim","","null","same_different","null",""," ","","","","","","","","","","","","","","","","","","","","","","",""
"","","","","","html-keyboard-response","281","1137316","0.0-269.0-0.3","A1BM57TUNAQIXM","2022-05-19T03:36:11.572Z","task_switching-same_different-rhyme-phon_sim","","null","same_different","null","","<div style=""font-size:60px"">+</div>","","","","","","","","","","","","","","","","","","","","","","",""
"","","","","","html-keyboard-response","282","1138664","0.0-269.0-1.3","A1BM57TUNAQIXM","2022-05-19T03:36:11.572Z","task_switching-same_different-rhyme-phon_sim","","1343.7999999970198","same_different","arrowup","","[""<img src=\""square.png\"" width=\""100\"" height=\""100\"" style=\""position: fixed;left:39%;top:47%\""><img src=\""square.png\"" width=\""100\"" height=\""100\"" style=\""position: fixed;left:54%;top:47%\""><img src=\""square.png\"" width=\""100\"" height=\""100\"" style=\""position: fixed;left:46.5%;top:32%\""><img src=\""square.png\"" width=\""100\"" height=\""100\"" style=\""position: fixed;left:46.5%;top:61%\""><div style=\""font-size:60px; text-align: center;margin-top:45.5%\"">+</div><div id=\""first\"" style=\""position: fixed;visibility: hidden;left:48%;top:62%\""><img src=\""same_diff_imgs/C09.gif\""></div><div id=\""delayed\"" style=\""position: fixed;visibility: hidden;left:40%;top:48%\""><img src=\""same_diff_imgs/C09.gif\""></div>""]","","same","true","","","","","","","","identical_image","same_diff_imgs/C09.gif","same_diff_imgs/C09.gif","no","","1","","","","","","",""
"","","","","","html-keyboard-response","283","1138667","0.0-269.0-2.3","A1BM57TUNAQIXM","2022-05-19T03:36:11.572Z","task_switching-same_different-rhyme-phon_sim","","null","","null",""," ","","","","","","","","","","","","","","","","","","","","","","",""
"","","","","","html-keyboard-response","284","1138973","0.0-269.0-3.3","A1BM57TUNAQIXM","2022-05-19T03:36:11.572Z","task_switching-same_different-rhyme-phon_sim","","null","same_different","null",""," ","","","","","","","","","","","","","","","","","","","","","","",""
"","","","","","html-keyboard-response","285","1139737","0.0-269.0-0.4","A1BM57TUNAQIXM","2022-05-19T03:36:11.572Z","task_switching-same_different-rhyme-phon_sim","","null","same_different","null","","<div style=""font-size:60px"">+</div>","","","","","","","","","","","","","","","","","","","","","","",""
