"success","timeout","failed_images","failed_audio","failed_video","trial_type","trial_index","time_elapsed","internal_node_id","worker_id","start_time","experiment_order","view_history","rt","experiment","stimulus","response","wait_time","correct","phase","image_1","image_2","cor_key","type","question_order","talk_out_loud","strategy_free_ans","condition","answer","operation","symbol_cue","trial_no","color_cue","word_1","word_2","word_3","word_4","word_5","original_word_set","response_1","response_2","response_3","response_4","response_5","judgment_type","stim_1","stim_2","inverted","true_neg","true_pos","false_pos","false_neg"
"true","false","[]","[]","[]","preload","0","5428","0.0-0.0","A26UIS59SY4NM6","2022-05-19T01:48:22.431Z","rhyme-task_switching-phon_sim-same_different","","","","","","","","","","","","","","","","","","","","","","","","","","","","","","","","","","","","","","","",""
"","","","","","instructions","1","24406","0.0-1.0","A26UIS59SY4NM6","2022-05-19T01:48:22.431Z","rhyme-task_switching-phon_sim-same_different","[{""page_index"":0,""viewing_time"":18975.199999999255}]","18975.5","","","","","","","","","","","","","","","","","","","","","","","","","","","","","","","","","","","","","",""
"true","","","","","fullscreen","2","27985","0.0-2.0","A26UIS59SY4NM6","2022-05-19T01:48:22.431Z","rhyme-task_switching-phon_sim-same_different","","","","","","","","","","","","","","","","","","","","","","","","","","","","","","","","","","","","","","","",""
"","","","","","instructions","3","83622","0.0-3.0","A26UIS59SY4NM6","2022-05-19T01:48:22.431Z","rhyme-task_switching-phon_sim-same_different","[{""page_index"":0,""viewing_time"":55634.5}]","55634.79999999702","rhyme","","","","","","","","","","","","","","","","","","","","","","","","","","","","","","","","","","","","",""
"","","","","","html-keyboard-response","4","83881","0.0-4.0-0.0","A26UIS59SY4NM6","2022-05-19T01:48:22.431Z","rhyme-task_switching-phon_sim-same_different","","null","rhyme","<div style=""font-size:60px;"">+</div>","null","250","","","","","","","","","","","","","","","","","","","","","","","","","","","","","","","","","",""
"","","","","","html-keyboard-response","5","84391","0.0-4.0-1.0","A26UIS59SY4NM6","2022-05-19T01:48:22.431Z","rhyme-task_switching-phon_sim-same_different","","null","rhyme","<img src=""square.png"" width=""306"" height=""306"" style=""position: fixed;left:14%;top:30%""><img src=""square.png"" width=""306"" height=""306"" style=""position: fixed;left:64%;top:30%"">","null","","","","","","","","","","","","","","","","","","","","","","","","","","","","","","","","","","",""
"","","","","","categorize-html","6","88157","0.0-4.0-2.0","A26UIS59SY4NM6","2022-05-19T01:48:22.431Z","rhyme-task_switching-phon_sim-same_different","","2749.199999999255","rhyme","<div style=""border: 3px solid #000000; position: fixed;left:14%;top:30%""><img src=""visual/dress.png"" width=""300""></div><div style=""border: 3px solid #000000; position: fixed;left:64%;top:30%""><img src=""visual/chess.png"" width=""300""></div>","arrowdown","","false","training","visual/dress.png","visual/chess.png","ArrowUp","NA","","","","","","","","","","","","","","","","","","","","","","","","","","","",""
"","","","","","html-keyboard-response","7","88418","0.0-4.0-0.1","A26UIS59SY4NM6","2022-05-19T01:48:22.431Z","rhyme-task_switching-phon_sim-same_different","","null","rhyme","<div style=""font-size:60px;"">+</div>","null","250","","","","","","","","","","","","","","","","","","","","","","","","","","","","","","","","","",""
"","","","","","html-keyboard-response","8","88933","0.0-4.0-1.1","A26UIS59SY4NM6","2022-05-19T01:48:22.431Z","rhyme-task_switching-phon_sim-same_different","","null","rhyme","<img src=""square.png"" width=""306"" height=""306"" style=""position: fixed;left:14%;top:30%""><img src=""square.png"" width=""306"" height=""306"" style=""position: fixed;left:64%;top:30%"">","null","","","","","","","","","","","","","","","","","","","","","","","","","","","","","","","","","","",""
"","","","","","categorize-html","9","93592","0.0-4.0-2.1","A26UIS59SY4NM6","2022-05-19T01:48:22.431Z","rhyme-task_switching-phon_sim-same_different","","3654.89999999851","rhyme","<div style=""border: 3px solid #000000; position: fixed;left:14%;top:30%""><img src=""visual/chess.png"" width=""300""></div><div style=""border: 3px solid #000000; position: fixed;left:64%;top:30%""><img src=""visual/suit.png"" width=""300""></div>","arrowdown","","true","training","visual/chess.png","visual/suit.png","ArrowDown","NA","","","","","","","","","","","","","","","","","","","","","","","","","","","",""
"","","","","","html-keyboard-response","10","94107","0.0-4.0-0.2","A26UIS59SY4NM6","2022-05-19T01:48:22.431Z","rhyme-task_switching-phon_sim-same_different","","null","rhyme","<div style=""font-size:60px;"">+</div>","null","500","","","","","","","","","","","","","","","","","","","","","","","","","","","","","","","","","",""
"","","","","","html-keyboard-response","11","94628","0.0-4.0-1.2","A26UIS59SY4NM6","2022-05-19T01:48:22.431Z","rhyme-task_switching-phon_sim-same_different","","null","rhyme","<img src=""square.png"" width=""306"" height=""306"" style=""position: fixed;left:14%;top:30%""><img src=""square.png"" width=""306"" height=""306"" style=""position: fixed;left:64%;top:30%"">","null","","","","","","","","","","","","","","","","","","","","","","","","","","","","","","","","","","",""
"","","","","","categorize-html","12","99462","0.0-4.0-2.2","A26UIS59SY4NM6","2022-05-19T01:48:22.431Z","rhyme-task_switching-phon_sim-same_different","","3816.300000000745","rhyme","<div style=""border: 3px solid #000000; position: fixed;left:14%;top:30%""><img src=""visual/mouse.png"" width=""300""></div><div style=""border: 3px solid #000000; position: fixed;left:64%;top:30%""><img src=""visual/dress.png"" width=""300""></div>","arrowdown","","true","training","visual/mouse.png","visual/dress.png","ArrowDown","NA","","","","","","","","","","","","","","","","","","","","","","","","","","","",""
"","","","","","html-keyboard-response","13","99974","0.0-4.0-0.3","A26UIS59SY4NM6","2022-05-19T01:48:22.431Z","rhyme-task_switching-phon_sim-same_different","","null","rhyme","<div style=""font-size:60px;"">+</div>","null","500","","","","","","","","","","","","","","","","","","","","","","","","","","","","","","","","","",""
"","","","","","html-keyboard-response","14","100488","0.0-4.0-1.3","A26UIS59SY4NM6","2022-05-19T01:48:22.431Z","rhyme-task_switching-phon_sim-same_different","","null","rhyme","<img src=""square.png"" width=""306"" height=""306"" style=""position: fixed;left:14%;top:30%""><img src=""square.png"" width=""306"" height=""306"" style=""position: fixed;left:64%;top:30%"">","null","","","","","","","","","","","","","","","","","","","","","","","","","","","","","","","","","","",""
"","","","","","categorize-html","15","103258","0.0-4.0-2.3","A26UIS59SY4NM6","2022-05-19T01:48:22.431Z","rhyme-task_switching-phon_sim-same_different","","1757.4000000022352","rhyme","<div style=""border: 3px solid #000000; position: fixed;left:14%;top:30%""><img src=""visual/house.png"" width=""300""></div><div style=""border: 3px solid #000000; position: fixed;left:64%;top:30%""><img src=""visual/mouse.png"" width=""300""></div>","arrowup","","true","training","visual/house.png","visual/mouse.png","ArrowUp","NA","","","","","","","","","","","","","","","","","","","","","","","","","","","",""
"","","","","","instructions","16","105934","0.0-5.0","A26UIS59SY4NM6","2022-05-19T01:48:22.431Z","rhyme-task_switching-phon_sim-same_different","[{""page_index"":0,""viewing_time"":2675.5}]","2675.699999999255","","","","","","","","","","","","","","","","","","","","","","","","","","","","","","","","","","","","","",""
"","","","","","html-keyboard-response","17","106193","0.0-6.0-0.0","A26UIS59SY4NM6","2022-05-19T01:48:22.431Z","rhyme-task_switching-phon_sim-same_different","","null","rhyme","<div style=""font-size:60px;"">+</div>","null","250","","","","","","","","","","","","","","","","","","","","","","","","","","","","","","","","","",""
"","","","","","html-keyboard-response","18","106708","0.0-6.0-1.0","A26UIS59SY4NM6","2022-05-19T01:48:22.431Z","rhyme-task_switching-phon_sim-same_different","","null","rhyme","<img src=""square.png"" width=""306"" height=""306"" style=""position: fixed;left:14%;top:30%""><img src=""square.png"" width=""306"" height=""306"" style=""position: fixed;left:64%;top:30%"">","null","","","","","","","","","","","","","","","","","","","","","","","","","","","","","","","","","","",""
"","","","","","html-keyboard-response","19","108448","0.0-6.0-2.0","A26UIS59SY4NM6","2022-05-19T01:48:22.431Z","rhyme-task_switching-phon_sim-same_different","","1738.199999999255","rhyme","<div style=""border: 3px solid #000000; position: fixed;left:14%;top:30%""><img src=""visual/nail.png"" width=""300""></div><div style=""border: 3px solid #000000; position: fixed;left:64%;top:30%""><img src=""visual/whale.png"" width=""300""></div>","arrowup","","true","experiment","visual/nail.png","visual/whale.png","ArrowUp","non-ortho","","","","","","","","","","","","","","","","","","","","","","","","","","","",""
"","","","","","html-keyboard-response","20","108704","0.0-6.0-0.1","A26UIS59SY4NM6","2022-05-19T01:48:22.431Z","rhyme-task_switching-phon_sim-same_different","","null","rhyme","<div style=""font-size:60px;"">+</div>","null","250","","","","","","","","","","","","","","","","","","","","","","","","","","","","","","","","","",""
"","","","","","html-keyboard-response","21","109206","0.0-6.0-1.1","A26UIS59SY4NM6","2022-05-19T01:48:22.431Z","rhyme-task_switching-phon_sim-same_different","","null","rhyme","<img src=""square.png"" width=""306"" height=""306"" style=""position: fixed;left:14%;top:30%""><img src=""square.png"" width=""306"" height=""306"" style=""position: fixed;left:64%;top:30%"">","null","","","","","","","","","","","","","","","","","","","","","","","","","","","","","","","","","","",""
"","","","","","html-keyboard-response","22","111425","0.0-6.0-2.1","A26UIS59SY4NM6","2022-05-19T01:48:22.431Z","rhyme-task_switching-phon_sim-same_different","","2216.2000000029802","rhyme","<div style=""border: 3px solid #000000; position: fixed;left:14%;top:30%""><img src=""visual/well.png"" width=""300""></div><div style=""border: 3px solid #000000; position: fixed;left:64%;top:30%""><img src=""visual/rose.png"" width=""300""></div>","arrowdown","","true","experiment","visual/well.png","visual/rose.png","ArrowDown","NR","","","","","","","","","","","","","","","","","","","","","","","","","","","",""
"","","","","","html-keyboard-response","23","112435","0.0-6.0-0.2","A26UIS59SY4NM6","2022-05-19T01:48:22.431Z","rhyme-task_switching-phon_sim-same_different","","null","rhyme","<div style=""font-size:60px;"">+</div>","null","1000","","","","","","","","","","","","","","","","","","","","","","","","","","","","","","","","","",""
"","","","","","html-keyboard-response","24","112949","0.0-6.0-1.2","A26UIS59SY4NM6","2022-05-19T01:48:22.431Z","rhyme-task_switching-phon_sim-same_different","","null","rhyme","<img src=""square.png"" width=""306"" height=""306"" style=""position: fixed;left:14%;top:30%""><img src=""square.png"" width=""306"" height=""306"" style=""position: fixed;left:64%;top:30%"">","null","","","","","","","","","","","","","","","","","","","","","","","","","","","","","","","","","","",""
"","","","","","html-keyboard-response","25","114280","0.0-6.0-2.2","A26UIS59SY4NM6","2022-05-19T01:48:22.431Z","rhyme-task_switching-phon_sim-same_different","","1324.199999999255","rhyme","<div style=""border: 3px solid #000000; position: fixed;left:14%;top:30%""><img src=""visual/tie.png"" width=""300""></div><div style=""border: 3px solid #000000; position: fixed;left:64%;top:30%""><img src=""visual/fly.png"" width=""300""></div>","arrowup","","true","experiment","visual/tie.png","visual/fly.png","ArrowUp","non-ortho","","","","","","","","","","","","","","","","","","","","","","","","","","","",""
"","","","","","html-keyboard-response","26","114789","0.0-6.0-0.3","A26UIS59SY4NM6","2022-05-19T01:48:22.431Z","rhyme-task_switching-phon_sim-same_different","","null","rhyme","<div style=""font-size:60px;"">+</div>","null","500","","","","","","","","","","","","","","","","","","","","","","","","","","","","","","","","","",""
"","","","","","html-keyboard-response","27","115308","0.0-6.0-1.3","A26UIS59SY4NM6","2022-05-19T01:48:22.431Z","rhyme-task_switching-phon_sim-same_different","","null","rhyme","<img src=""square.png"" width=""306"" height=""306"" style=""position: fixed;left:14%;top:30%""><img src=""square.png"" width=""306"" height=""306"" style=""position: fixed;left:64%;top:30%"">","null","","","","","","","","","","","","","","","","","","","","","","","","","","","","","","","","","","",""
"","","","","","html-keyboard-response","28","117624","0.0-6.0-2.3","A26UIS59SY4NM6","2022-05-19T01:48:22.431Z","rhyme-task_switching-phon_sim-same_different","","2313.10000000149","rhyme","<div style=""border: 3px solid #000000; position: fixed;left:14%;top:30%""><img src=""visual/drawer.png"" width=""300""></div><div style=""border: 3px solid #000000; position: fixed;left:64%;top:30%""><img src=""visual/chair.png"" width=""300""></div>","arrowdown","","true","experiment","visual/drawer.png","visual/chair.png","ArrowDown","NR","","","","","","","","","","","","","","","","","","","","","","","","","","","",""
"","","","","","html-keyboard-response","29","117890","0.0-6.0-0.4","A26UIS59SY4NM6","2022-05-19T01:48:22.431Z","rhyme-task_switching-phon_sim-same_different","","null","rhyme","<div style=""font-size:60px;"">+</div>","null","250","","","","","","","","","","","","","","","","","","","","","","","","","","","","","","","","","",""
"","","","","","html-keyboard-response","30","118406","0.0-6.0-1.4","A26UIS59SY4NM6","2022-05-19T01:48:22.431Z","rhyme-task_switching-phon_sim-same_different","","null","rhyme","<img src=""square.png"" width=""306"" height=""306"" style=""position: fixed;left:14%;top:30%""><img src=""square.png"" width=""306"" height=""306"" style=""position: fixed;left:64%;top:30%"">","null","","","","","","","","","","","","","","","","","","","","","","","","","","","","","","","","","","",""
"","","","","","html-keyboard-response","31","119950","0.0-6.0-2.4","A26UIS59SY4NM6","2022-05-19T01:48:22.431Z","rhyme-task_switching-phon_sim-same_different","","1542.3999999985099","rhyme","<div style=""border: 3px solid #000000; position: fixed;left:14%;top:30%""><img src=""visual/star.png"" width=""300""></div><div style=""border: 3px solid #000000; position: fixed;left:64%;top:30%""><img src=""visual/jar.png"" width=""300""></div>","arrowup","","true","experiment","visual/star.png","visual/jar.png","ArrowUp","ortho","","","","","","","","","","","","","","","","","","","","","","","","","","","",""
"","","","","","html-keyboard-response","32","120715","0.0-6.0-0.5","A26UIS59SY4NM6","2022-05-19T01:48:22.431Z","rhyme-task_switching-phon_sim-same_different","","null","rhyme","<div style=""font-size:60px;"">+</div>","null","750","","","","","","","","","","","","","","","","","","","","","","","","","","","","","","","","","",""
"","","","","","html-keyboard-response","33","121230","0.0-6.0-1.5","A26UIS59SY4NM6","2022-05-19T01:48:22.431Z","rhyme-task_switching-phon_sim-same_different","","null","rhyme","<img src=""square.png"" width=""306"" height=""306"" style=""position: fixed;left:14%;top:30%""><img src=""square.png"" width=""306"" height=""306"" style=""position: fixed;left:64%;top:30%"">","null","","","","","","","","","","","","","","","","","","","","","","","","","","","","","","","","","","",""
"","","","","","html-keyboard-response","34","122727","0.0-6.0-2.5","A26UIS59SY4NM6","2022-05-19T01:48:22.431Z","rhyme-task_switching-phon_sim-same_different","","1495.5","rhyme","<div style=""border: 3px solid #000000; position: fixed;left:14%;top:30%""><img src=""visual/cat.png"" width=""300""></div><div style=""border: 3px solid #000000; position: fixed;left:64%;top:30%""><img src=""visual/sock.png"" width=""300""></div>","arrowdown","","true","experiment","visual/cat.png","visual/sock.png","ArrowDown","NR","","","","","","","","","","","","","","","","","","","","","","","","","","","",""
"","","","","","html-keyboard-response","35","123479","0.0-6.0-0.6","A26UIS59SY4NM6","2022-05-19T01:48:22.431Z","rhyme-task_switching-phon_sim-same_different","","null","rhyme","<div style=""font-size:60px;"">+</div>","null","750","","","","","","","","","","","","","","","","","","","","","","","","","","","","","","","","","",""
"","","","","","html-keyboard-response","36","123995","0.0-6.0-1.6","A26UIS59SY4NM6","2022-05-19T01:48:22.431Z","rhyme-task_switching-phon_sim-same_different","","null","rhyme","<img src=""square.png"" width=""306"" height=""306"" style=""position: fixed;left:14%;top:30%""><img src=""square.png"" width=""306"" height=""306"" style=""position: fixed;left:64%;top:30%"">","null","","","","","","","","","","","","","","","","","","","","","","","","","","","","","","","","","","",""
"","","","","","html-keyboard-response","37","128623","0.0-6.0-2.6","A26UIS59SY4NM6","2022-05-19T01:48:22.431Z","rhyme-task_switching-phon_sim-same_different","","4624.39999999851","rhyme","<div style=""border: 3px solid #000000; position: fixed;left:14%;top:30%""><img src=""visual/wheel.png"" width=""300""></div><div style=""border: 3px solid #000000; position: fixed;left:64%;top:30%""><img src=""visual/seal.png"" width=""300""></div>","arrowup","","true","experiment","visual/wheel.png","visual/seal.png","ArrowUp","non-ortho","","","","","","","","","","","","","","","","","","","","","","","","","","","",""
"","","","","","html-keyboard-response","38","129129","0.0-6.0-0.7","A26UIS59SY4NM6","2022-05-19T01:48:22.431Z","rhyme-task_switching-phon_sim-same_different","","null","rhyme","<div style=""font-size:60px;"">+</div>","null","500","","","","","","","","","","","","","","","","","","","","","","","","","","","","","","","","","",""
"","","","","","html-keyboard-response","39","129640","0.0-6.0-1.7","A26UIS59SY4NM6","2022-05-19T01:48:22.431Z","rhyme-task_switching-phon_sim-same_different","","null","rhyme","<img src=""square.png"" width=""306"" height=""306"" style=""position: fixed;left:14%;top:30%""><img src=""square.png"" width=""306"" height=""306"" style=""position: fixed;left:64%;top:30%"">","null","","","","","","","","","","","","","","","","","","","","","","","","","","","","","","","","","","",""
"","","","","","html-keyboard-response","40","131840","0.0-6.0-2.7","A26UIS59SY4NM6","2022-05-19T01:48:22.431Z","rhyme-task_switching-phon_sim-same_different","","2196.300000000745","rhyme","<div style=""border: 3px solid #000000; position: fixed;left:14%;top:30%""><img src=""visual/egg.png"" width=""300""></div><div style=""border: 3px solid #000000; position: fixed;left:64%;top:30%""><img src=""visual/leg.png"" width=""300""></div>","arrowup","","true","experiment","visual/egg.png","visual/leg.png","ArrowUp","ortho","","","","","","","","","","","","","","","","","","","","","","","","","","","",""
"","","","","","html-keyboard-response","41","132595","0.0-6.0-0.8","A26UIS59SY4NM6","2022-05-19T01:48:22.431Z","rhyme-task_switching-phon_sim-same_different","","null","rhyme","<div style=""font-size:60px;"">+</div>","null","750","","","","","","","","","","","","","","","","","","","","","","","","","","","","","","","","","",""
"","","","","","html-keyboard-response","42","133108","0.0-6.0-1.8","A26UIS59SY4NM6","2022-05-19T01:48:22.431Z","rhyme-task_switching-phon_sim-same_different","","null","rhyme","<img src=""square.png"" width=""306"" height=""306"" style=""position: fixed;left:14%;top:30%""><img src=""square.png"" width=""306"" height=""306"" style=""position: fixed;left:64%;top:30%"">","null","","","","","","","","","","","","","","","","","","","","","","","","","","","","","","","","","","",""
"","","","","","html-keyboard-response","43","137482","0.0-6.0-2.8","A26UIS59SY4NM6","2022-05-19T01:48:22.431Z","rhyme-task_switching-phon_sim-same_different","","4369.89999999851","rhyme","<div style=""border: 3px solid #000000; position: fixed;left:14%;top:30%""><img src=""visual/soap.png"" width=""300""></div><div style=""border: 3px solid #000000; position: fixed;left:64%;top:30%""><img src=""visual/shoe.png"" width=""300""></div>","arrowdown","","true","experiment","visual/soap.png","visual/shoe.png","ArrowDown","NR","","","","","","","","","","","","","","","","","","","","","","","","","","","",""
"","","","","","html-keyboard-response","44","138490","0.0-6.0-0.9","A26UIS59SY4NM6","2022-05-19T01:48:22.431Z","rhyme-task_switching-phon_sim-same_different","","null","rhyme","<div style=""font-size:60px;"">+</div>","null","1000","","","","","","","","","","","","","","","","","","","","","","","","","","","","","","","","","",""
"","","","","","html-keyboard-response","45","139007","0.0-6.0-1.9","A26UIS59SY4NM6","2022-05-19T01:48:22.431Z","rhyme-task_switching-phon_sim-same_different","","null","rhyme","<img src=""square.png"" width=""306"" height=""306"" style=""position: fixed;left:14%;top:30%""><img src=""square.png"" width=""306"" height=""306"" style=""position: fixed;left:64%;top:30%"">","null","","","","","","","","","","","","","","","","","","","","","","","","","","","","","","","","","","",""
"","","","","","html-keyboard-response","46","141206","0.0-6.0-2.9","A26UIS59SY4NM6","2022-05-19T01:48:22.431Z","rhyme-task_switching-phon_sim-same_different","","2195.39999999851","rhyme","<div style=""border: 3px solid #000000; position: fixed;left:14%;top:30%""><img src=""visual/nose.png"" width=""300""></div><div style=""border: 3px solid #000000; position: fixed;left:64%;top:30%""><img src=""visual/bell.png"" width=""300""></div>","arrowdown","","true","experiment","visual/nose.png","visual/bell.png","ArrowDown","NR","","","","","","","","","","","","","","","","","","","","","","","","","","","",""
"","","","","","html-keyboard-response","47","141961","0.0-6.0-0.10","A26UIS59SY4NM6","2022-05-19T01:48:22.431Z","rhyme-task_switching-phon_sim-same_different","","null","rhyme","<div style=""font-size:60px;"">+</div>","null","750","","","","","","","","","","","","","","","","","","","","","","","","","","","","","","","","","",""
"","","","","","html-keyboard-response","48","142477","0.0-6.0-1.10","A26UIS59SY4NM6","2022-05-19T01:48:22.431Z","rhyme-task_switching-phon_sim-same_different","","null","rhyme","<img src=""square.png"" width=""306"" height=""306"" style=""position: fixed;left:14%;top:30%""><img src=""square.png"" width=""306"" height=""306"" style=""position: fixed;left:64%;top:30%"">","null","","","","","","","","","","","","","","","","","","","","","","","","","","","","","","","","","","",""
"","","","","","html-keyboard-response","49","143862","0.0-6.0-2.10","A26UIS59SY4NM6","2022-05-19T01:48:22.431Z","rhyme-task_switching-phon_sim-same_different","","1384.0999999977648","rhyme","<div style=""border: 3px solid #000000; position: fixed;left:14%;top:30%""><img src=""visual/box.png"" width=""300""></div><div style=""border: 3px solid #000000; position: fixed;left:64%;top:30%""><img src=""visual/fox.png"" width=""300""></div>","arrowup","","true","experiment","visual/box.png","visual/fox.png","ArrowUp","ortho","","","","","","","","","","","","","","","","","","","","","","","","","","","",""
"","","","","","html-keyboard-response","50","144873","0.0-6.0-0.11","A26UIS59SY4NM6","2022-05-19T01:48:22.431Z","rhyme-task_switching-phon_sim-same_different","","null","rhyme","<div style=""font-size:60px;"">+</div>","null","1000","","","","","","","","","","","","","","","","","","","","","","","","","","","","","","","","","",""
"","","","","","html-keyboard-response","51","145384","0.0-6.0-1.11","A26UIS59SY4NM6","2022-05-19T01:48:22.431Z","rhyme-task_switching-phon_sim-same_different","","null","rhyme","<img src=""square.png"" width=""306"" height=""306"" style=""position: fixed;left:14%;top:30%""><img src=""square.png"" width=""306"" height=""306"" style=""position: fixed;left:64%;top:30%"">","null","","","","","","","","","","","","","","","","","","","","","","","","","","","","","","","","","","",""
"","","","","","html-keyboard-response","52","149281","0.0-6.0-2.11","A26UIS59SY4NM6","2022-05-19T01:48:22.431Z","rhyme-task_switching-phon_sim-same_different","","3894","rhyme","<div style=""border: 3px solid #000000; position: fixed;left:14%;top:30%""><img src=""visual/chain.png"" width=""300""></div><div style=""border: 3px solid #000000; position: fixed;left:64%;top:30%""><img src=""visual/brain.png"" width=""300""></div>","arrowup","","true","experiment","visual/chain.png","visual/brain.png","ArrowUp","ortho","","","","","","","","","","","","","","","","","","","","","","","","","","","",""
"","","","","","html-keyboard-response","53","149536","0.0-6.0-0.12","A26UIS59SY4NM6","2022-05-19T01:48:22.431Z","rhyme-task_switching-phon_sim-same_different","","null","rhyme","<div style=""font-size:60px;"">+</div>","null","250","","","","","","","","","","","","","","","","","","","","","","","","","","","","","","","","","",""
"","","","","","html-keyboard-response","54","150047","0.0-6.0-1.12","A26UIS59SY4NM6","2022-05-19T01:48:22.431Z","rhyme-task_switching-phon_sim-same_different","","null","rhyme","<img src=""square.png"" width=""306"" height=""306"" style=""position: fixed;left:14%;top:30%""><img src=""square.png"" width=""306"" height=""306"" style=""position: fixed;left:64%;top:30%"">","null","","","","","","","","","","","","","","","","","","","","","","","","","","","","","","","","","","",""
"","","","","","html-keyboard-response","55","155053","0.0-6.0-2.12","A26UIS59SY4NM6","2022-05-19T01:48:22.431Z","rhyme-task_switching-phon_sim-same_different","","null","rhyme","<div style=""border: 3px solid #000000; position: fixed;left:14%;top:30%""><img src=""visual/fan.png"" width=""300""></div><div style=""border: 3px solid #000000; position: fixed;left:64%;top:30%""><img src=""visual/man.png"" width=""300""></div>","null","","false","experiment","visual/fan.png","visual/man.png","ArrowUp","ortho","","","","","","","","","","","","","","","","","","","","","","","","","","","",""
"","","","","","html-keyboard-response","56","155563","0.0-6.0-0.13","A26UIS59SY4NM6","2022-05-19T01:48:22.431Z","rhyme-task_switching-phon_sim-same_different","","null","rhyme","<div style=""font-size:60px;"">+</div>","null","500","","","","","","","","","","","","","","","","","","","","","","","","","","","","","","","","","",""
"","","","","","html-keyboard-response","57","156072","0.0-6.0-1.13","A26UIS59SY4NM6","2022-05-19T01:48:22.431Z","rhyme-task_switching-phon_sim-same_different","","null","rhyme","<img src=""square.png"" width=""306"" height=""306"" style=""position: fixed;left:14%;top:30%""><img src=""square.png"" width=""306"" height=""306"" style=""position: fixed;left:64%;top:30%"">","null","","","","","","","","","","","","","","","","","","","","","","","","","","","","","","","","","","",""
"","","","","","html-keyboard-response","58","157607","0.0-6.0-2.13","A26UIS59SY4NM6","2022-05-19T01:48:22.431Z","rhyme-task_switching-phon_sim-same_different","","1531.5","rhyme","<div style=""border: 3px solid #000000; position: fixed;left:14%;top:30%""><img src=""visual/rose.png"" width=""300""></div><div style=""border: 3px solid #000000; position: fixed;left:64%;top:30%""><img src=""visual/nose.png"" width=""300""></div>","arrowup","","true","experiment","visual/rose.png","visual/nose.png","ArrowUp","ortho","","","","","","","","","","","","","","","","","","","","","","","","","","","",""
"","","","","","html-keyboard-response","59","157867","0.0-6.0-0.14","A26UIS59SY4NM6","2022-05-19T01:48:22.431Z","rhyme-task_switching-phon_sim-same_different","","null","rhyme","<div style=""font-size:60px;"">+</div>","null","250","","","","","","","","","","","","","","","","","","","","","","","","","","","","","","","","","",""
"","","","","","html-keyboard-response","60","158378","0.0-6.0-1.14","A26UIS59SY4NM6","2022-05-19T01:48:22.431Z","rhyme-task_switching-phon_sim-same_different","","null","rhyme","<img src=""square.png"" width=""306"" height=""306"" style=""position: fixed;left:14%;top:30%""><img src=""square.png"" width=""306"" height=""306"" style=""position: fixed;left:64%;top:30%"">","null","","","","","","","","","","","","","","","","","","","","","","","","","","","","","","","","","","",""
"","","","","","html-keyboard-response","61","160984","0.0-6.0-2.14","A26UIS59SY4NM6","2022-05-19T01:48:22.431Z","rhyme-task_switching-phon_sim-same_different","","2604.699999999255","rhyme","<div style=""border: 3px solid #000000; position: fixed;left:14%;top:30%""><img src=""visual/train.png"" width=""300""></div><div style=""border: 3px solid #000000; position: fixed;left:64%;top:30%""><img src=""visual/screw.png"" width=""300""></div>","arrowdown","","true","experiment","visual/train.png","visual/screw.png","ArrowDown","NR","","","","","","","","","","","","","","","","","","","","","","","","","","","",""
"","","","","","html-keyboard-response","62","161499","0.0-6.0-0.15","A26UIS59SY4NM6","2022-05-19T01:48:22.431Z","rhyme-task_switching-phon_sim-same_different","","null","rhyme","<div style=""font-size:60px;"">+</div>","null","500","","","","","","","","","","","","","","","","","","","","","","","","","","","","","","","","","",""
"","","","","","html-keyboard-response","63","162015","0.0-6.0-1.15","A26UIS59SY4NM6","2022-05-19T01:48:22.431Z","rhyme-task_switching-phon_sim-same_different","","null","rhyme","<img src=""square.png"" width=""306"" height=""306"" style=""position: fixed;left:14%;top:30%""><img src=""square.png"" width=""306"" height=""306"" style=""position: fixed;left:64%;top:30%"">","null","","","","","","","","","","","","","","","","","","","","","","","","","","","","","","","","","","",""
"","","","","","html-keyboard-response","64","163519","0.0-6.0-2.15","A26UIS59SY4NM6","2022-05-19T01:48:22.431Z","rhyme-task_switching-phon_sim-same_different","","1502.800000000745","rhyme","<div style=""border: 3px solid #000000; position: fixed;left:14%;top:30%""><img src=""visual/dart.png"" width=""300""></div><div style=""border: 3px solid #000000; position: fixed;left:64%;top:30%""><img src=""visual/heart.png"" width=""300""></div>","arrowup","","true","experiment","visual/dart.png","visual/heart.png","ArrowUp","non-ortho","","","","","","","","","","","","","","","","","","","","","","","","","","","",""
"","","","","","html-keyboard-response","65","163784","0.0-6.0-0.16","A26UIS59SY4NM6","2022-05-19T01:48:22.431Z","rhyme-task_switching-phon_sim-same_different","","null","rhyme","<div style=""font-size:60px;"">+</div>","null","250","","","","","","","","","","","","","","","","","","","","","","","","","","","","","","","","","",""
"","","","","","html-keyboard-response","66","164299","0.0-6.0-1.16","A26UIS59SY4NM6","2022-05-19T01:48:22.431Z","rhyme-task_switching-phon_sim-same_different","","null","rhyme","<img src=""square.png"" width=""306"" height=""306"" style=""position: fixed;left:14%;top:30%""><img src=""square.png"" width=""306"" height=""306"" style=""position: fixed;left:64%;top:30%"">","null","","","","","","","","","","","","","","","","","","","","","","","","","","","","","","","","","","",""
"","","","","","html-keyboard-response","67","165854","0.0-6.0-2.16","A26UIS59SY4NM6","2022-05-19T01:48:22.431Z","rhyme-task_switching-phon_sim-same_different","","1552.699999999255","rhyme","<div style=""border: 3px solid #000000; position: fixed;left:14%;top:30%""><img src=""visual/king.png"" width=""300""></div><div style=""border: 3px solid #000000; position: fixed;left:64%;top:30%""><img src=""visual/ring.png"" width=""300""></div>","arrowup","","true","experiment","visual/king.png","visual/ring.png","ArrowUp","ortho","","","","","","","","","","","","","","","","","","","","","","","","","","","",""
"","","","","","html-keyboard-response","68","166359","0.0-6.0-0.17","A26UIS59SY4NM6","2022-05-19T01:48:22.431Z","rhyme-task_switching-phon_sim-same_different","","null","rhyme","<div style=""font-size:60px;"">+</div>","null","500","","","","","","","","","","","","","","","","","","","","","","","","","","","","","","","","","",""
"","","","","","html-keyboard-response","69","166873","0.0-6.0-1.17","A26UIS59SY4NM6","2022-05-19T01:48:22.431Z","rhyme-task_switching-phon_sim-same_different","","null","rhyme","<img src=""square.png"" width=""306"" height=""306"" style=""position: fixed;left:14%;top:30%""><img src=""square.png"" width=""306"" height=""306"" style=""position: fixed;left:64%;top:30%"">","null","","","","","","","","","","","","","","","","","","","","","","","","","","","","","","","","","","",""
"","","","","","html-keyboard-response","70","169351","0.0-6.0-2.17","A26UIS59SY4NM6","2022-05-19T01:48:22.431Z","rhyme-task_switching-phon_sim-same_different","","2477.5","rhyme","<div style=""border: 3px solid #000000; position: fixed;left:14%;top:30%""><img src=""visual/spoon.png"" width=""300""></div><div style=""border: 3px solid #000000; position: fixed;left:64%;top:30%""><img src=""visual/crab.png"" width=""300""></div>","arrowdown","","true","experiment","visual/spoon.png","visual/crab.png","ArrowDown","NR","","","","","","","","","","","","","","","","","","","","","","","","","","","",""
"","","","","","html-keyboard-response","71","170113","0.0-6.0-0.18","A26UIS59SY4NM6","2022-05-19T01:48:22.431Z","rhyme-task_switching-phon_sim-same_different","","null","rhyme","<div style=""font-size:60px;"">+</div>","null","750","","","","","","","","","","","","","","","","","","","","","","","","","","","","","","","","","",""
"","","","","","html-keyboard-response","72","170623","0.0-6.0-1.18","A26UIS59SY4NM6","2022-05-19T01:48:22.431Z","rhyme-task_switching-phon_sim-same_different","","null","rhyme","<img src=""square.png"" width=""306"" height=""306"" style=""position: fixed;left:14%;top:30%""><img src=""square.png"" width=""306"" height=""306"" style=""position: fixed;left:64%;top:30%"">","null","","","","","","","","","","","","","","","","","","","","","","","","","","","","","","","","","","",""
"","","","","","html-keyboard-response","73","172246","0.0-6.0-2.18","A26UIS59SY4NM6","2022-05-19T01:48:22.431Z","rhyme-task_switching-phon_sim-same_different","","1620.199999999255","rhyme","<div style=""border: 3px solid #000000; position: fixed;left:14%;top:30%""><img src=""visual/saw.png"" width=""300""></div><div style=""border: 3px solid #000000; position: fixed;left:64%;top:30%""><img src=""visual/claw.png"" width=""300""></div>","arrowup","","true","experiment","visual/saw.png","visual/claw.png","ArrowUp","ortho","","","","","","","","","","","","","","","","","","","","","","","","","","","",""
"","","","","","html-keyboard-response","74","172997","0.0-6.0-0.19","A26UIS59SY4NM6","2022-05-19T01:48:22.431Z","rhyme-task_switching-phon_sim-same_different","","null","rhyme","<div style=""font-size:60px;"">+</div>","null","750","","","","","","","","","","","","","","","","","","","","","","","","","","","","","","","","","",""
"","","","","","html-keyboard-response","75","173513","0.0-6.0-1.19","A26UIS59SY4NM6","2022-05-19T01:48:22.431Z","rhyme-task_switching-phon_sim-same_different","","null","rhyme","<img src=""square.png"" width=""306"" height=""306"" style=""position: fixed;left:14%;top:30%""><img src=""square.png"" width=""306"" height=""306"" style=""position: fixed;left:64%;top:30%"">","null","","","","","","","","","","","","","","","","","","","","","","","","","","","","","","","","","","",""
"","","","","","html-keyboard-response","76","175982","0.0-6.0-2.19","A26UIS59SY4NM6","2022-05-19T01:48:22.431Z","rhyme-task_switching-phon_sim-same_different","","2467.5","rhyme","<div style=""border: 3px solid #000000; position: fixed;left:14%;top:30%""><img src=""visual/well.png"" width=""300""></div><div style=""border: 3px solid #000000; position: fixed;left:64%;top:30%""><img src=""visual/bell.png"" width=""300""></div>","arrowup","","true","experiment","visual/well.png","visual/bell.png","ArrowUp","ortho","","","","","","","","","","","","","","","","","","","","","","","","","","","",""
"","","","","","html-keyboard-response","77","176736","0.0-6.0-0.20","A26UIS59SY4NM6","2022-05-19T01:48:22.431Z","rhyme-task_switching-phon_sim-same_different","","null","rhyme","<div style=""font-size:60px;"">+</div>","null","750","","","","","","","","","","","","","","","","","","","","","","","","","","","","","","","","","",""
"","","","","","html-keyboard-response","78","177250","0.0-6.0-1.20","A26UIS59SY4NM6","2022-05-19T01:48:22.431Z","rhyme-task_switching-phon_sim-same_different","","null","rhyme","<img src=""square.png"" width=""306"" height=""306"" style=""position: fixed;left:14%;top:30%""><img src=""square.png"" width=""306"" height=""306"" style=""position: fixed;left:64%;top:30%"">","null","","","","","","","","","","","","","","","","","","","","","","","","","","","","","","","","","","",""
"","","","","","html-keyboard-response","79","179681","0.0-6.0-2.20","A26UIS59SY4NM6","2022-05-19T01:48:22.431Z","rhyme-task_switching-phon_sim-same_different","","2426.7999999970198","rhyme","<div style=""border: 3px solid #000000; position: fixed;left:14%;top:30%""><img src=""visual/claw.png"" width=""300""></div><div style=""border: 3px solid #000000; position: fixed;left:64%;top:30%""><img src=""visual/beer.png"" width=""300""></div>","arrowdown","","true","experiment","visual/claw.png","visual/beer.png","ArrowDown","NR","","","","","","","","","","","","","","","","","","","","","","","","","","","",""
"","","","","","html-keyboard-response","80","180685","0.0-6.0-0.21","A26UIS59SY4NM6","2022-05-19T01:48:22.431Z","rhyme-task_switching-phon_sim-same_different","","null","rhyme","<div style=""font-size:60px;"">+</div>","null","1000","","","","","","","","","","","","","","","","","","","","","","","","","","","","","","","","","",""
"","","","","","html-keyboard-response","81","181199","0.0-6.0-1.21","A26UIS59SY4NM6","2022-05-19T01:48:22.431Z","rhyme-task_switching-phon_sim-same_different","","null","rhyme","<img src=""square.png"" width=""306"" height=""306"" style=""position: fixed;left:14%;top:30%""><img src=""square.png"" width=""306"" height=""306"" style=""position: fixed;left:64%;top:30%"">","null","","","","","","","","","","","","","","","","","","","","","","","","","","","","","","","","","","",""
"","","","","","html-keyboard-response","82","182638","0.0-6.0-2.21","A26UIS59SY4NM6","2022-05-19T01:48:22.431Z","rhyme-task_switching-phon_sim-same_different","","1437.800000000745","rhyme","<div style=""border: 3px solid #000000; position: fixed;left:14%;top:30%""><img src=""visual/brain.png"" width=""300""></div><div style=""border: 3px solid #000000; position: fixed;left:64%;top:30%""><img src=""visual/clock.png"" width=""300""></div>","arrowdown","","true","experiment","visual/brain.png","visual/clock.png","ArrowDown","NR","","","","","","","","","","","","","","","","","","","","","","","","","","","",""
"","","","","","html-keyboard-response","83","183143","0.0-6.0-0.22","A26UIS59SY4NM6","2022-05-19T01:48:22.431Z","rhyme-task_switching-phon_sim-same_different","","null","rhyme","<div style=""font-size:60px;"">+</div>","null","500","","","","","","","","","","","","","","","","","","","","","","","","","","","","","","","","","",""
"","","","","","html-keyboard-response","84","183656","0.0-6.0-1.22","A26UIS59SY4NM6","2022-05-19T01:48:22.431Z","rhyme-task_switching-phon_sim-same_different","","null","rhyme","<img src=""square.png"" width=""306"" height=""306"" style=""position: fixed;left:14%;top:30%""><img src=""square.png"" width=""306"" height=""306"" style=""position: fixed;left:64%;top:30%"">","null","","","","","","","","","","","","","","","","","","","","","","","","","","","","","","","","","","",""
"","","","","","html-keyboard-response","85","184927","0.0-6.0-2.22","A26UIS59SY4NM6","2022-05-19T01:48:22.431Z","rhyme-task_switching-phon_sim-same_different","","1269.5999999977648","rhyme","<div style=""border: 3px solid #000000; position: fixed;left:14%;top:30%""><img src=""visual/jar.png"" width=""300""></div><div style=""border: 3px solid #000000; position: fixed;left:64%;top:30%""><img src=""visual/whale.png"" width=""300""></div>","arrowdown","","true","experiment","visual/jar.png","visual/whale.png","ArrowDown","NR","","","","","","","","","","","","","","","","","","","","","","","","","","","",""
"","","","","","html-keyboard-response","86","185429","0.0-6.0-0.23","A26UIS59SY4NM6","2022-05-19T01:48:22.431Z","rhyme-task_switching-phon_sim-same_different","","null","rhyme","<div style=""font-size:60px;"">+</div>","null","500","","","","","","","","","","","","","","","","","","","","","","","","","","","","","","","","","",""
"","","","","","html-keyboard-response","87","185941","0.0-6.0-1.23","A26UIS59SY4NM6","2022-05-19T01:48:22.431Z","rhyme-task_switching-phon_sim-same_different","","null","rhyme","<img src=""square.png"" width=""306"" height=""306"" style=""position: fixed;left:14%;top:30%""><img src=""square.png"" width=""306"" height=""306"" style=""position: fixed;left:64%;top:30%"">","null","","","","","","","","","","","","","","","","","","","","","","","","","","","","","","","","","","",""
"","","","","","html-keyboard-response","88","187359","0.0-6.0-2.23","A26UIS59SY4NM6","2022-05-19T01:48:22.431Z","rhyme-task_switching-phon_sim-same_different","","1416.4000000022352","rhyme","<div style=""border: 3px solid #000000; position: fixed;left:14%;top:30%""><img src=""visual/socks.png"" width=""300""></div><div style=""border: 3px solid #000000; position: fixed;left:64%;top:30%""><img src=""visual/fox.png"" width=""300""></div>","arrowdown","","false","experiment","visual/socks.png","visual/fox.png","ArrowUp","non-ortho","","","","","","","","","","","","","","","","","","","","","","","","","","","",""
"","","","","","html-keyboard-response","89","188114","0.0-6.0-0.24","A26UIS59SY4NM6","2022-05-19T01:48:22.431Z","rhyme-task_switching-phon_sim-same_different","","null","rhyme","<div style=""font-size:60px;"">+</div>","null","750","","","","","","","","","","","","","","","","","","","","","","","","","","","","","","","","","",""
"","","","","","html-keyboard-response","90","188628","0.0-6.0-1.24","A26UIS59SY4NM6","2022-05-19T01:48:22.431Z","rhyme-task_switching-phon_sim-same_different","","null","rhyme","<img src=""square.png"" width=""306"" height=""306"" style=""position: fixed;left:14%;top:30%""><img src=""square.png"" width=""306"" height=""306"" style=""position: fixed;left:64%;top:30%"">","null","","","","","","","","","","","","","","","","","","","","","","","","","","","","","","","","","","",""
"","","","","","html-keyboard-response","91","190919","0.0-6.0-2.24","A26UIS59SY4NM6","2022-05-19T01:48:22.431Z","rhyme-task_switching-phon_sim-same_different","","2287.7000000029802","rhyme","<div style=""border: 3px solid #000000; position: fixed;left:14%;top:30%""><img src=""visual/dart.png"" width=""300""></div><div style=""border: 3px solid #000000; position: fixed;left:64%;top:30%""><img src=""visual/tie.png"" width=""300""></div>","arrowdown","","true","experiment","visual/dart.png","visual/tie.png","ArrowDown","NR","","","","","","","","","","","","","","","","","","","","","","","","","","","",""
"","","","","","html-keyboard-response","92","191425","0.0-6.0-0.25","A26UIS59SY4NM6","2022-05-19T01:48:22.431Z","rhyme-task_switching-phon_sim-same_different","","null","rhyme","<div style=""font-size:60px;"">+</div>","null","500","","","","","","","","","","","","","","","","","","","","","","","","","","","","","","","","","",""
"","","","","","html-keyboard-response","93","191936","0.0-6.0-1.25","A26UIS59SY4NM6","2022-05-19T01:48:22.431Z","rhyme-task_switching-phon_sim-same_different","","null","rhyme","<img src=""square.png"" width=""306"" height=""306"" style=""position: fixed;left:14%;top:30%""><img src=""square.png"" width=""306"" height=""306"" style=""position: fixed;left:64%;top:30%"">","null","","","","","","","","","","","","","","","","","","","","","","","","","","","","","","","","","","",""
"","","","","","html-keyboard-response","94","194257","0.0-6.0-2.25","A26UIS59SY4NM6","2022-05-19T01:48:22.431Z","rhyme-task_switching-phon_sim-same_different","","2318.39999999851","rhyme","<div style=""border: 3px solid #000000; position: fixed;left:14%;top:30%""><img src=""visual/rake.png"" width=""300""></div><div style=""border: 3px solid #000000; position: fixed;left:64%;top:30%""><img src=""visual/park.png"" width=""300""></div>","arrowdown","","true","experiment","visual/rake.png","visual/park.png","ArrowDown","NR","","","","","","","","","","","","","","","","","","","","","","","","","","","",""
"","","","","","html-keyboard-response","95","194765","0.0-6.0-0.26","A26UIS59SY4NM6","2022-05-19T01:48:22.431Z","rhyme-task_switching-phon_sim-same_different","","null","rhyme","<div style=""font-size:60px;"">+</div>","null","500","","","","","","","","","","","","","","","","","","","","","","","","","","","","","","","","","",""
"","","","","","html-keyboard-response","96","195275","0.0-6.0-1.26","A26UIS59SY4NM6","2022-05-19T01:48:22.431Z","rhyme-task_switching-phon_sim-same_different","","null","rhyme","<img src=""square.png"" width=""306"" height=""306"" style=""position: fixed;left:14%;top:30%""><img src=""square.png"" width=""306"" height=""306"" style=""position: fixed;left:64%;top:30%"">","null","","","","","","","","","","","","","","","","","","","","","","","","","","","","","","","","","","",""
"","","","","","html-keyboard-response","97","197174","0.0-6.0-2.26","A26UIS59SY4NM6","2022-05-19T01:48:22.431Z","rhyme-task_switching-phon_sim-same_different","","1896.5","rhyme","<div style=""border: 3px solid #000000; position: fixed;left:14%;top:30%""><img src=""visual/spoon.png"" width=""300""></div><div style=""border: 3px solid #000000; position: fixed;left:64%;top:30%""><img src=""visual/moon.png"" width=""300""></div>","arrowup","","true","experiment","visual/spoon.png","visual/moon.png","ArrowUp","ortho","","","","","","","","","","","","","","","","","","","","","","","","","","","",""
"","","","","","html-keyboard-response","98","197439","0.0-6.0-0.27","A26UIS59SY4NM6","2022-05-19T01:48:22.431Z","rhyme-task_switching-phon_sim-same_different","","null","rhyme","<div style=""font-size:60px;"">+</div>","null","250","","","","","","","","","","","","","","","","","","","","","","","","","","","","","","","","","",""
"","","","","","html-keyboard-response","99","197952","0.0-6.0-1.27","A26UIS59SY4NM6","2022-05-19T01:48:22.431Z","rhyme-task_switching-phon_sim-same_different","","null","rhyme","<img src=""square.png"" width=""306"" height=""306"" style=""position: fixed;left:14%;top:30%""><img src=""square.png"" width=""306"" height=""306"" style=""position: fixed;left:64%;top:30%"">","null","","","","","","","","","","","","","","","","","","","","","","","","","","","","","","","","","","",""
"","","","","","html-keyboard-response","100","199823","0.0-6.0-2.27","A26UIS59SY4NM6","2022-05-19T01:48:22.431Z","rhyme-task_switching-phon_sim-same_different","","1868.4000000022352","rhyme","<div style=""border: 3px solid #000000; position: fixed;left:14%;top:30%""><img src=""visual/pear.png"" width=""300""></div><div style=""border: 3px solid #000000; position: fixed;left:64%;top:30%""><img src=""visual/rope.png"" width=""300""></div>","arrowdown","","true","experiment","visual/pear.png","visual/rope.png","ArrowDown","NR","","","","","","","","","","","","","","","","","","","","","","","","","","","",""
"","","","","","html-keyboard-response","101","200334","0.0-6.0-0.28","A26UIS59SY4NM6","2022-05-19T01:48:22.431Z","rhyme-task_switching-phon_sim-same_different","","null","rhyme","<div style=""font-size:60px;"">+</div>","null","500","","","","","","","","","","","","","","","","","","","","","","","","","","","","","","","","","",""
"","","","","","html-keyboard-response","102","200847","0.0-6.0-1.28","A26UIS59SY4NM6","2022-05-19T01:48:22.431Z","rhyme-task_switching-phon_sim-same_different","","null","rhyme","<img src=""square.png"" width=""306"" height=""306"" style=""position: fixed;left:14%;top:30%""><img src=""square.png"" width=""306"" height=""306"" style=""position: fixed;left:64%;top:30%"">","null","","","","","","","","","","","","","","","","","","","","","","","","","","","","","","","","","","",""
"","","","","","html-keyboard-response","103","202046","0.0-6.0-2.28","A26UIS59SY4NM6","2022-05-19T01:48:22.431Z","rhyme-task_switching-phon_sim-same_different","","1196.199999999255","rhyme","<div style=""border: 3px solid #000000; position: fixed;left:14%;top:30%""><img src=""visual/cat.png"" width=""300""></div><div style=""border: 3px solid #000000; position: fixed;left:64%;top:30%""><img src=""visual/hat.png"" width=""300""></div>","arrowup","","true","experiment","visual/cat.png","visual/hat.png","ArrowUp","ortho","","","","","","","","","","","","","","","","","","","","","","","","","","","",""
"","","","","","html-keyboard-response","104","202806","0.0-6.0-0.29","A26UIS59SY4NM6","2022-05-19T01:48:22.431Z","rhyme-task_switching-phon_sim-same_different","","null","rhyme","<div style=""font-size:60px;"">+</div>","null","750","","","","","","","","","","","","","","","","","","","","","","","","","","","","","","","","","",""
"","","","","","html-keyboard-response","105","203319","0.0-6.0-1.29","A26UIS59SY4NM6","2022-05-19T01:48:22.431Z","rhyme-task_switching-phon_sim-same_different","","null","rhyme","<img src=""square.png"" width=""306"" height=""306"" style=""position: fixed;left:14%;top:30%""><img src=""square.png"" width=""306"" height=""306"" style=""position: fixed;left:64%;top:30%"">","null","","","","","","","","","","","","","","","","","","","","","","","","","","","","","","","","","","",""
"","","","","","html-keyboard-response","106","205544","0.0-6.0-2.29","A26UIS59SY4NM6","2022-05-19T01:48:22.431Z","rhyme-task_switching-phon_sim-same_different","","2222.10000000149","rhyme","<div style=""border: 3px solid #000000; position: fixed;left:14%;top:30%""><img src=""visual/cab.png"" width=""300""></div><div style=""border: 3px solid #000000; position: fixed;left:64%;top:30%""><img src=""visual/crab.png"" width=""300""></div>","arrowdown","","false","experiment","visual/cab.png","visual/crab.png","ArrowUp","ortho","","","","","","","","","","","","","","","","","","","","","","","","","","","",""
"","","","","","html-keyboard-response","107","206301","0.0-6.0-0.30","A26UIS59SY4NM6","2022-05-19T01:48:22.431Z","rhyme-task_switching-phon_sim-same_different","","null","rhyme","<div style=""font-size:60px;"">+</div>","null","750","","","","","","","","","","","","","","","","","","","","","","","","","","","","","","","","","",""
"","","","","","html-keyboard-response","108","206818","0.0-6.0-1.30","A26UIS59SY4NM6","2022-05-19T01:48:22.431Z","rhyme-task_switching-phon_sim-same_different","","null","rhyme","<img src=""square.png"" width=""306"" height=""306"" style=""position: fixed;left:14%;top:30%""><img src=""square.png"" width=""306"" height=""306"" style=""position: fixed;left:64%;top:30%"">","null","","","","","","","","","","","","","","","","","","","","","","","","","","","","","","","","","","",""
"","","","","","html-keyboard-response","109","209230","0.0-6.0-2.30","A26UIS59SY4NM6","2022-05-19T01:48:22.431Z","rhyme-task_switching-phon_sim-same_different","","2409.099999997765","rhyme","<div style=""border: 3px solid #000000; position: fixed;left:14%;top:30%""><img src=""visual/fly.png"" width=""300""></div><div style=""border: 3px solid #000000; position: fixed;left:64%;top:30%""><img src=""visual/plane.png"" width=""300""></div>","arrowup","","false","experiment","visual/fly.png","visual/plane.png","ArrowDown","NR","","","","","","","","","","","","","","","","","","","","","","","","","","","",""
"","","","","","html-keyboard-response","110","210246","0.0-6.0-0.31","A26UIS59SY4NM6","2022-05-19T01:48:22.431Z","rhyme-task_switching-phon_sim-same_different","","null","rhyme","<div style=""font-size:60px;"">+</div>","null","1000","","","","","","","","","","","","","","","","","","","","","","","","","","","","","","","","","",""
"","","","","","html-keyboard-response","111","210761","0.0-6.0-1.31","A26UIS59SY4NM6","2022-05-19T01:48:22.431Z","rhyme-task_switching-phon_sim-same_different","","null","rhyme","<img src=""square.png"" width=""306"" height=""306"" style=""position: fixed;left:14%;top:30%""><img src=""square.png"" width=""306"" height=""306"" style=""position: fixed;left:64%;top:30%"">","null","","","","","","","","","","","","","","","","","","","","","","","","","","","","","","","","","","",""
"","","","","","html-keyboard-response","112","212695","0.0-6.0-2.31","A26UIS59SY4NM6","2022-05-19T01:48:22.431Z","rhyme-task_switching-phon_sim-same_different","","1932.699999999255","rhyme","<div style=""border: 3px solid #000000; position: fixed;left:14%;top:30%""><img src=""visual/bear.png"" width=""300""></div><div style=""border: 3px solid #000000; position: fixed;left:64%;top:30%""><img src=""visual/hair.png"" width=""300""></div>","arrowup","","true","experiment","visual/bear.png","visual/hair.png","ArrowUp","non-ortho","","","","","","","","","","","","","","","","","","","","","","","","","","","",""
"","","","","","html-keyboard-response","113","213201","0.0-6.0-0.32","A26UIS59SY4NM6","2022-05-19T01:48:22.431Z","rhyme-task_switching-phon_sim-same_different","","null","rhyme","<div style=""font-size:60px;"">+</div>","null","500","","","","","","","","","","","","","","","","","","","","","","","","","","","","","","","","","",""
"","","","","","html-keyboard-response","114","213713","0.0-6.0-1.32","A26UIS59SY4NM6","2022-05-19T01:48:22.431Z","rhyme-task_switching-phon_sim-same_different","","null","rhyme","<img src=""square.png"" width=""306"" height=""306"" style=""position: fixed;left:14%;top:30%""><img src=""square.png"" width=""306"" height=""306"" style=""position: fixed;left:64%;top:30%"">","null","","","","","","","","","","","","","","","","","","","","","","","","","","","","","","","","","","",""
"","","","","","html-keyboard-response","115","215480","0.0-6.0-2.32","A26UIS59SY4NM6","2022-05-19T01:48:22.431Z","rhyme-task_switching-phon_sim-same_different","","1765","rhyme","<div style=""border: 3px solid #000000; position: fixed;left:14%;top:30%""><img src=""visual/sock.png"" width=""300""></div><div style=""border: 3px solid #000000; position: fixed;left:64%;top:30%""><img src=""visual/clock.png"" width=""300""></div>","arrowup","","true","experiment","visual/sock.png","visual/clock.png","ArrowUp","ortho","","","","","","","","","","","","","","","","","","","","","","","","","","","",""
"","","","","","html-keyboard-response","116","216233","0.0-6.0-0.33","A26UIS59SY4NM6","2022-05-19T01:48:22.431Z","rhyme-task_switching-phon_sim-same_different","","null","rhyme","<div style=""font-size:60px;"">+</div>","null","750","","","","","","","","","","","","","","","","","","","","","","","","","","","","","","","","","",""
"","","","","","html-keyboard-response","117","216746","0.0-6.0-1.33","A26UIS59SY4NM6","2022-05-19T01:48:22.431Z","rhyme-task_switching-phon_sim-same_different","","null","rhyme","<img src=""square.png"" width=""306"" height=""306"" style=""position: fixed;left:14%;top:30%""><img src=""square.png"" width=""306"" height=""306"" style=""position: fixed;left:64%;top:30%"">","null","","","","","","","","","","","","","","","","","","","","","","","","","","","","","","","","","","",""
"","","","","","html-keyboard-response","118","218630","0.0-6.0-2.33","A26UIS59SY4NM6","2022-05-19T01:48:22.431Z","rhyme-task_switching-phon_sim-same_different","","1882.5","rhyme","<div style=""border: 3px solid #000000; position: fixed;left:14%;top:30%""><img src=""visual/plane.png"" width=""300""></div><div style=""border: 3px solid #000000; position: fixed;left:64%;top:30%""><img src=""visual/train.png"" width=""300""></div>","arrowup","","true","experiment","visual/plane.png","visual/train.png","ArrowUp","non-ortho","","","","","","","","","","","","","","","","","","","","","","","","","","","",""
"","","","","","html-keyboard-response","119","218888","0.0-6.0-0.34","A26UIS59SY4NM6","2022-05-19T01:48:22.431Z","rhyme-task_switching-phon_sim-same_different","","null","rhyme","<div style=""font-size:60px;"">+</div>","null","250","","","","","","","","","","","","","","","","","","","","","","","","","","","","","","","","","",""
"","","","","","html-keyboard-response","120","219401","0.0-6.0-1.34","A26UIS59SY4NM6","2022-05-19T01:48:22.431Z","rhyme-task_switching-phon_sim-same_different","","null","rhyme","<img src=""square.png"" width=""306"" height=""306"" style=""position: fixed;left:14%;top:30%""><img src=""square.png"" width=""306"" height=""306"" style=""position: fixed;left:64%;top:30%"">","null","","","","","","","","","","","","","","","","","","","","","","","","","","","","","","","","","","",""
"","","","","","html-keyboard-response","121","221134","0.0-6.0-2.34","A26UIS59SY4NM6","2022-05-19T01:48:22.431Z","rhyme-task_switching-phon_sim-same_different","","1730.8999999985099","rhyme","<div style=""border: 3px solid #000000; position: fixed;left:14%;top:30%""><img src=""visual/drawer.png"" width=""300""></div><div style=""border: 3px solid #000000; position: fixed;left:64%;top:30%""><img src=""visual/door.png"" width=""300""></div>","arrowup","","true","experiment","visual/drawer.png","visual/door.png","ArrowUp","non-ortho","","","","","","","","","","","","","","","","","","","","","","","","","","","",""
"","","","","","html-keyboard-response","122","221643","0.0-6.0-0.35","A26UIS59SY4NM6","2022-05-19T01:48:22.431Z","rhyme-task_switching-phon_sim-same_different","","null","rhyme","<div style=""font-size:60px;"">+</div>","null","500","","","","","","","","","","","","","","","","","","","","","","","","","","","","","","","","","",""
"","","","","","html-keyboard-response","123","222155","0.0-6.0-1.35","A26UIS59SY4NM6","2022-05-19T01:48:22.431Z","rhyme-task_switching-phon_sim-same_different","","null","rhyme","<img src=""square.png"" width=""306"" height=""306"" style=""position: fixed;left:14%;top:30%""><img src=""square.png"" width=""306"" height=""306"" style=""position: fixed;left:64%;top:30%"">","null","","","","","","","","","","","","","","","","","","","","","","","","","","","","","","","","","","",""
"","","","","","html-keyboard-response","124","224336","0.0-6.0-2.35","A26UIS59SY4NM6","2022-05-19T01:48:22.431Z","rhyme-task_switching-phon_sim-same_different","","2177.800000000745","rhyme","<div style=""border: 3px solid #000000; position: fixed;left:14%;top:30%""><img src=""visual/pope.png"" width=""300""></div><div style=""border: 3px solid #000000; position: fixed;left:64%;top:30%""><img src=""visual/soap.png"" width=""300""></div>","arrowup","","true","experiment","visual/pope.png","visual/soap.png","ArrowUp","non-ortho","","","","","","","","","","","","","","","","","","","","","","","","","","","",""
"","","","","","html-keyboard-response","125","224841","0.0-6.0-0.36","A26UIS59SY4NM6","2022-05-19T01:48:22.431Z","rhyme-task_switching-phon_sim-same_different","","null","rhyme","<div style=""font-size:60px;"">+</div>","null","500","","","","","","","","","","","","","","","","","","","","","","","","","","","","","","","","","",""
"","","","","","html-keyboard-response","126","225352","0.0-6.0-1.36","A26UIS59SY4NM6","2022-05-19T01:48:22.431Z","rhyme-task_switching-phon_sim-same_different","","null","rhyme","<img src=""square.png"" width=""306"" height=""306"" style=""position: fixed;left:14%;top:30%""><img src=""square.png"" width=""306"" height=""306"" style=""position: fixed;left:64%;top:30%"">","null","","","","","","","","","","","","","","","","","","","","","","","","","","","","","","","","","","",""
"","","","","","html-keyboard-response","127","227022","0.0-6.0-2.36","A26UIS59SY4NM6","2022-05-19T01:48:22.431Z","rhyme-task_switching-phon_sim-same_different","","1667.5","rhyme","<div style=""border: 3px solid #000000; position: fixed;left:14%;top:30%""><img src=""visual/king.png"" width=""300""></div><div style=""border: 3px solid #000000; position: fixed;left:64%;top:30%""><img src=""visual/cab.png"" width=""300""></div>","arrowdown","","true","experiment","visual/king.png","visual/cab.png","ArrowDown","NR","","","","","","","","","","","","","","","","","","","","","","","","","","","",""
"","","","","","html-keyboard-response","128","227781","0.0-6.0-0.37","A26UIS59SY4NM6","2022-05-19T01:48:22.431Z","rhyme-task_switching-phon_sim-same_different","","null","rhyme","<div style=""font-size:60px;"">+</div>","null","750","","","","","","","","","","","","","","","","","","","","","","","","","","","","","","","","","",""
"","","","","","html-keyboard-response","129","228295","0.0-6.0-1.37","A26UIS59SY4NM6","2022-05-19T01:48:22.431Z","rhyme-task_switching-phon_sim-same_different","","null","rhyme","<img src=""square.png"" width=""306"" height=""306"" style=""position: fixed;left:14%;top:30%""><img src=""square.png"" width=""306"" height=""306"" style=""position: fixed;left:64%;top:30%"">","null","","","","","","","","","","","","","","","","","","","","","","","","","","","","","","","","","","",""
"","","","","","html-keyboard-response","130","230353","0.0-6.0-2.37","A26UIS59SY4NM6","2022-05-19T01:48:22.431Z","rhyme-task_switching-phon_sim-same_different","","2054.199999999255","rhyme","<div style=""border: 3px solid #000000; position: fixed;left:14%;top:30%""><img src=""visual/key.png"" width=""300""></div><div style=""border: 3px solid #000000; position: fixed;left:64%;top:30%""><img src=""visual/snail.png"" width=""300""></div>","arrowdown","","true","experiment","visual/key.png","visual/snail.png","ArrowDown","NR","","","","","","","","","","","","","","","","","","","","","","","","","","","",""
"","","","","","html-keyboard-response","131","231115","0.0-6.0-0.38","A26UIS59SY4NM6","2022-05-19T01:48:22.431Z","rhyme-task_switching-phon_sim-same_different","","null","rhyme","<div style=""font-size:60px;"">+</div>","null","750","","","","","","","","","","","","","","","","","","","","","","","","","","","","","","","","","",""
"","","","","","html-keyboard-response","132","231631","0.0-6.0-1.38","A26UIS59SY4NM6","2022-05-19T01:48:22.431Z","rhyme-task_switching-phon_sim-same_different","","null","rhyme","<img src=""square.png"" width=""306"" height=""306"" style=""position: fixed;left:14%;top:30%""><img src=""square.png"" width=""306"" height=""306"" style=""position: fixed;left:64%;top:30%"">","null","","","","","","","","","","","","","","","","","","","","","","","","","","","","","","","","","","",""
"","","","","","html-keyboard-response","133","233406","0.0-6.0-2.38","A26UIS59SY4NM6","2022-05-19T01:48:22.431Z","rhyme-task_switching-phon_sim-same_different","","1774","rhyme","<div style=""border: 3px solid #000000; position: fixed;left:14%;top:30%""><img src=""visual/key.png"" width=""300""></div><div style=""border: 3px solid #000000; position: fixed;left:64%;top:30%""><img src=""visual/tree.png"" width=""300""></div>","arrowup","","true","experiment","visual/key.png","visual/tree.png","ArrowUp","non-ortho","","","","","","","","","","","","","","","","","","","","","","","","","","","",""
"","","","","","html-keyboard-response","134","233658","0.0-6.0-0.39","A26UIS59SY4NM6","2022-05-19T01:48:22.431Z","rhyme-task_switching-phon_sim-same_different","","null","rhyme","<div style=""font-size:60px;"">+</div>","null","250","","","","","","","","","","","","","","","","","","","","","","","","","","","","","","","","","",""
"","","","","","html-keyboard-response","135","234171","0.0-6.0-1.39","A26UIS59SY4NM6","2022-05-19T01:48:22.431Z","rhyme-task_switching-phon_sim-same_different","","null","rhyme","<img src=""square.png"" width=""306"" height=""306"" style=""position: fixed;left:14%;top:30%""><img src=""square.png"" width=""306"" height=""306"" style=""position: fixed;left:64%;top:30%"">","null","","","","","","","","","","","","","","","","","","","","","","","","","","","","","","","","","","",""
"","","","","","html-keyboard-response","136","236007","0.0-6.0-2.39","A26UIS59SY4NM6","2022-05-19T01:48:22.431Z","rhyme-task_switching-phon_sim-same_different","","1833.0999999977648","rhyme","<div style=""border: 3px solid #000000; position: fixed;left:14%;top:30%""><img src=""visual/train.png"" width=""300""></div><div style=""border: 3px solid #000000; position: fixed;left:64%;top:30%""><img src=""visual/crane.png"" width=""300""></div>","arrowup","","true","experiment","visual/train.png","visual/crane.png","ArrowUp","non-ortho","","","","","","","","","","","","","","","","","","","","","","","","","","","",""
"","","","","","html-keyboard-response","137","236516","0.0-6.0-0.40","A26UIS59SY4NM6","2022-05-19T01:48:22.431Z","rhyme-task_switching-phon_sim-same_different","","null","rhyme","<div style=""font-size:60px;"">+</div>","null","500","","","","","","","","","","","","","","","","","","","","","","","","","","","","","","","","","",""
"","","","","","html-keyboard-response","138","237030","0.0-6.0-1.40","A26UIS59SY4NM6","2022-05-19T01:48:22.431Z","rhyme-task_switching-phon_sim-same_different","","null","rhyme","<img src=""square.png"" width=""306"" height=""306"" style=""position: fixed;left:14%;top:30%""><img src=""square.png"" width=""306"" height=""306"" style=""position: fixed;left:64%;top:30%"">","null","","","","","","","","","","","","","","","","","","","","","","","","","","","","","","","","","","",""
"","","","","","html-keyboard-response","139","239630","0.0-6.0-2.40","A26UIS59SY4NM6","2022-05-19T01:48:22.431Z","rhyme-task_switching-phon_sim-same_different","","2598.599999997765","rhyme","<div style=""border: 3px solid #000000; position: fixed;left:14%;top:30%""><img src=""visual/bone.png"" width=""300""></div><div style=""border: 3px solid #000000; position: fixed;left:64%;top:30%""><img src=""visual/cone.png"" width=""300""></div>","arrowup","","true","experiment","visual/bone.png","visual/cone.png","ArrowUp","ortho","","","","","","","","","","","","","","","","","","","","","","","","","","","",""
"","","","","","html-keyboard-response","140","240644","0.0-6.0-0.41","A26UIS59SY4NM6","2022-05-19T01:48:22.431Z","rhyme-task_switching-phon_sim-same_different","","null","rhyme","<div style=""font-size:60px;"">+</div>","null","1000","","","","","","","","","","","","","","","","","","","","","","","","","","","","","","","","","",""
"","","","","","html-keyboard-response","141","241159","0.0-6.0-1.41","A26UIS59SY4NM6","2022-05-19T01:48:22.431Z","rhyme-task_switching-phon_sim-same_different","","null","rhyme","<img src=""square.png"" width=""306"" height=""306"" style=""position: fixed;left:14%;top:30%""><img src=""square.png"" width=""306"" height=""306"" style=""position: fixed;left:64%;top:30%"">","null","","","","","","","","","","","","","","","","","","","","","","","","","","","","","","","","","","",""
"","","","","","html-keyboard-response","142","243582","0.0-6.0-2.41","A26UIS59SY4NM6","2022-05-19T01:48:22.431Z","rhyme-task_switching-phon_sim-same_different","","2420.7999999970198","rhyme","<div style=""border: 3px solid #000000; position: fixed;left:14%;top:30%""><img src=""visual/screw.png"" width=""300""></div><div style=""border: 3px solid #000000; position: fixed;left:64%;top:30%""><img src=""visual/shoe.png"" width=""300""></div>","arrowup","","true","experiment","visual/screw.png","visual/shoe.png","ArrowUp","non-ortho","","","","","","","","","","","","","","","","","","","","","","","","","","","",""
"","","","","","html-keyboard-response","143","243843","0.0-6.0-0.42","A26UIS59SY4NM6","2022-05-19T01:48:22.431Z","rhyme-task_switching-phon_sim-same_different","","null","rhyme","<div style=""font-size:60px;"">+</div>","null","250","","","","","","","","","","","","","","","","","","","","","","","","","","","","","","","","","",""
"","","","","","html-keyboard-response","144","244357","0.0-6.0-1.42","A26UIS59SY4NM6","2022-05-19T01:48:22.431Z","rhyme-task_switching-phon_sim-same_different","","null","rhyme","<img src=""square.png"" width=""306"" height=""306"" style=""position: fixed;left:14%;top:30%""><img src=""square.png"" width=""306"" height=""306"" style=""position: fixed;left:64%;top:30%"">","null","","","","","","","","","","","","","","","","","","","","","","","","","","","","","","","","","","",""
"","","","","","html-keyboard-response","145","246247","0.0-6.0-2.42","A26UIS59SY4NM6","2022-05-19T01:48:22.431Z","rhyme-task_switching-phon_sim-same_different","","1887.4000000022352","rhyme","<div style=""border: 3px solid #000000; position: fixed;left:14%;top:30%""><img src=""visual/drum.png"" width=""300""></div><div style=""border: 3px solid #000000; position: fixed;left:64%;top:30%""><img src=""visual/thumb.png"" width=""300""></div>","arrowup","","true","experiment","visual/drum.png","visual/thumb.png","ArrowUp","non-ortho","","","","","","","","","","","","","","","","","","","","","","","","","","","",""
"","","","","","html-keyboard-response","146","246499","0.0-6.0-0.43","A26UIS59SY4NM6","2022-05-19T01:48:22.431Z","rhyme-task_switching-phon_sim-same_different","","null","rhyme","<div style=""font-size:60px;"">+</div>","null","250","","","","","","","","","","","","","","","","","","","","","","","","","","","","","","","","","",""
"","","","","","html-keyboard-response","147","247013","0.0-6.0-1.43","A26UIS59SY4NM6","2022-05-19T01:48:22.431Z","rhyme-task_switching-phon_sim-same_different","","null","rhyme","<img src=""square.png"" width=""306"" height=""306"" style=""position: fixed;left:14%;top:30%""><img src=""square.png"" width=""306"" height=""306"" style=""position: fixed;left:64%;top:30%"">","null","","","","","","","","","","","","","","","","","","","","","","","","","","","","","","","","","","",""
"","","","","","html-keyboard-response","148","248359","0.0-6.0-2.43","A26UIS59SY4NM6","2022-05-19T01:48:22.431Z","rhyme-task_switching-phon_sim-same_different","","1344.9000000022352","rhyme","<div style=""border: 3px solid #000000; position: fixed;left:14%;top:30%""><img src=""visual/tree.png"" width=""300""></div><div style=""border: 3px solid #000000; position: fixed;left:64%;top:30%""><img src=""visual/door.png"" width=""300""></div>","arrowdown","","true","experiment","visual/tree.png","visual/door.png","ArrowDown","NR","","","","","","","","","","","","","","","","","","","","","","","","","","","",""
"","","","","","html-keyboard-response","149","248876","0.0-6.0-0.44","A26UIS59SY4NM6","2022-05-19T01:48:22.431Z","rhyme-task_switching-phon_sim-same_different","","null","rhyme","<div style=""font-size:60px;"">+</div>","null","500","","","","","","","","","","","","","","","","","","","","","","","","","","","","","","","","","",""
"","","","","","html-keyboard-response","150","249388","0.0-6.0-1.44","A26UIS59SY4NM6","2022-05-19T01:48:22.431Z","rhyme-task_switching-phon_sim-same_different","","null","rhyme","<img src=""square.png"" width=""306"" height=""306"" style=""position: fixed;left:14%;top:30%""><img src=""square.png"" width=""306"" height=""306"" style=""position: fixed;left:64%;top:30%"">","null","","","","","","","","","","","","","","","","","","","","","","","","","","","","","","","","","","",""
"","","","","","html-keyboard-response","151","251127","0.0-6.0-2.44","A26UIS59SY4NM6","2022-05-19T01:48:22.431Z","rhyme-task_switching-phon_sim-same_different","","1737.800000000745","rhyme","<div style=""border: 3px solid #000000; position: fixed;left:14%;top:30%""><img src=""visual/shark.png"" width=""300""></div><div style=""border: 3px solid #000000; position: fixed;left:64%;top:30%""><img src=""visual/moon.png"" width=""300""></div>","arrowdown","","true","experiment","visual/shark.png","visual/moon.png","ArrowDown","NR","","","","","","","","","","","","","","","","","","","","","","","","","","","",""
"","","","","","html-keyboard-response","152","251639","0.0-6.0-0.45","A26UIS59SY4NM6","2022-05-19T01:48:22.431Z","rhyme-task_switching-phon_sim-same_different","","null","rhyme","<div style=""font-size:60px;"">+</div>","null","500","","","","","","","","","","","","","","","","","","","","","","","","","","","","","","","","","",""
"","","","","","html-keyboard-response","153","252146","0.0-6.0-1.45","A26UIS59SY4NM6","2022-05-19T01:48:22.431Z","rhyme-task_switching-phon_sim-same_different","","null","rhyme","<img src=""square.png"" width=""306"" height=""306"" style=""position: fixed;left:14%;top:30%""><img src=""square.png"" width=""306"" height=""306"" style=""position: fixed;left:64%;top:30%"">","null","","","","","","","","","","","","","","","","","","","","","","","","","","","","","","","","","","",""
"","","","","","html-keyboard-response","154","253849","0.0-6.0-2.45","A26UIS59SY4NM6","2022-05-19T01:48:22.431Z","rhyme-task_switching-phon_sim-same_different","","1699.699999999255","rhyme","<div style=""border: 3px solid #000000; position: fixed;left:14%;top:30%""><img src=""visual/bear.png"" width=""300""></div><div style=""border: 3px solid #000000; position: fixed;left:64%;top:30%""><img src=""visual/crane.png"" width=""300""></div>","arrowdown","","true","experiment","visual/bear.png","visual/crane.png","ArrowDown","NR","","","","","","","","","","","","","","","","","","","","","","","","","","","",""
"","","","","","html-keyboard-response","155","254109","0.0-6.0-0.46","A26UIS59SY4NM6","2022-05-19T01:48:22.431Z","rhyme-task_switching-phon_sim-same_different","","null","rhyme","<div style=""font-size:60px;"">+</div>","null","250","","","","","","","","","","","","","","","","","","","","","","","","","","","","","","","","","",""
"","","","","","html-keyboard-response","156","254620","0.0-6.0-1.46","A26UIS59SY4NM6","2022-05-19T01:48:22.431Z","rhyme-task_switching-phon_sim-same_different","","null","rhyme","<img src=""square.png"" width=""306"" height=""306"" style=""position: fixed;left:14%;top:30%""><img src=""square.png"" width=""306"" height=""306"" style=""position: fixed;left:64%;top:30%"">","null","","","","","","","","","","","","","","","","","","","","","","","","","","","","","","","","","","",""
"","","","","","html-keyboard-response","157","256095","0.0-6.0-2.46","A26UIS59SY4NM6","2022-05-19T01:48:22.431Z","rhyme-task_switching-phon_sim-same_different","","1472.5","rhyme","<div style=""border: 3px solid #000000; position: fixed;left:14%;top:30%""><img src=""visual/soap.png"" width=""300""></div><div style=""border: 3px solid #000000; position: fixed;left:64%;top:30%""><img src=""visual/rope.png"" width=""300""></div>","arrowup","","true","experiment","visual/soap.png","visual/rope.png","ArrowUp","non-ortho","","","","","","","","","","","","","","","","","","","","","","","","","","","",""
"","","","","","html-keyboard-response","158","256857","0.0-6.0-0.47","A26UIS59SY4NM6","2022-05-19T01:48:22.431Z","rhyme-task_switching-phon_sim-same_different","","null","rhyme","<div style=""font-size:60px;"">+</div>","null","750","","","","","","","","","","","","","","","","","","","","","","","","","","","","","","","","","",""
"","","","","","html-keyboard-response","159","257370","0.0-6.0-1.47","A26UIS59SY4NM6","2022-05-19T01:48:22.431Z","rhyme-task_switching-phon_sim-same_different","","null","rhyme","<img src=""square.png"" width=""306"" height=""306"" style=""position: fixed;left:14%;top:30%""><img src=""square.png"" width=""306"" height=""306"" style=""position: fixed;left:64%;top:30%"">","null","","","","","","","","","","","","","","","","","","","","","","","","","","","","","","","","","","",""
"","","","","","html-keyboard-response","160","259718","0.0-6.0-2.47","A26UIS59SY4NM6","2022-05-19T01:48:22.431Z","rhyme-task_switching-phon_sim-same_different","","2345.60000000149","rhyme","<div style=""border: 3px solid #000000; position: fixed;left:14%;top:30%""><img src=""visual/bin.png"" width=""300""></div><div style=""border: 3px solid #000000; position: fixed;left:64%;top:30%""><img src=""visual/chin.png"" width=""300""></div>","arrowdown","","false","experiment","visual/bin.png","visual/chin.png","ArrowUp","ortho","","","","","","","","","","","","","","","","","","","","","","","","","","","",""
"","","","","","html-keyboard-response","161","260471","0.0-6.0-0.48","A26UIS59SY4NM6","2022-05-19T01:48:22.431Z","rhyme-task_switching-phon_sim-same_different","","null","rhyme","<div style=""font-size:60px;"">+</div>","null","750","","","","","","","","","","","","","","","","","","","","","","","","","","","","","","","","","",""
"","","","","","html-keyboard-response","162","260986","0.0-6.0-1.48","A26UIS59SY4NM6","2022-05-19T01:48:22.431Z","rhyme-task_switching-phon_sim-same_different","","null","rhyme","<img src=""square.png"" width=""306"" height=""306"" style=""position: fixed;left:14%;top:30%""><img src=""square.png"" width=""306"" height=""306"" style=""position: fixed;left:64%;top:30%"">","null","","","","","","","","","","","","","","","","","","","","","","","","","","","","","","","","","","",""
"","","","","","html-keyboard-response","163","262573","0.0-6.0-2.48","A26UIS59SY4NM6","2022-05-19T01:48:22.431Z","rhyme-task_switching-phon_sim-same_different","","1584.300000000745","rhyme","<div style=""border: 3px solid #000000; position: fixed;left:14%;top:30%""><img src=""visual/egg.png"" width=""300""></div><div style=""border: 3px solid #000000; position: fixed;left:64%;top:30%""><img src=""visual/ring.png"" width=""300""></div>","arrowdown","","true","experiment","visual/egg.png","visual/ring.png","ArrowDown","NR","","","","","","","","","","","","","","","","","","","","","","","","","","","",""
"","","","","","html-keyboard-response","164","263085","0.0-6.0-0.49","A26UIS59SY4NM6","2022-05-19T01:48:22.431Z","rhyme-task_switching-phon_sim-same_different","","null","rhyme","<div style=""font-size:60px;"">+</div>","null","500","","","","","","","","","","","","","","","","","","","","","","","","","","","","","","","","","",""
"","","","","","html-keyboard-response","165","263599","0.0-6.0-1.49","A26UIS59SY4NM6","2022-05-19T01:48:22.431Z","rhyme-task_switching-phon_sim-same_different","","null","rhyme","<img src=""square.png"" width=""306"" height=""306"" style=""position: fixed;left:14%;top:30%""><img src=""square.png"" width=""306"" height=""306"" style=""position: fixed;left:64%;top:30%"">","null","","","","","","","","","","","","","","","","","","","","","","","","","","","","","","","","","","",""
"","","","","","html-keyboard-response","166","265880","0.0-6.0-2.49","A26UIS59SY4NM6","2022-05-19T01:48:22.431Z","rhyme-task_switching-phon_sim-same_different","","2278.300000000745","rhyme","<div style=""border: 3px solid #000000; position: fixed;left:14%;top:30%""><img src=""visual/bed.png"" width=""300""></div><div style=""border: 3px solid #000000; position: fixed;left:64%;top:30%""><img src=""visual/bread.png"" width=""300""></div>","arrowup","","true","experiment","visual/bed.png","visual/bread.png","ArrowUp","non-ortho","","","","","","","","","","","","","","","","","","","","","","","","","","","",""
"","","","","","html-keyboard-response","167","266144","0.0-6.0-0.50","A26UIS59SY4NM6","2022-05-19T01:48:22.431Z","rhyme-task_switching-phon_sim-same_different","","null","rhyme","<div style=""font-size:60px;"">+</div>","null","250","","","","","","","","","","","","","","","","","","","","","","","","","","","","","","","","","",""
"","","","","","html-keyboard-response","168","266659","0.0-6.0-1.50","A26UIS59SY4NM6","2022-05-19T01:48:22.431Z","rhyme-task_switching-phon_sim-same_different","","null","rhyme","<img src=""square.png"" width=""306"" height=""306"" style=""position: fixed;left:14%;top:30%""><img src=""square.png"" width=""306"" height=""306"" style=""position: fixed;left:64%;top:30%"">","null","","","","","","","","","","","","","","","","","","","","","","","","","","","","","","","","","","",""
"","","","","","html-keyboard-response","169","269007","0.0-6.0-2.50","A26UIS59SY4NM6","2022-05-19T01:48:22.431Z","rhyme-task_switching-phon_sim-same_different","","2345.199999999255","rhyme","<div style=""border: 3px solid #000000; position: fixed;left:14%;top:30%""><img src=""visual/shark.png"" width=""300""></div><div style=""border: 3px solid #000000; position: fixed;left:64%;top:30%""><img src=""visual/park.png"" width=""300""></div>","arrowup","","true","experiment","visual/shark.png","visual/park.png","ArrowUp","ortho","","","","","","","","","","","","","","","","","","","","","","","","","","","",""
"","","","","","html-keyboard-response","170","269774","0.0-6.0-0.51","A26UIS59SY4NM6","2022-05-19T01:48:22.431Z","rhyme-task_switching-phon_sim-same_different","","null","rhyme","<div style=""font-size:60px;"">+</div>","null","750","","","","","","","","","","","","","","","","","","","","","","","","","","","","","","","","","",""
"","","","","","html-keyboard-response","171","270283","0.0-6.0-1.51","A26UIS59SY4NM6","2022-05-19T01:48:22.431Z","rhyme-task_switching-phon_sim-same_different","","null","rhyme","<img src=""square.png"" width=""306"" height=""306"" style=""position: fixed;left:14%;top:30%""><img src=""square.png"" width=""306"" height=""306"" style=""position: fixed;left:64%;top:30%"">","null","","","","","","","","","","","","","","","","","","","","","","","","","","","","","","","","","","",""
"","","","","","html-keyboard-response","172","272279","0.0-6.0-2.51","A26UIS59SY4NM6","2022-05-19T01:48:22.431Z","rhyme-task_switching-phon_sim-same_different","","1993.300000000745","rhyme","<div style=""border: 3px solid #000000; position: fixed;left:14%;top:30%""><img src=""visual/plane.png"" width=""300""></div><div style=""border: 3px solid #000000; position: fixed;left:64%;top:30%""><img src=""visual/chain.png"" width=""300""></div>","arrowup","","true","experiment","visual/plane.png","visual/chain.png","ArrowUp","non-ortho","","","","","","","","","","","","","","","","","","","","","","","","","","","",""
"","","","","","html-keyboard-response","173","273289","0.0-6.0-0.52","A26UIS59SY4NM6","2022-05-19T01:48:22.431Z","rhyme-task_switching-phon_sim-same_different","","null","rhyme","<div style=""font-size:60px;"">+</div>","null","1000","","","","","","","","","","","","","","","","","","","","","","","","","","","","","","","","","",""
"","","","","","html-keyboard-response","174","273804","0.0-6.0-1.52","A26UIS59SY4NM6","2022-05-19T01:48:22.431Z","rhyme-task_switching-phon_sim-same_different","","null","rhyme","<img src=""square.png"" width=""306"" height=""306"" style=""position: fixed;left:14%;top:30%""><img src=""square.png"" width=""306"" height=""306"" style=""position: fixed;left:64%;top:30%"">","null","","","","","","","","","","","","","","","","","","","","","","","","","","","","","","","","","","",""
"","","","","","html-keyboard-response","175","275655","0.0-6.0-2.52","A26UIS59SY4NM6","2022-05-19T01:48:22.431Z","rhyme-task_switching-phon_sim-same_different","","1849.5","rhyme","<div style=""border: 3px solid #000000; position: fixed;left:14%;top:30%""><img src=""visual/flag.png"" width=""300""></div><div style=""border: 3px solid #000000; position: fixed;left:64%;top:30%""><img src=""visual/bag.png"" width=""300""></div>","arrowup","","true","experiment","visual/flag.png","visual/bag.png","ArrowUp","ortho","","","","","","","","","","","","","","","","","","","","","","","","","","","",""
"","","","","","html-keyboard-response","176","276164","0.0-6.0-0.53","A26UIS59SY4NM6","2022-05-19T01:48:22.431Z","rhyme-task_switching-phon_sim-same_different","","null","rhyme","<div style=""font-size:60px;"">+</div>","null","500","","","","","","","","","","","","","","","","","","","","","","","","","","","","","","","","","",""
"","","","","","html-keyboard-response","177","276665","0.0-6.0-1.53","A26UIS59SY4NM6","2022-05-19T01:48:22.431Z","rhyme-task_switching-phon_sim-same_different","","null","rhyme","<img src=""square.png"" width=""306"" height=""306"" style=""position: fixed;left:14%;top:30%""><img src=""square.png"" width=""306"" height=""306"" style=""position: fixed;left:64%;top:30%"">","null","","","","","","","","","","","","","","","","","","","","","","","","","","","","","","","","","","",""
"","","","","","html-keyboard-response","178","278080","0.0-6.0-2.53","A26UIS59SY4NM6","2022-05-19T01:48:22.431Z","rhyme-task_switching-phon_sim-same_different","","1412.9000000022352","rhyme","<div style=""border: 3px solid #000000; position: fixed;left:14%;top:30%""><img src=""visual/deer.png"" width=""300""></div><div style=""border: 3px solid #000000; position: fixed;left:64%;top:30%""><img src=""visual/beer.png"" width=""300""></div>","arrowup","","true","experiment","visual/deer.png","visual/beer.png","ArrowUp","ortho","","","","","","","","","","","","","","","","","","","","","","","","","","","",""
"","","","","","html-keyboard-response","179","279095","0.0-6.0-0.54","A26UIS59SY4NM6","2022-05-19T01:48:22.431Z","rhyme-task_switching-phon_sim-same_different","","null","rhyme","<div style=""font-size:60px;"">+</div>","null","1000","","","","","","","","","","","","","","","","","","","","","","","","","","","","","","","","","",""
"","","","","","html-keyboard-response","180","279607","0.0-6.0-1.54","A26UIS59SY4NM6","2022-05-19T01:48:22.431Z","rhyme-task_switching-phon_sim-same_different","","null","rhyme","<img src=""square.png"" width=""306"" height=""306"" style=""position: fixed;left:14%;top:30%""><img src=""square.png"" width=""306"" height=""306"" style=""position: fixed;left:64%;top:30%"">","null","","","","","","","","","","","","","","","","","","","","","","","","","","","","","","","","","","",""
"","","","","","html-keyboard-response","181","280975","0.0-6.0-2.54","A26UIS59SY4NM6","2022-05-19T01:48:22.431Z","rhyme-task_switching-phon_sim-same_different","","1365.800000000745","rhyme","<div style=""border: 3px solid #000000; position: fixed;left:14%;top:30%""><img src=""visual/eye.png"" width=""300""></div><div style=""border: 3px solid #000000; position: fixed;left:64%;top:30%""><img src=""visual/tie.png"" width=""300""></div>","arrowup","","true","experiment","visual/eye.png","visual/tie.png","ArrowUp","non-ortho","","","","","","","","","","","","","","","","","","","","","","","","","","","",""
"","","","","","html-keyboard-response","182","281739","0.0-6.0-0.55","A26UIS59SY4NM6","2022-05-19T01:48:22.431Z","rhyme-task_switching-phon_sim-same_different","","null","rhyme","<div style=""font-size:60px;"">+</div>","null","750","","","","","","","","","","","","","","","","","","","","","","","","","","","","","","","","","",""
"","","","","","html-keyboard-response","183","282240","0.0-6.0-1.55","A26UIS59SY4NM6","2022-05-19T01:48:22.431Z","rhyme-task_switching-phon_sim-same_different","","null","rhyme","<img src=""square.png"" width=""306"" height=""306"" style=""position: fixed;left:14%;top:30%""><img src=""square.png"" width=""306"" height=""306"" style=""position: fixed;left:64%;top:30%"">","null","","","","","","","","","","","","","","","","","","","","","","","","","","","","","","","","","","",""
"","","","","","html-keyboard-response","184","284958","0.0-6.0-2.55","A26UIS59SY4NM6","2022-05-19T01:48:22.431Z","rhyme-task_switching-phon_sim-same_different","","2715.39999999851","rhyme","<div style=""border: 3px solid #000000; position: fixed;left:14%;top:30%""><img src=""visual/cake.png"" width=""300""></div><div style=""border: 3px solid #000000; position: fixed;left:64%;top:30%""><img src=""visual/rake.png"" width=""300""></div>","arrowdown","","false","experiment","visual/cake.png","visual/rake.png","ArrowUp","ortho","","","","","","","","","","","","","","","","","","","","","","","","","","","",""
"","","","","","html-keyboard-response","185","285712","0.0-6.0-0.56","A26UIS59SY4NM6","2022-05-19T01:48:22.431Z","rhyme-task_switching-phon_sim-same_different","","null","rhyme","<div style=""font-size:60px;"">+</div>","null","750","","","","","","","","","","","","","","","","","","","","","","","","","","","","","","","","","",""
"","","","","","html-keyboard-response","186","286228","0.0-6.0-1.56","A26UIS59SY4NM6","2022-05-19T01:48:22.431Z","rhyme-task_switching-phon_sim-same_different","","null","rhyme","<img src=""square.png"" width=""306"" height=""306"" style=""position: fixed;left:14%;top:30%""><img src=""square.png"" width=""306"" height=""306"" style=""position: fixed;left:64%;top:30%"">","null","","","","","","","","","","","","","","","","","","","","","","","","","","","","","","","","","","",""
"","","","","","html-keyboard-response","187","287575","0.0-6.0-2.56","A26UIS59SY4NM6","2022-05-19T01:48:22.431Z","rhyme-task_switching-phon_sim-same_different","","1344.0999999977648","rhyme","<div style=""border: 3px solid #000000; position: fixed;left:14%;top:30%""><img src=""visual/chair.png"" width=""300""></div><div style=""border: 3px solid #000000; position: fixed;left:64%;top:30%""><img src=""visual/pear.png"" width=""300""></div>","arrowup","","true","experiment","visual/chair.png","visual/pear.png","ArrowUp","non-ortho","","","","","","","","","","","","","","","","","","","","","","","","","","","",""
"","","","","","html-keyboard-response","188","287837","0.0-6.0-0.57","A26UIS59SY4NM6","2022-05-19T01:48:22.431Z","rhyme-task_switching-phon_sim-same_different","","null","rhyme","<div style=""font-size:60px;"">+</div>","null","250","","","","","","","","","","","","","","","","","","","","","","","","","","","","","","","","","",""
"","","","","","html-keyboard-response","189","288348","0.0-6.0-1.57","A26UIS59SY4NM6","2022-05-19T01:48:22.431Z","rhyme-task_switching-phon_sim-same_different","","null","rhyme","<img src=""square.png"" width=""306"" height=""306"" style=""position: fixed;left:14%;top:30%""><img src=""square.png"" width=""306"" height=""306"" style=""position: fixed;left:64%;top:30%"">","null","","","","","","","","","","","","","","","","","","","","","","","","","","","","","","","","","","",""
"","","","","","html-keyboard-response","190","290064","0.0-6.0-2.57","A26UIS59SY4NM6","2022-05-19T01:48:22.431Z","rhyme-task_switching-phon_sim-same_different","","1713.2999999970198","rhyme","<div style=""border: 3px solid #000000; position: fixed;left:14%;top:30%""><img src=""visual/wave.png"" width=""300""></div><div style=""border: 3px solid #000000; position: fixed;left:64%;top:30%""><img src=""visual/cave.png"" width=""300""></div>","arrowup","","true","experiment","visual/wave.png","visual/cave.png","ArrowUp","ortho","","","","","","","","","","","","","","","","","","","","","","","","","","","",""
"","","","","","html-keyboard-response","191","291081","0.0-6.0-0.58","A26UIS59SY4NM6","2022-05-19T01:48:22.431Z","rhyme-task_switching-phon_sim-same_different","","null","rhyme","<div style=""font-size:60px;"">+</div>","null","1000","","","","","","","","","","","","","","","","","","","","","","","","","","","","","","","","","",""
"","","","","","html-keyboard-response","192","291591","0.0-6.0-1.58","A26UIS59SY4NM6","2022-05-19T01:48:22.431Z","rhyme-task_switching-phon_sim-same_different","","null","rhyme","<img src=""square.png"" width=""306"" height=""306"" style=""position: fixed;left:14%;top:30%""><img src=""square.png"" width=""306"" height=""306"" style=""position: fixed;left:64%;top:30%"">","null","","","","","","","","","","","","","","","","","","","","","","","","","","","","","","","","","","",""
"","","","","","html-keyboard-response","193","292886","0.0-6.0-2.58","A26UIS59SY4NM6","2022-05-19T01:48:22.431Z","rhyme-task_switching-phon_sim-same_different","","1291.699999999255","rhyme","<div style=""border: 3px solid #000000; position: fixed;left:14%;top:30%""><img src=""visual/snail.png"" width=""300""></div><div style=""border: 3px solid #000000; position: fixed;left:64%;top:30%""><img src=""visual/whale.png"" width=""300""></div>","arrowup","","true","experiment","visual/snail.png","visual/whale.png","ArrowUp","non-ortho","","","","","","","","","","","","","","","","","","","","","","","","","","","",""
"","","","","","html-keyboard-response","194","293892","0.0-6.0-0.59","A26UIS59SY4NM6","2022-05-19T01:48:22.431Z","rhyme-task_switching-phon_sim-same_different","","null","rhyme","<div style=""font-size:60px;"">+</div>","null","1000","","","","","","","","","","","","","","","","","","","","","","","","","","","","","","","","","",""
"","","","","","html-keyboard-response","195","294407","0.0-6.0-1.59","A26UIS59SY4NM6","2022-05-19T01:48:22.431Z","rhyme-task_switching-phon_sim-same_different","","null","rhyme","<img src=""square.png"" width=""306"" height=""306"" style=""position: fixed;left:14%;top:30%""><img src=""square.png"" width=""306"" height=""306"" style=""position: fixed;left:64%;top:30%"">","null","","","","","","","","","","","","","","","","","","","","","","","","","","","","","","","","","","",""
"","","","","","html-keyboard-response","196","296567","0.0-6.0-2.59","A26UIS59SY4NM6","2022-05-19T01:48:22.431Z","rhyme-task_switching-phon_sim-same_different","","2157.5","rhyme","<div style=""border: 3px solid #000000; position: fixed;left:14%;top:30%""><img src=""visual/bear.png"" width=""300""></div><div style=""border: 3px solid #000000; position: fixed;left:64%;top:30%""><img src=""visual/square_rhyme.png"" width=""300""></div>","arrowdown","","false","experiment","visual/bear.png","visual/square_rhyme.png","ArrowUp","non-ortho","","","","","","","","","","","","","","","","","","","","","","","","","","","",""
"","","","","","survey-multi-choice","197","301582","0.0-7.0","A26UIS59SY4NM6","2022-05-19T01:48:22.431Z","rhyme-task_switching-phon_sim-same_different","","5011.699999999255","rhyme","","{""Q0"":""Yes""}","","","","","","","","[0]","Yes","","","","","","","","","","","","","","","","","","","","","","","","","",""
"","","","","","survey-text","198","328366","0.0-8.0","A26UIS59SY4NM6","2022-05-19T01:48:22.431Z","rhyme-task_switching-phon_sim-same_different","","26780.199999999255","rhyme","","{""Q0"":""It got easier as I knew each picture better.""}","","","","","","","","","","It got easier as I knew each picture better.","","","","","","","","","","","","","","","","","","","","","","","","",""
"","","","","","instructions","199","330758","0.0-9.0","A26UIS59SY4NM6","2022-05-19T01:48:22.431Z","rhyme-task_switching-phon_sim-same_different","[{""page_index"":0,""viewing_time"":2391.10000000149}]","2391.400000002235","rhyme","","","","","","","","","","","","","","","","","","","","","","","","","","","","","","","","","","","","",""
"","","","","","instructions","200","356430","0.0-10.0","A26UIS59SY4NM6","2022-05-19T01:48:22.431Z","rhyme-task_switching-phon_sim-same_different","[{""page_index"":0,""viewing_time"":25671.29999999702}]","25671.699999999255","task_switching","","","","","","","","","","","","","","","","","","","","","","","","","","","","","","","","","","","","",""
"","","","","","instructions","201","362094","0.0-11.0","A26UIS59SY4NM6","2022-05-19T01:48:22.431Z","rhyme-task_switching-phon_sim-same_different","[{""page_index"":0,""viewing_time"":5662.39999999851}]","5662.699999999255","task_switching","","","","","","","","","","","","","","","","","","","","","","","","","","","","","","","","","","","","",""
"","","","","","survey-text","202","365463","0.0-12.0","A26UIS59SY4NM6","2022-05-19T01:48:22.431Z","rhyme-task_switching-phon_sim-same_different","","3366.199999999255","task_switching","40","{""subtraction_ans"":""37""}","","true","training","","","","","","","","subtraction","37","subtract","","","","","","","","","","","","","","","","","","","","","",""
"","","","","","html-keyboard-response","203","366474","0.0-13.0","A26UIS59SY4NM6","2022-05-19T01:48:22.431Z","rhyme-task_switching-phon_sim-same_different","","null","task_switching","<div style=""color:darkgreen; font-size:60px"">Well done!</div>","null","","","training","","","","","","","","subtraction","","","","","","","","","","","","","","","","","","","","","","","",""
"","","","","","survey-text","204","368334","0.0-14.0","A26UIS59SY4NM6","2022-05-19T01:48:22.431Z","rhyme-task_switching-phon_sim-same_different","","1857.8999999985099","task_switching","14","{""subtraction_ans"":""11""}","","true","training","","","","","","","","subtraction","11","subtract","","","","","","","","","","","","","","","","","","","","","",""
"","","","","","html-keyboard-response","205","369339","0.0-15.0","A26UIS59SY4NM6","2022-05-19T01:48:22.431Z","rhyme-task_switching-phon_sim-same_different","","null","task_switching","<div style=""color:darkgreen; font-size:60px"">Well done!</div>","null","","","training","","","","","","","","subtraction","","","","","","","","","","","","","","","","","","","","","","","",""
"","","","","","survey-text","206","371110","0.0-16.0","A26UIS59SY4NM6","2022-05-19T01:48:22.431Z","rhyme-task_switching-phon_sim-same_different","","1768","task_switching","46","{""subtraction_ans"":""43""}","","true","training","","","","","","","","subtraction","43","subtract","","","","","","","","","","","","","","","","","","","","","",""
"","","","","","html-keyboard-response","207","372119","0.0-17.0","A26UIS59SY4NM6","2022-05-19T01:48:22.431Z","rhyme-task_switching-phon_sim-same_different","","null","task_switching","<div style=""color:darkgreen; font-size:60px"">Well done!</div>","null","","","training","","","","","","","","subtraction","","","","","","","","","","","","","","","","","","","","","","","",""
"","","","","","survey-text","208","374134","0.0-18.0","A26UIS59SY4NM6","2022-05-19T01:48:22.431Z","rhyme-task_switching-phon_sim-same_different","","2010.300000000745","task_switching","73","{""subtraction_ans"":""70""}","","true","training","","","","","","","","subtraction","70","subtract","","","","","","","","","","","","","","","","","","","","","",""
"","","","","","html-keyboard-response","209","375147","0.0-19.0","A26UIS59SY4NM6","2022-05-19T01:48:22.431Z","rhyme-task_switching-phon_sim-same_different","","null","task_switching","<div style=""color:darkgreen; font-size:60px"">Well done!</div>","null","","","training","","","","","","","","subtraction","","","","","","","","","","","","","","","","","","","","","","","",""
"","","","","","survey-text","210","377214","0.0-20.0","A26UIS59SY4NM6","2022-05-19T01:48:22.431Z","rhyme-task_switching-phon_sim-same_different","","2064.800000000745","task_switching","82","{""subtraction_ans"":""79""}","","true","training","","","","","","","","subtraction","79","subtract","","","","","","","","","","","","","","","","","","","","","",""
"","","","","","html-keyboard-response","211","378222","0.0-21.0","A26UIS59SY4NM6","2022-05-19T01:48:22.431Z","rhyme-task_switching-phon_sim-same_different","","null","task_switching","<div style=""color:darkgreen; font-size:60px"">Well done!</div>","null","","","training","","","","","","","","subtraction","","","","","","","","","","","","","","","","","","","","","","","",""
"","","","","","survey-text","212","380254","0.0-22.0","A26UIS59SY4NM6","2022-05-19T01:48:22.431Z","rhyme-task_switching-phon_sim-same_different","","2029.8999999985099","task_switching","51","{""subtraction_ans"":""48""}","","true","training","","","","","","","","subtraction","48","subtract","","","","","","","","","","","","","","","","","","","","","",""
