"success","timeout","failed_images","failed_audio","failed_video","trial_type","trial_index","time_elapsed","internal_node_id","worker_id","start_time","experiment_order","view_history","rt","experiment","response","phase","stimulus","condition","answer","correct","operation","trial_no","symbol_cue","color_cue","question_order","talk_out_loud","strategy_free_ans","wait_time","image_1","image_2","cor_key","type","judgment_type","stim_1","stim_2","inverted","true_pos","true_neg","false_neg","false_pos","word_1","word_2","word_3","word_4","word_5","original_word_set","response_1","response_2","response_3","response_4","response_5"
"true","false","[]","[]","[]","preload","0","2474","0.0-0.0","A1F9KLZGHE9DTA","2022-05-18T15:20:39.862Z","task_switching-rhyme-same_different-phon_sim","","","","","","","","","","","","","","","","","","","","","","","","","","","","","","","","","","","","","","","",""
"","","","","","instructions","1","8033","0.0-1.0","A1F9KLZGHE9DTA","2022-05-18T15:20:39.862Z","task_switching-rhyme-same_different-phon_sim","[{""page_index"":0,""viewing_time"":5558.300000011921}]","5558.5","","","","","","","","","","","","","","","","","","","","","","","","","","","","","","","","","","","","","",""
"true","","","","","fullscreen","2","10327","0.0-2.0","A1F9KLZGHE9DTA","2022-05-18T15:20:39.862Z","task_switching-rhyme-same_different-phon_sim","","","","","","","","","","","","","","","","","","","","","","","","","","","","","","","","","","","","","","","",""
"","","","","","instructions","3","32293","0.0-3.0","A1F9KLZGHE9DTA","2022-05-18T15:20:39.862Z","task_switching-rhyme-same_different-phon_sim","[{""page_index"":0,""viewing_time"":21963.900000035763}]","21964.100000023842","task_switching","","","","","","","","","","","","","","","","","","","","","","","","","","","","","","","","","","","","",""
"","","","","","instructions","4","38911","0.0-4.0","A1F9KLZGHE9DTA","2022-05-18T15:20:39.862Z","task_switching-rhyme-same_different-phon_sim","[{""page_index"":0,""viewing_time"":6616.800000011921}]","6617","task_switching","","","","","","","","","","","","","","","","","","","","","","","","","","","","","","","","","","","","",""
"","","","","","survey-text","5","41347","0.0-5.0","A1F9KLZGHE9DTA","2022-05-18T15:20:39.862Z","task_switching-rhyme-same_different-phon_sim","","2431.5","task_switching","{""subtraction_ans"":""88""}","training","91","subtraction","88","true","subtract","","","","","","","","","","","","","","","","","","","","","","","","","","","","","",""
"","","","","","html-keyboard-response","6","42365","0.0-6.0","A1F9KLZGHE9DTA","2022-05-18T15:20:39.862Z","task_switching-rhyme-same_different-phon_sim","","null","task_switching","null","training","<div style=""color:darkgreen; font-size:60px"">Well done!</div>","subtraction","","","","","","","","","","","","","","","","","","","","","","","","","","","","","","","","",""
"","","","","","survey-text","7","46863","0.0-7.0","A1F9KLZGHE9DTA","2022-05-18T15:20:39.862Z","task_switching-rhyme-same_different-phon_sim","","4490.5","task_switching","{""subtraction_ans"":""64""}","training","67","subtraction","64","true","subtract","","","","","","","","","","","","","","","","","","","","","","","","","","","","","",""
"","","","","","html-keyboard-response","8","47878","0.0-8.0","A1F9KLZGHE9DTA","2022-05-18T15:20:39.862Z","task_switching-rhyme-same_different-phon_sim","","null","task_switching","null","training","<div style=""color:darkgreen; font-size:60px"">Well done!</div>","subtraction","","","","","","","","","","","","","","","","","","","","","","","","","","","","","","","","",""
"","","","","","survey-text","9","50457","0.0-9.0","A1F9KLZGHE9DTA","2022-05-18T15:20:39.862Z","task_switching-rhyme-same_different-phon_sim","","2570.199999988079","task_switching","{""subtraction_ans"":""79""}","training","82","subtraction","79","true","subtract","","","","","","","","","","","","","","","","","","","","","","","","","","","","","",""
"","","","","","html-keyboard-response","10","51475","0.0-10.0","A1F9KLZGHE9DTA","2022-05-18T15:20:39.862Z","task_switching-rhyme-same_different-phon_sim","","null","task_switching","null","training","<div style=""color:darkgreen; font-size:60px"">Well done!</div>","subtraction","","","","","","","","","","","","","","","","","","","","","","","","","","","","","","","","",""
"","","","","","survey-text","11","52927","0.0-11.0","A1F9KLZGHE9DTA","2022-05-18T15:20:39.862Z","task_switching-rhyme-same_different-phon_sim","","1446.800000011921","task_switching","{""subtraction_ans"":""27""}","training","30","subtraction","27","true","subtract","","","","","","","","","","","","","","","","","","","","","","","","","","","","","",""
"","","","","","html-keyboard-response","12","53936","0.0-12.0","A1F9KLZGHE9DTA","2022-05-18T15:20:39.862Z","task_switching-rhyme-same_different-phon_sim","","null","task_switching","null","training","<div style=""color:darkgreen; font-size:60px"">Well done!</div>","subtraction","","","","","","","","","","","","","","","","","","","","","","","","","","","","","","","","",""
"","","","","","survey-text","13","55457","0.0-13.0","A1F9KLZGHE9DTA","2022-05-18T15:20:39.862Z","task_switching-rhyme-same_different-phon_sim","","1518.9000000357628","task_switching","{""subtraction_ans"":""11""}","training","14","subtraction","11","true","subtract","","","","","","","","","","","","","","","","","","","","","","","","","","","","","",""
"","","","","","html-keyboard-response","14","56462","0.0-14.0","A1F9KLZGHE9DTA","2022-05-18T15:20:39.862Z","task_switching-rhyme-same_different-phon_sim","","null","task_switching","null","training","<div style=""color:darkgreen; font-size:60px"">Well done!</div>","subtraction","","","","","","","","","","","","","","","","","","","","","","","","","","","","","","","","",""
"","","","","","survey-text","15","59692","0.0-15.0","A1F9KLZGHE9DTA","2022-05-18T15:20:39.862Z","task_switching-rhyme-same_different-phon_sim","","3224.600000023842","task_switching","{""subtraction_ans"":""14""}","training","17","subtraction","14","true","subtract","","","","","","","","","","","","","","","","","","","","","","","","","","","","","",""
"","","","","","html-keyboard-response","16","60703","0.0-16.0","A1F9KLZGHE9DTA","2022-05-18T15:20:39.862Z","task_switching-rhyme-same_different-phon_sim","","null","task_switching","null","training","<div style=""color:darkgreen; font-size:60px"">Well done!</div>","subtraction","","","","","","","","","","","","","","","","","","","","","","","","","","","","","","","","",""
"","","","","","survey-text","17","61988","0.0-17.0","A1F9KLZGHE9DTA","2022-05-18T15:20:39.862Z","task_switching-rhyme-same_different-phon_sim","","1279.699999988079","task_switching","{""subtraction_ans"":""47""}","training","50","subtraction","47","true","subtract","","","","","","","","","","","","","","","","","","","","","","","","","","","","","",""
"","","","","","html-keyboard-response","18","62997","0.0-18.0","A1F9KLZGHE9DTA","2022-05-18T15:20:39.862Z","task_switching-rhyme-same_different-phon_sim","","null","task_switching","null","training","<div style=""color:darkgreen; font-size:60px"">Well done!</div>","subtraction","","","","","","","","","","","","","","","","","","","","","","","","","","","","","","","","",""
"","","","","","survey-text","19","64636","0.0-19.0","A1F9KLZGHE9DTA","2022-05-18T15:20:39.862Z","task_switching-rhyme-same_different-phon_sim","","1633.800000011921","task_switching","{""subtraction_ans"":""61""}","training","64","subtraction","61","true","subtract","","","","","","","","","","","","","","","","","","","","","","","","","","","","","",""
"","","","","","html-keyboard-response","20","65648","0.0-20.0","A1F9KLZGHE9DTA","2022-05-18T15:20:39.862Z","task_switching-rhyme-same_different-phon_sim","","null","task_switching","null","training","<div style=""color:darkgreen; font-size:60px"">Well done!</div>","subtraction","","","","","","","","","","","","","","","","","","","","","","","","","","","","","","","","",""
"","","","","","survey-text","21","67753","0.0-21.0","A1F9KLZGHE9DTA","2022-05-18T15:20:39.862Z","task_switching-rhyme-same_different-phon_sim","","2097.5","task_switching","{""subtraction_ans"":""50""}","training","53","subtraction","50","true","subtract","","","","","","","","","","","","","","","","","","","","","","","","","","","","","",""
"","","","","","html-keyboard-response","22","68761","0.0-22.0","A1F9KLZGHE9DTA","2022-05-18T15:20:39.862Z","task_switching-rhyme-same_different-phon_sim","","null","task_switching","null","training","<div style=""color:darkgreen; font-size:60px"">Well done!</div>","subtraction","","","","","","","","","","","","","","","","","","","","","","","","","","","","","","","","",""
"","","","","","survey-text","23","70167","0.0-23.0","A1F9KLZGHE9DTA","2022-05-18T15:20:39.862Z","task_switching-rhyme-same_different-phon_sim","","1401.199999988079","task_switching","{""subtraction_ans"":""25""}","training","28","subtraction","25","true","subtract","","","","","","","","","","","","","","","","","","","","","","","","","","","","","",""
"","","","","","html-keyboard-response","24","71182","0.0-24.0","A1F9KLZGHE9DTA","2022-05-18T15:20:39.862Z","task_switching-rhyme-same_different-phon_sim","","null","task_switching","null","training","<div style=""color:darkgreen; font-size:60px"">Well done!</div>","subtraction","","","","","","","","","","","","","","","","","","","","","","","","","","","","","","","","",""
"","","","","","instructions","25","72980","0.0-25.0","A1F9KLZGHE9DTA","2022-05-18T15:20:39.862Z","task_switching-rhyme-same_different-phon_sim","[{""page_index"":0,""viewing_time"":1796.800000011921}]","1797.199999988079","task_switching","","","","","","","","","","","","","","","","","","","","","","","","","","","","","","","","","","","","",""
"","","","","","survey-text","26","75090","0.0-26.0","A1F9KLZGHE9DTA","2022-05-18T15:20:39.862Z","task_switching-rhyme-same_different-phon_sim","","2107.399999976158","task_switching","{""subtraction_ans"":""77""}","experiment","80","subtraction","77","true","subtract","","","","","","","","","","","","","","","","","","","","","","","","","","","","","",""
"","","","","","survey-text","27","76722","0.0-27.0","A1F9KLZGHE9DTA","2022-05-18T15:20:39.862Z","task_switching-rhyme-same_different-phon_sim","","1628.0999999642372","task_switching","{""subtraction_ans"":""27""}","experiment","30","subtraction","27","true","subtract","","","","","","","","","","","","","","","","","","","","","","","","","","","","","",""
"","","","","","survey-text","28","78566","0.0-28.0","A1F9KLZGHE9DTA","2022-05-18T15:20:39.862Z","task_switching-rhyme-same_different-phon_sim","","1841.800000011921","task_switching","{""subtraction_ans"":""90""}","experiment","93","subtraction","90","true","subtract","","","","","","","","","","","","","","","","","","","","","","","","","","","","","",""
"","","","","","survey-text","29","80245","0.0-29.0","A1F9KLZGHE9DTA","2022-05-18T15:20:39.862Z","task_switching-rhyme-same_different-phon_sim","","1677.5","task_switching","{""subtraction_ans"":""55""}","experiment","58","subtraction","55","true","subtract","","","","","","","","","","","","","","","","","","","","","","","","","","","","","",""
"","","","","","survey-text","30","82183","0.0-30.0","A1F9KLZGHE9DTA","2022-05-18T15:20:39.862Z","task_switching-rhyme-same_different-phon_sim","","1935.5999999642372","task_switching","{""subtraction_ans"":""95""}","experiment","98","subtraction","95","true","subtract","","","","","","","","","","","","","","","","","","","","","","","","","","","","","",""
"","","","","","survey-text","31","83518","0.0-31.0","A1F9KLZGHE9DTA","2022-05-18T15:20:39.862Z","task_switching-rhyme-same_different-phon_sim","","1331.5","task_switching","{""subtraction_ans"":""33""}","experiment","36","subtraction","33","true","subtract","","","","","","","","","","","","","","","","","","","","","","","","","","","","","",""
"","","","","","survey-text","32","84745","0.0-32.0","A1F9KLZGHE9DTA","2022-05-18T15:20:39.862Z","task_switching-rhyme-same_different-phon_sim","","1225","task_switching","{""subtraction_ans"":""23""}","experiment","26","subtraction","23","true","subtract","","","","","","","","","","","","","","","","","","","","","","","","","","","","","",""
"","","","","","survey-text","33","86361","0.0-33.0","A1F9KLZGHE9DTA","2022-05-18T15:20:39.862Z","task_switching-rhyme-same_different-phon_sim","","1613.300000011921","task_switching","{""subtraction_ans"":""71""}","experiment","74","subtraction","71","true","subtract","","","","","","","","","","","","","","","","","","","","","","","","","","","","","",""
"","","","","","survey-text","34","87683","0.0-34.0","A1F9KLZGHE9DTA","2022-05-18T15:20:39.862Z","task_switching-rhyme-same_different-phon_sim","","1319.699999988079","task_switching","{""subtraction_ans"":""60""}","experiment","63","subtraction","60","true","subtract","","","","","","","","","","","","","","","","","","","","","","","","","","","","","",""
"","","","","","survey-text","35","89737","0.0-35.0","A1F9KLZGHE9DTA","2022-05-18T15:20:39.862Z","task_switching-rhyme-same_different-phon_sim","","2051.5","task_switching","{""subtraction_ans"":""87""}","experiment","90","subtraction","87","true","subtract","","","","","","","","","","","","","","","","","","","","","","","","","","","","","",""
"","","","","","survey-text","36","91167","0.0-36.0","A1F9KLZGHE9DTA","2022-05-18T15:20:39.862Z","task_switching-rhyme-same_different-phon_sim","","1427.5","task_switching","{""subtraction_ans"":""26""}","experiment","29","subtraction","26","true","subtract","","","","","","","","","","","","","","","","","","","","","","","","","","","","","",""
"","","","","","survey-text","37","92596","0.0-37.0","A1F9KLZGHE9DTA","2022-05-18T15:20:39.862Z","task_switching-rhyme-same_different-phon_sim","","1426.1000000238419","task_switching","{""subtraction_ans"":""63""}","experiment","66","subtraction","63","true","subtract","","","","","","","","","","","","","","","","","","","","","","","","","","","","","",""
"","","","","","survey-text","38","94033","0.0-38.0","A1F9KLZGHE9DTA","2022-05-18T15:20:39.862Z","task_switching-rhyme-same_different-phon_sim","","1435.199999988079","task_switching","{""subtraction_ans"":""40""}","experiment","43","subtraction","40","true","subtract","","","","","","","","","","","","","","","","","","","","","","","","","","","","","",""
"","","","","","survey-text","39","95681","0.0-39.0","A1F9KLZGHE9DTA","2022-05-18T15:20:39.862Z","task_switching-rhyme-same_different-phon_sim","","1645.6000000238419","task_switching","{""subtraction_ans"":""34""}","experiment","37","subtraction","34","true","subtract","","","","","","","","","","","","","","","","","","","","","","","","","","","","","",""
"","","","","","survey-text","40","97394","0.0-40.0","A1F9KLZGHE9DTA","2022-05-18T15:20:39.862Z","task_switching-rhyme-same_different-phon_sim","","1709.800000011921","task_switching","{""subtraction_ans"":""93""}","experiment","96","subtraction","93","true","subtract","","","","","","","","","","","","","","","","","","","","","","","","","","","","","",""
"","","","","","survey-text","41","99065","0.0-41.0","A1F9KLZGHE9DTA","2022-05-18T15:20:39.862Z","task_switching-rhyme-same_different-phon_sim","","1669.5999999642372","task_switching","{""subtraction_ans"":""79""}","experiment","82","subtraction","79","true","subtract","","","","","","","","","","","","","","","","","","","","","","","","","","","","","",""
"","","","","","survey-text","42","100619","0.0-42.0","A1F9KLZGHE9DTA","2022-05-18T15:20:39.862Z","task_switching-rhyme-same_different-phon_sim","","1551.800000011921","task_switching","{""subtraction_ans"":""50""}","experiment","53","subtraction","50","true","subtract","","","","","","","","","","","","","","","","","","","","","","","","","","","","","",""
"","","","","","survey-text","43","102103","0.0-43.0","A1F9KLZGHE9DTA","2022-05-18T15:20:39.862Z","task_switching-rhyme-same_different-phon_sim","","1481.4000000357628","task_switching","{""subtraction_ans"":""74""}","experiment","77","subtraction","74","true","subtract","","","","","","","","","","","","","","","","","","","","","","","","","","","","","",""
"","","","","","survey-text","44","104353","0.0-44.0","A1F9KLZGHE9DTA","2022-05-18T15:20:39.862Z","task_switching-rhyme-same_different-phon_sim","","2247.800000011921","task_switching","{""subtraction_ans"":""96""}","experiment","99","subtraction","96","true","subtract","","","","","","","","","","","","","","","","","","","","","","","","","","","","","",""
"","","","","","survey-text","45","105915","0.0-45.0","A1F9KLZGHE9DTA","2022-05-18T15:20:39.862Z","task_switching-rhyme-same_different-phon_sim","","1559.7999999523163","task_switching","{""subtraction_ans"":""53""}","experiment","56","subtraction","53","true","subtract","","","","","","","","","","","","","","","","","","","","","","","","","","","","","",""
"","","","","","survey-text","46","107166","0.0-46.0","A1F9KLZGHE9DTA","2022-05-18T15:20:39.862Z","task_switching-rhyme-same_different-phon_sim","","1248.1000000238419","task_switching","{""subtraction_ans"":""21""}","experiment","24","subtraction","21","true","subtract","","","","","","","","","","","","","","","","","","","","","","","","","","","","","",""
"","","","","","survey-text","47","108509","0.0-47.0","A1F9KLZGHE9DTA","2022-05-18T15:20:39.862Z","task_switching-rhyme-same_different-phon_sim","","1341.5","task_switching","{""subtraction_ans"":""10""}","experiment","13","subtraction","10","true","subtract","","","","","","","","","","","","","","","","","","","","","","","","","","","","","",""
"","","","","","survey-text","48","110517","0.0-48.0","A1F9KLZGHE9DTA","2022-05-18T15:20:39.862Z","task_switching-rhyme-same_different-phon_sim","","2005.5","task_switching","{""subtraction_ans"":""46""}","experiment","49","subtraction","46","true","subtract","","","","","","","","","","","","","","","","","","","","","","","","","","","","","",""
"","","","","","survey-text","49","111829","0.0-49.0","A1F9KLZGHE9DTA","2022-05-18T15:20:39.862Z","task_switching-rhyme-same_different-phon_sim","","1310","task_switching","{""subtraction_ans"":""73""}","experiment","76","subtraction","73","true","subtract","","","","","","","","","","","","","","","","","","","","","","","","","","","","","",""
"","","","","","survey-text","50","113603","0.0-50.0","A1F9KLZGHE9DTA","2022-05-18T15:20:39.862Z","task_switching-rhyme-same_different-phon_sim","","1771","task_switching","{""subtraction_ans"":""19""}","experiment","22","subtraction","19","true","subtract","","","","","","","","","","","","","","","","","","","","","","","","","","","","","",""
"","","","","","survey-text","51","115369","0.0-51.0","A1F9KLZGHE9DTA","2022-05-18T15:20:39.862Z","task_switching-rhyme-same_different-phon_sim","","1763.699999988079","task_switching","{""subtraction_ans"":""75""}","experiment","78","subtraction","75","true","subtract","","","","","","","","","","","","","","","","","","","","","","","","","","","","","",""
"","","","","","survey-text","52","117399","0.0-52.0","A1F9KLZGHE9DTA","2022-05-18T15:20:39.862Z","task_switching-rhyme-same_different-phon_sim","","2028.1000000238419","task_switching","{""subtraction_ans"":""24""}","experiment","27","subtraction","24","true","subtract","","","","","","","","","","","","","","","","","","","","","","","","","","","","","",""
"","","","","","survey-text","53","119485","0.0-53.0","A1F9KLZGHE9DTA","2022-05-18T15:20:39.862Z","task_switching-rhyme-same_different-phon_sim","","2084.100000023842","task_switching","{""subtraction_ans"":""84""}","experiment","87","subtraction","84","true","subtract","","","","","","","","","","","","","","","","","","","","","","","","","","","","","",""
"","","","","","survey-text","54","121415","0.0-54.0","A1F9KLZGHE9DTA","2022-05-18T15:20:39.862Z","task_switching-rhyme-same_different-phon_sim","","1928.1000000238419","task_switching","{""subtraction_ans"":""78""}","experiment","81","subtraction","78","true","subtract","","","","","","","","","","","","","","","","","","","","","","","","","","","","","",""
"","","","","","survey-text","55","122870","0.0-55.0","A1F9KLZGHE9DTA","2022-05-18T15:20:39.862Z","task_switching-rhyme-same_different-phon_sim","","1453.699999988079","task_switching","{""subtraction_ans"":""37""}","experiment","40","subtraction","37","true","subtract","","","","","","","","","","","","","","","","","","","","","","","","","","","","","",""
"","","","","","instructions","56","126923","0.0-56.0","A1F9KLZGHE9DTA","2022-05-18T15:20:39.862Z","task_switching-rhyme-same_different-phon_sim","[{""page_index"":0,""viewing_time"":4051.7000000476837}]","4052","task_switching","","","","","","","","","","","","","","","","","","","","","","","","","","","","","","","","","","","","",""
"","","","","","survey-text","57","129305","0.0-57.0","A1F9KLZGHE9DTA","2022-05-18T15:20:39.862Z","task_switching-rhyme-same_different-phon_sim","","2380.100000023842","task_switching","{""addition_ans"":""91""}","training","88","addition","91","true","add","","","","","","","","","","","","","","","","","","","","","","","","","","","","","",""
"","","","","","html-keyboard-response","58","130307","0.0-58.0","A1F9KLZGHE9DTA","2022-05-18T15:20:39.862Z","task_switching-rhyme-same_different-phon_sim","","null","task_switching","null","training","<div style=""color:darkgreen; font-size:60px"">Well done!</div>","addition","","","","","","","","","","","","","","","","","","","","","","","","","","","","","","","","",""
"","","","","","survey-text","59","131940","0.0-59.0","A1F9KLZGHE9DTA","2022-05-18T15:20:39.862Z","task_switching-rhyme-same_different-phon_sim","","1628.300000011921","task_switching","{""addition_ans"":""37""}","training","34","addition","37","true","add","","","","","","","","","","","","","","","","","","","","","","","","","","","","","",""
"","","","","","html-keyboard-response","60","132947","0.0-60.0","A1F9KLZGHE9DTA","2022-05-18T15:20:39.862Z","task_switching-rhyme-same_different-phon_sim","","null","task_switching","null","training","<div style=""color:darkgreen; font-size:60px"">Well done!</div>","addition","","","","","","","","","","","","","","","","","","","","","","","","","","","","","","","","",""
"","","","","","survey-text","61","134329","0.0-61.0","A1F9KLZGHE9DTA","2022-05-18T15:20:39.862Z","task_switching-rhyme-same_different-phon_sim","","1379.9000000357628","task_switching","{""addition_ans"":""46""}","training","43","addition","46","true","add","","","","","","","","","","","","","","","","","","","","","","","","","","","","","",""
"","","","","","html-keyboard-response","62","135349","0.0-62.0","A1F9KLZGHE9DTA","2022-05-18T15:20:39.862Z","task_switching-rhyme-same_different-phon_sim","","null","task_switching","null","training","<div style=""color:darkgreen; font-size:60px"">Well done!</div>","addition","","","","","","","","","","","","","","","","","","","","","","","","","","","","","","","","",""
"","","","","","survey-text","63","136961","0.0-63.0","A1F9KLZGHE9DTA","2022-05-18T15:20:39.862Z","task_switching-rhyme-same_different-phon_sim","","1607.7000000476837","task_switching","{""addition_ans"":""32""}","training","29","addition","32","true","add","","","","","","","","","","","","","","","","","","","","","","","","","","","","","",""
"","","","","","html-keyboard-response","64","137968","0.0-64.0","A1F9KLZGHE9DTA","2022-05-18T15:20:39.862Z","task_switching-rhyme-same_different-phon_sim","","null","task_switching","null","training","<div style=""color:darkgreen; font-size:60px"">Well done!</div>","addition","","","","","","","","","","","","","","","","","","","","","","","","","","","","","","","","",""
"","","","","","survey-text","65","139149","0.0-65.0","A1F9KLZGHE9DTA","2022-05-18T15:20:39.862Z","task_switching-rhyme-same_different-phon_sim","","1175.800000011921","task_switching","{""addition_ans"":""44""}","training","41","addition","44","true","add","","","","","","","","","","","","","","","","","","","","","","","","","","","","","",""
"","","","","","html-keyboard-response","66","140163","0.0-66.0","A1F9KLZGHE9DTA","2022-05-18T15:20:39.862Z","task_switching-rhyme-same_different-phon_sim","","null","task_switching","null","training","<div style=""color:darkgreen; font-size:60px"">Well done!</div>","addition","","","","","","","","","","","","","","","","","","","","","","","","","","","","","","","","",""
"","","","","","survey-text","67","141415","0.0-67.0","A1F9KLZGHE9DTA","2022-05-18T15:20:39.862Z","task_switching-rhyme-same_different-phon_sim","","1250.199999988079","task_switching","{""addition_ans"":""33""}","training","30","addition","33","true","add","","","","","","","","","","","","","","","","","","","","","","","","","","","","","",""
"","","","","","html-keyboard-response","68","142428","0.0-68.0","A1F9KLZGHE9DTA","2022-05-18T15:20:39.862Z","task_switching-rhyme-same_different-phon_sim","","null","task_switching","null","training","<div style=""color:darkgreen; font-size:60px"">Well done!</div>","addition","","","","","","","","","","","","","","","","","","","","","","","","","","","","","","","","",""
"","","","","","survey-text","69","143883","0.0-69.0","A1F9KLZGHE9DTA","2022-05-18T15:20:39.862Z","task_switching-rhyme-same_different-phon_sim","","1450.800000011921","task_switching","{""addition_ans"":""64""}","training","61","addition","64","true","add","","","","","","","","","","","","","","","","","","","","","","","","","","","","","",""
"","","","","","html-keyboard-response","70","144895","0.0-70.0","A1F9KLZGHE9DTA","2022-05-18T15:20:39.862Z","task_switching-rhyme-same_different-phon_sim","","null","task_switching","null","training","<div style=""color:darkgreen; font-size:60px"">Well done!</div>","addition","","","","","","","","","","","","","","","","","","","","","","","","","","","","","","","","",""
"","","","","","survey-text","71","146407","0.0-71.0","A1F9KLZGHE9DTA","2022-05-18T15:20:39.862Z","task_switching-rhyme-same_different-phon_sim","","1506","task_switching","{""addition_ans"":""14""}","training","11","addition","14","true","add","","","","","","","","","","","","","","","","","","","","","","","","","","","","","",""
"","","","","","html-keyboard-response","72","147423","0.0-72.0","A1F9KLZGHE9DTA","2022-05-18T15:20:39.862Z","task_switching-rhyme-same_different-phon_sim","","null","task_switching","null","training","<div style=""color:darkgreen; font-size:60px"">Well done!</div>","addition","","","","","","","","","","","","","","","","","","","","","","","","","","","","","","","","",""
"","","","","","survey-text","73","149009","0.0-73.0","A1F9KLZGHE9DTA","2022-05-18T15:20:39.862Z","task_switching-rhyme-same_different-phon_sim","","1581.300000011921","task_switching","{""addition_ans"":""35""}","training","32","addition","35","true","add","","","","","","","","","","","","","","","","","","","","","","","","","","","","","",""
"","","","","","html-keyboard-response","74","150023","0.0-74.0","A1F9KLZGHE9DTA","2022-05-18T15:20:39.862Z","task_switching-rhyme-same_different-phon_sim","","null","task_switching","null","training","<div style=""color:darkgreen; font-size:60px"">Well done!</div>","addition","","","","","","","","","","","","","","","","","","","","","","","","","","","","","","","","",""
"","","","","","survey-text","75","151413","0.0-75.0","A1F9KLZGHE9DTA","2022-05-18T15:20:39.862Z","task_switching-rhyme-same_different-phon_sim","","1385.2000000476837","task_switching","{""addition_ans"":""35""}","training","38","addition","35","false","add","","","","","","","","","","","","","","","","","","","","","","","","","","","","","",""
"","","","","","html-keyboard-response","76","156430","0.0-76.0","A1F9KLZGHE9DTA","2022-05-18T15:20:39.862Z","task_switching-rhyme-same_different-phon_sim","","null","task_switching","null","training","<div style=""color:darkred; font-size:40px"">Remember to <b>add</b> 3.<p> Correct answer: 41</p></div>","addition","","","","","","","","","","","","","","","","","","","","","","","","","","","","","","","","",""
"","","","","","instructions","77","158851","0.0-77.0","A1F9KLZGHE9DTA","2022-05-18T15:20:39.862Z","task_switching-rhyme-same_different-phon_sim","[{""page_index"":0,""viewing_time"":2419.600000023842}]","2419.900000035763","task_switching","","","","","","","","","","","","","","","","","","","","","","","","","","","","","","","","","","","","",""
"","","","","","survey-text","78","160641","0.0-78.0","A1F9KLZGHE9DTA","2022-05-18T15:20:39.862Z","task_switching-rhyme-same_different-phon_sim","","1788.199999988079","task_switching","{""addition_ans"":""88""}","experiment","85","addition","88","true","add","","","","","","","","","","","","","","","","","","","","","","","","","","","","","",""
"","","","","","survey-text","79","162663","0.0-79.0","A1F9KLZGHE9DTA","2022-05-18T15:20:39.862Z","task_switching-rhyme-same_different-phon_sim","","2019.699999988079","task_switching","{""addition_ans"":""32""}","experiment","29","addition","32","true","add","","","","","","","","","","","","","","","","","","","","","","","","","","","","","",""
"","","","","","survey-text","80","163859","0.0-80.0","A1F9KLZGHE9DTA","2022-05-18T15:20:39.862Z","task_switching-rhyme-same_different-phon_sim","","1193.4000000357628","task_switching","{""addition_ans"":""33""}","experiment","30","addition","33","true","add","","","","","","","","","","","","","","","","","","","","","","","","","","","","","",""
"","","","","","survey-text","81","165641","0.0-81.0","A1F9KLZGHE9DTA","2022-05-18T15:20:39.862Z","task_switching-rhyme-same_different-phon_sim","","1779.800000011921","task_switching","{""addition_ans"":""65""}","experiment","62","addition","65","true","add","","","","","","","","","","","","","","","","","","","","","","","","","","","","","",""
"","","","","","survey-text","82","167069","0.0-82.0","A1F9KLZGHE9DTA","2022-05-18T15:20:39.862Z","task_switching-rhyme-same_different-phon_sim","","1425.800000011921","task_switching","{""addition_ans"":""77""}","experiment","74","addition","77","true","add","","","","","","","","","","","","","","","","","","","","","","","","","","","","","",""
"","","","","","survey-text","83","168781","0.0-83.0","A1F9KLZGHE9DTA","2022-05-18T15:20:39.862Z","task_switching-rhyme-same_different-phon_sim","","1709.699999988079","task_switching","{""addition_ans"":""40""}","experiment","37","addition","40","true","add","","","","","","","","","","","","","","","","","","","","","","","","","","","","","",""
"","","","","","survey-text","84","170507","0.0-84.0","A1F9KLZGHE9DTA","2022-05-18T15:20:39.862Z","task_switching-rhyme-same_different-phon_sim","","1722.800000011921","task_switching","{""addition_ans"":""30""}","experiment","27","addition","30","true","add","","","","","","","","","","","","","","","","","","","","","","","","","","","","","",""
"","","","","","survey-text","85","172069","0.0-85.0","A1F9KLZGHE9DTA","2022-05-18T15:20:39.862Z","task_switching-rhyme-same_different-phon_sim","","1560.199999988079","task_switching","{""addition_ans"":""57""}","experiment","54","addition","57","true","add","","","","","","","","","","","","","","","","","","","","","","","","","","","","","",""
"","","","","","survey-text","86","173773","0.0-86.0","A1F9KLZGHE9DTA","2022-05-18T15:20:39.862Z","task_switching-rhyme-same_different-phon_sim","","1701.699999988079","task_switching","{""addition_ans"":""81""}","experiment","78","addition","81","true","add","","","","","","","","","","","","","","","","","","","","","","","","","","","","","",""
"","","","","","survey-text","87","175461","0.0-87.0","A1F9KLZGHE9DTA","2022-05-18T15:20:39.862Z","task_switching-rhyme-same_different-phon_sim","","1685.4000000357628","task_switching","{""addition_ans"":""72""}","experiment","69","addition","72","true","add","","","","","","","","","","","","","","","","","","","","","","","","","","","","","",""
"","","","","","survey-text","88","177405","0.0-88.0","A1F9KLZGHE9DTA","2022-05-18T15:20:39.862Z","task_switching-rhyme-same_different-phon_sim","","1941.5999999642372","task_switching","{""addition_ans"":""35""}","experiment","32","addition","35","true","add","","","","","","","","","","","","","","","","","","","","","","","","","","","","","",""
"","","","","","survey-text","89","178869","0.0-89.0","A1F9KLZGHE9DTA","2022-05-18T15:20:39.862Z","task_switching-rhyme-same_different-phon_sim","","1461","task_switching","{""addition_ans"":""21""}","experiment","18","addition","21","true","add","","","","","","","","","","","","","","","","","","","","","","","","","","","","","",""
"","","","","","survey-text","90","180688","0.0-90.0","A1F9KLZGHE9DTA","2022-05-18T15:20:39.862Z","task_switching-rhyme-same_different-phon_sim","","1815","task_switching","{""addition_ans"":""78""}","experiment","75","addition","78","true","add","","","","","","","","","","","","","","","","","","","","","","","","","","","","","",""
"","","","","","survey-text","91","182360","0.0-91.0","A1F9KLZGHE9DTA","2022-05-18T15:20:39.862Z","task_switching-rhyme-same_different-phon_sim","","1670","task_switching","{""addition_ans"":""68""}","experiment","65","addition","68","true","add","","","","","","","","","","","","","","","","","","","","","","","","","","","","","",""
"","","","","","survey-text","92","184453","0.0-92.0","A1F9KLZGHE9DTA","2022-05-18T15:20:39.862Z","task_switching-rhyme-same_different-phon_sim","","2090.699999988079","task_switching","{""addition_ans"":""66""}","experiment","63","addition","66","true","add","","","","","","","","","","","","","","","","","","","","","","","","","","","","","",""
"","","","","","survey-text","93","186501","0.0-93.0","A1F9KLZGHE9DTA","2022-05-18T15:20:39.862Z","task_switching-rhyme-same_different-phon_sim","","2045.699999988079","task_switching","{""addition_ans"":""49""}","experiment","46","addition","49","true","add","","","","","","","","","","","","","","","","","","","","","","","","","","","","","",""
"","","","","","survey-text","94","188320","0.0-94.0","A1F9KLZGHE9DTA","2022-05-18T15:20:39.862Z","task_switching-rhyme-same_different-phon_sim","","1816.300000011921","task_switching","{""addition_ans"":""13""}","experiment","10","addition","13","true","add","","","","","","","","","","","","","","","","","","","","","","","","","","","","","",""
"","","","","","survey-text","95","189758","0.0-95.0","A1F9KLZGHE9DTA","2022-05-18T15:20:39.862Z","task_switching-rhyme-same_different-phon_sim","","1436","task_switching","{""addition_ans"":""24""}","experiment","21","addition","24","true","add","","","","","","","","","","","","","","","","","","","","","","","","","","","","","",""
"","","","","","survey-text","96","191194","0.0-96.0","A1F9KLZGHE9DTA","2022-05-18T15:20:39.862Z","task_switching-rhyme-same_different-phon_sim","","1433.1000000238419","task_switching","{""addition_ans"":""17""}","experiment","14","addition","17","true","add","","","","","","","","","","","","","","","","","","","","","","","","","","","","","",""
"","","","","","survey-text","97","192726","0.0-97.0","A1F9KLZGHE9DTA","2022-05-18T15:20:39.862Z","task_switching-rhyme-same_different-phon_sim","","1529.5","task_switching","{""addition_ans"":""56""}","experiment","53","addition","56","true","add","","","","","","","","","","","","","","","","","","","","","","","","","","","","","",""
"","","","","","survey-text","98","194258","0.0-98.0","A1F9KLZGHE9DTA","2022-05-18T15:20:39.862Z","task_switching-rhyme-same_different-phon_sim","","1529.199999988079","task_switching","{""addition_ans"":""47""}","experiment","43","addition","47","false","add","","","","","","","","","","","","","","","","","","","","","","","","","","","","","",""
"","","","","","survey-text","99","196094","0.0-99.0","A1F9KLZGHE9DTA","2022-05-18T15:20:39.862Z","task_switching-rhyme-same_different-phon_sim","","1833.7999999523163","task_switching","{""addition_ans"":""86""}","experiment","83","addition","86","true","add","","","","","","","","","","","","","","","","","","","","","","","","","","","","","",""
"","","","","","survey-text","100","198062","0.0-100.0","A1F9KLZGHE9DTA","2022-05-18T15:20:39.862Z","task_switching-rhyme-same_different-phon_sim","","1965.5","task_switching","{""addition_ans"":""61""}","experiment","58","addition","61","true","add","","","","","","","","","","","","","","","","","","","","","","","","","","","","","",""
"","","","","","survey-text","101","199726","0.0-101.0","A1F9KLZGHE9DTA","2022-05-18T15:20:39.862Z","task_switching-rhyme-same_different-phon_sim","","1661.6000000238419","task_switching","{""addition_ans"":""26""}","experiment","23","addition","26","true","add","","","","","","","","","","","","","","","","","","","","","","","","","","","","","",""
"","","","","","survey-text","102","201382","0.0-102.0","A1F9KLZGHE9DTA","2022-05-18T15:20:39.862Z","task_switching-rhyme-same_different-phon_sim","","1654.199999988079","task_switching","{""addition_ans"":""19""}","experiment","16","addition","19","true","add","","","","","","","","","","","","","","","","","","","","","","","","","","","","","",""
"","","","","","survey-text","103","202726","0.0-103.0","A1F9KLZGHE9DTA","2022-05-18T15:20:39.862Z","task_switching-rhyme-same_different-phon_sim","","1342.0999999642372","task_switching","{""addition_ans"":""58""}","experiment","55","addition","58","true","add","","","","","","","","","","","","","","","","","","","","","","","","","","","","","",""
"","","","","","survey-text","104","204133","0.0-104.0","A1F9KLZGHE9DTA","2022-05-18T15:20:39.862Z","task_switching-rhyme-same_different-phon_sim","","1404.8999999761581","task_switching","{""addition_ans"":""64""}","experiment","61","addition","64","true","add","","","","","","","","","","","","","","","","","","","","","","","","","","","","","",""
"","","","","","survey-text","105","205570","0.0-105.0","A1F9KLZGHE9DTA","2022-05-18T15:20:39.862Z","task_switching-rhyme-same_different-phon_sim","","1435.3999999761581","task_switching","{""addition_ans"":""45""}","experiment","42","addition","45","true","add","","","","","","","","","","","","","","","","","","","","","","","","","","","","","",""
"","","","","","survey-text","106","207046","0.0-106.0","A1F9KLZGHE9DTA","2022-05-18T15:20:39.862Z","task_switching-rhyme-same_different-phon_sim","","1474.199999988079","task_switching","{""addition_ans"":""94""}","experiment","91","addition","94","true","add","","","","","","","","","","","","","","","","","","","","","","","","","","","","","",""
"","","","","","survey-text","107","208616","0.0-107.0","A1F9KLZGHE9DTA","2022-05-18T15:20:39.862Z","task_switching-rhyme-same_different-phon_sim","","1567.5","task_switching","{""addition_ans"":""37""}","experiment","34","addition","37","true","add","","","","","","","","","","","","","","","","","","","","","","","","","","","","","",""
"","","","","","instructions","108","224022","0.0-108.0","A1F9KLZGHE9DTA","2022-05-18T15:20:39.862Z","task_switching-rhyme-same_different-phon_sim","[{""page_index"":0,""viewing_time"":15404.800000011921}]","15405.100000023842","task_switching","","","","","","","","","","","","","","","","","","","","","","","","","","","","","","","","","","","","",""
"","","","","","survey-text","109","225781","0.0-109.0","A1F9KLZGHE9DTA","2022-05-18T15:20:39.862Z","task_switching-rhyme-same_different-phon_sim","","1756.7000000476837","task_switching","{""uncued_switch_ans"":""74""}","training","71","uncued_switch","74","true","add","0","","","","","","","","","","","","","","","","","","","","","","","","","","","","",""
"","","","","","html-keyboard-response","110","226805","0.0-110.0","A1F9KLZGHE9DTA","2022-05-18T15:20:39.862Z","task_switching-rhyme-same_different-phon_sim","","null","task_switching","null","training","<div style=""color:darkgreen; font-size:60px"">Well done!</div>","uncued_switch","","","","","","","","","","","","","","","","","","","","","","","","","","","","","","","","",""
"","","","","","survey-text","111","228630","0.0-111.0","A1F9KLZGHE9DTA","2022-05-18T15:20:39.862Z","task_switching-rhyme-same_different-phon_sim","","1818.0999999642372","task_switching","{""uncued_switch_ans"":""18""}","training","21","uncued_switch","18","true","subtract","1","","","","","","","","","","","","","","","","","","","","","","","","","","","","",""
"","","","","","html-keyboard-response","112","229641","0.0-112.0","A1F9KLZGHE9DTA","2022-05-18T15:20:39.862Z","task_switching-rhyme-same_different-phon_sim","","null","task_switching","null","training","<div style=""color:darkgreen; font-size:60px"">Well done!</div>","uncued_switch","","","","","","","","","","","","","","","","","","","","","","","","","","","","","","","","",""
"","","","","","survey-text","113","230858","0.0-113.0","A1F9KLZGHE9DTA","2022-05-18T15:20:39.862Z","task_switching-rhyme-same_different-phon_sim","","1211.9000000357628","task_switching","{""uncued_switch_ans"":""99""}","training","96","uncued_switch","99","true","add","2","","","","","","","","","","","","","","","","","","","","","","","","","","","","",""
"","","","","","html-keyboard-response","114","231872","0.0-114.0","A1F9KLZGHE9DTA","2022-05-18T15:20:39.862Z","task_switching-rhyme-same_different-phon_sim","","null","task_switching","null","training","<div style=""color:darkgreen; font-size:60px"">Well done!</div>","uncued_switch","","","","","","","","","","","","","","","","","","","","","","","","","","","","","","","","",""
"","","","","","survey-text","115","233436","0.0-115.0","A1F9KLZGHE9DTA","2022-05-18T15:20:39.862Z","task_switching-rhyme-same_different-phon_sim","","1560.800000011921","task_switching","{""uncued_switch_ans"":""67""}","training","70","uncued_switch","67","true","subtract","3","","","","","","","","","","","","","","","","","","","","","","","","","","","","",""
"","","","","","html-keyboard-response","116","234438","0.0-116.0","A1F9KLZGHE9DTA","2022-05-18T15:20:39.862Z","task_switching-rhyme-same_different-phon_sim","","null","task_switching","null","training","<div style=""color:darkgreen; font-size:60px"">Well done!</div>","uncued_switch","","","","","","","","","","","","","","","","","","","","","","","","","","","","","","","","",""
"","","","","","survey-text","117","235794","0.0-117.0","A1F9KLZGHE9DTA","2022-05-18T15:20:39.862Z","task_switching-rhyme-same_different-phon_sim","","1352.5999999642372","task_switching","{""uncued_switch_ans"":""90""}","training","87","uncued_switch","90","true","add","4","","","","","","","","","","","","","","","","","","","","","","","","","","","","",""
"","","","","","html-keyboard-response","118","236807","0.0-118.0","A1F9KLZGHE9DTA","2022-05-18T15:20:39.862Z","task_switching-rhyme-same_different-phon_sim","","null","task_switching","null","training","<div style=""color:darkgreen; font-size:60px"">Well done!</div>","uncued_switch","","","","","","","","","","","","","","","","","","","","","","","","","","","","","","","","",""
"","","","","","survey-text","119","238224","0.0-119.0","A1F9KLZGHE9DTA","2022-05-18T15:20:39.862Z","task_switching-rhyme-same_different-phon_sim","","1414.5999999642372","task_switching","{""uncued_switch_ans"":""80""}","training","83","uncued_switch","80","true","subtract","5","","","","","","","","","","","","","","","","","","","","","","","","","","","","",""
"","","","","","html-keyboard-response","120","239232","0.0-120.0","A1F9KLZGHE9DTA","2022-05-18T15:20:39.862Z","task_switching-rhyme-same_different-phon_sim","","null","task_switching","null","training","<div style=""color:darkgreen; font-size:60px"">Well done!</div>","uncued_switch","","","","","","","","","","","","","","","","","","","","","","","","","","","","","","","","",""
"","","","","","survey-text","121","240350","0.0-121.0","A1F9KLZGHE9DTA","2022-05-18T15:20:39.862Z","task_switching-rhyme-same_different-phon_sim","","1111.9000000357628","task_switching","{""uncued_switch_ans"":""88""}","training","85","uncued_switch","88","true","add","6","","","","","","","","","","","","","","","","","","","","","","","","","","","","",""
"","","","","","html-keyboard-response","122","241364","0.0-122.0","A1F9KLZGHE9DTA","2022-05-18T15:20:39.862Z","task_switching-rhyme-same_different-phon_sim","","null","task_switching","null","training","<div style=""color:darkgreen; font-size:60px"">Well done!</div>","uncued_switch","","","","","","","","","","","","","","","","","","","","","","","","","","","","","","","","",""
"","","","","","survey-text","123","242982","0.0-123.0","A1F9KLZGHE9DTA","2022-05-18T15:20:39.862Z","task_switching-rhyme-same_different-phon_sim","","1613","task_switching","{""uncued_switch_ans"":""12""}","training","15","uncued_switch","12","true","subtract","7","","","","","","","","","","","","","","","","","","","","","","","","","","","","",""
"","","","","","html-keyboard-response","124","243992","0.0-124.0","A1F9KLZGHE9DTA","2022-05-18T15:20:39.862Z","task_switching-rhyme-same_different-phon_sim","","null","task_switching","null","training","<div style=""color:darkgreen; font-size:60px"">Well done!</div>","uncued_switch","","","","","","","","","","","","","","","","","","","","","","","","","","","","","","","","",""
"","","","","","survey-text","125","245434","0.0-125.0","A1F9KLZGHE9DTA","2022-05-18T15:20:39.862Z","task_switching-rhyme-same_different-phon_sim","","1433.199999988079","task_switching","{""uncued_switch_ans"":""60""}","training","57","uncued_switch","60","true","add","8","","","","","","","","","","","","","","","","","","","","","","","","","","","","",""
"","","","","","html-keyboard-response","126","246441","0.0-126.0","A1F9KLZGHE9DTA","2022-05-18T15:20:39.862Z","task_switching-rhyme-same_different-phon_sim","","null","task_switching","null","training","<div style=""color:darkgreen; font-size:60px"">Well done!</div>","uncued_switch","","","","","","","","","","","","","","","","","","","","","","","","","","","","","","","","",""
"","","","","","survey-text","127","249786","0.0-127.0","A1F9KLZGHE9DTA","2022-05-18T15:20:39.862Z","task_switching-rhyme-same_different-phon_sim","","3340.899999976158","task_switching","{""uncued_switch_ans"":""47""}","training","50","uncued_switch","47","true","subtract","9","","","","","","","","","","","","","","","","","","","","","","","","","","","","",""
"","","","","","html-keyboard-response","128","250812","0.0-128.0","A1F9KLZGHE9DTA","2022-05-18T15:20:39.862Z","task_switching-rhyme-same_different-phon_sim","","null","task_switching","null","training","<div style=""color:darkgreen; font-size:60px"">Well done!</div>","uncued_switch","","","","","","","","","","","","","","","","","","","","","","","","","","","","","","","","",""
"","","","","","instructions","129","252192","0.0-129.0","A1F9KLZGHE9DTA","2022-05-18T15:20:39.862Z","task_switching-rhyme-same_different-phon_sim","[{""page_index"":0,""viewing_time"":1378.3999999761581}]","1378.5999999642372","task_switching","","","","","","","","","","","","","","","","","","","","","","","","","","","","","","","","","","","","",""
"","","","","","survey-text","130","253990","0.0-130.0","A1F9KLZGHE9DTA","2022-05-18T15:20:39.862Z","task_switching-rhyme-same_different-phon_sim","","1795.800000011921","task_switching","{""uncued_switch_ans"":""58""}","experiment","55","uncued_switch","58","true","add","0","","","","","","","","","","","","","","","","","","","","","","","","","","","","",""
"","","","","","survey-text","131","256012","0.0-131.0","A1F9KLZGHE9DTA","2022-05-18T15:20:39.862Z","task_switching-rhyme-same_different-phon_sim","","2019","task_switching","{""uncued_switch_ans"":""62""}","experiment","65","uncued_switch","62","true","subtract","1","","","","","","","","","","","","","","","","","","","","","","","","","","","","",""
"","","","","","survey-text","132","257490","0.0-132.0","A1F9KLZGHE9DTA","2022-05-18T15:20:39.862Z","task_switching-rhyme-same_different-phon_sim","","1475.300000011921","task_switching","{""uncued_switch_ans"":""74""}","experiment","71","uncued_switch","74","true","add","2","","","","","","","","","","","","","","","","","","","","","","","","","","","","",""
"","","","","","survey-text","133","259294","0.0-133.0","A1F9KLZGHE9DTA","2022-05-18T15:20:39.862Z","task_switching-rhyme-same_different-phon_sim","","1801.199999988079","task_switching","{""uncued_switch_ans"":""63""}","experiment","66","uncued_switch","63","true","subtract","3","","","","","","","","","","","","","","","","","","","","","","","","","","","","",""
"","","","","","survey-text","134","260732","0.0-134.0","A1F9KLZGHE9DTA","2022-05-18T15:20:39.862Z","task_switching-rhyme-same_different-phon_sim","","1434.800000011921","task_switching","{""uncued_switch_ans"":""56""}","experiment","53","uncued_switch","56","true","add","4","","","","","","","","","","","","","","","","","","","","","","","","","","","","",""
"","","","","","survey-text","135","262270","0.0-135.0","A1F9KLZGHE9DTA","2022-05-18T15:20:39.862Z","task_switching-rhyme-same_different-phon_sim","","1535.7999999523163","task_switching","{""uncued_switch_ans"":""67""}","experiment","70","uncued_switch","67","true","subtract","5","","","","","","","","","","","","","","","","","","","","","","","","","","","","",""
"","","","","","survey-text","136","263520","0.0-136.0","A1F9KLZGHE9DTA","2022-05-18T15:20:39.862Z","task_switching-rhyme-same_different-phon_sim","","1247.5","task_switching","{""uncued_switch_ans"":""88""}","experiment","85","uncued_switch","88","true","add","6","","","","","","","","","","","","","","","","","","","","","","","","","","","","",""
"","","","","","survey-text","137","264904","0.0-137.0","A1F9KLZGHE9DTA","2022-05-18T15:20:39.862Z","task_switching-rhyme-same_different-phon_sim","","1382.2000000476837","task_switching","{""uncued_switch_ans"":""15""}","experiment","18","uncued_switch","15","true","subtract","7","","","","","","","","","","","","","","","","","","","","","","","","","","","","",""
"","","","","","survey-text","138","266434","0.0-138.0","A1F9KLZGHE9DTA","2022-05-18T15:20:39.862Z","task_switching-rhyme-same_different-phon_sim","","1527.199999988079","task_switching","{""uncued_switch_ans"":""28""}","experiment","25","uncued_switch","28","true","add","8","","","","","","","","","","","","","","","","","","","","","","","","","","","","",""
"","","","","","survey-text","139","267724","0.0-139.0","A1F9KLZGHE9DTA","2022-05-18T15:20:39.862Z","task_switching-rhyme-same_different-phon_sim","","1287.5","task_switching","{""uncued_switch_ans"":""45""}","experiment","48","uncued_switch","45","true","subtract","9","","","","","","","","","","","","","","","","","","","","","","","","","","","","",""
"","","","","","survey-text","140","269082","0.0-140.0","A1F9KLZGHE9DTA","2022-05-18T15:20:39.862Z","task_switching-rhyme-same_different-phon_sim","","1356.199999988079","task_switching","{""uncued_switch_ans"":""53""}","experiment","50","uncued_switch","53","true","add","10","","","","","","","","","","","","","","","","","","","","","","","","","","","","",""
"","","","","","survey-text","141","270598","0.0-141.0","A1F9KLZGHE9DTA","2022-05-18T15:20:39.862Z","task_switching-rhyme-same_different-phon_sim","","1514","task_switching","{""uncued_switch_ans"":""79""}","experiment","82","uncued_switch","79","true","subtract","11","","","","","","","","","","","","","","","","","","","","","","","","","","","","",""
"","","","","","survey-text","142","272082","0.0-142.0","A1F9KLZGHE9DTA","2022-05-18T15:20:39.862Z","task_switching-rhyme-same_different-phon_sim","","1481.5","task_switching","{""uncued_switch_ans"":""83""}","experiment","80","uncued_switch","83","true","add","12","","","","","","","","","","","","","","","","","","","","","","","","","","","","",""
"","","","","","survey-text","143","273560","0.0-143.0","A1F9KLZGHE9DTA","2022-05-18T15:20:39.862Z","task_switching-rhyme-same_different-phon_sim","","1476.1000000238419","task_switching","{""uncued_switch_ans"":""64""}","experiment","67","uncued_switch","64","true","subtract","13","","","","","","","","","","","","","","","","","","","","","","","","","","","","",""
"","","","","","survey-text","144","275036","0.0-144.0","A1F9KLZGHE9DTA","2022-05-18T15:20:39.862Z","task_switching-rhyme-same_different-phon_sim","","1472.699999988079","task_switching","{""uncued_switch_ans"":""30""}","experiment","27","uncued_switch","30","true","add","14","","","","","","","","","","","","","","","","","","","","","","","","","","","","",""
"","","","","","survey-text","145","276410","0.0-145.0","A1F9KLZGHE9DTA","2022-05-18T15:20:39.862Z","task_switching-rhyme-same_different-phon_sim","","1371.8999999761581","task_switching","{""uncued_switch_ans"":""10""}","experiment","13","uncued_switch","10","true","subtract","15","","","","","","","","","","","","","","","","","","","","","","","","","","","","",""
"","","","","","survey-text","146","278090","0.0-146.0","A1F9KLZGHE9DTA","2022-05-18T15:20:39.862Z","task_switching-rhyme-same_different-phon_sim","","1674.2999999523163","task_switching","{""uncued_switch_ans"":""40""}","experiment","37","uncued_switch","40","true","add","16","","","","","","","","","","","","","","","","","","","","","","","","","","","","",""
"","","","","","survey-text","147","279943","0.0-147.0","A1F9KLZGHE9DTA","2022-05-18T15:20:39.862Z","task_switching-rhyme-same_different-phon_sim","","1850.6000000238419","task_switching","{""uncued_switch_ans"":""14""}","experiment","17","uncued_switch","14","true","subtract","17","","","","","","","","","","","","","","","","","","","","","","","","","","","","",""
"","","","","","survey-text","148","281550","0.0-148.0","A1F9KLZGHE9DTA","2022-05-18T15:20:39.862Z","task_switching-rhyme-same_different-phon_sim","","1605.9000000357628","task_switching","{""uncued_switch_ans"":""52""}","experiment","49","uncued_switch","52","true","add","18","","","","","","","","","","","","","","","","","","","","","","","","","","","","",""
"","","","","","survey-text","149","282958","0.0-149.0","A1F9KLZGHE9DTA","2022-05-18T15:20:39.862Z","task_switching-rhyme-same_different-phon_sim","","1404.800000011921","task_switching","{""uncued_switch_ans"":""54""}","experiment","57","uncued_switch","54","true","subtract","19","","","","","","","","","","","","","","","","","","","","","","","","","","","","",""
"","","","","","survey-text","150","284340","0.0-150.0","A1F9KLZGHE9DTA","2022-05-18T15:20:39.862Z","task_switching-rhyme-same_different-phon_sim","","1379.800000011921","task_switching","{""uncued_switch_ans"":""38""}","experiment","35","uncued_switch","38","true","add","20","","","","","","","","","","","","","","","","","","","","","","","","","","","","",""
"","","","","","survey-text","151","285731","0.0-151.0","A1F9KLZGHE9DTA","2022-05-18T15:20:39.862Z","task_switching-rhyme-same_different-phon_sim","","1388.3999999761581","task_switching","{""uncued_switch_ans"":""33""}","experiment","36","uncued_switch","33","true","subtract","21","","","","","","","","","","","","","","","","","","","","","","","","","","","","",""
"","","","","","survey-text","152","287472","0.0-152.0","A1F9KLZGHE9DTA","2022-05-18T15:20:39.862Z","task_switching-rhyme-same_different-phon_sim","","1738.8999999761581","task_switching","{""uncued_switch_ans"":""65""}","experiment","62","uncued_switch","65","true","add","22","","","","","","","","","","","","","","","","","","","","","","","","","","","","",""
"","","","","","survey-text","153","289214","0.0-153.0","A1F9KLZGHE9DTA","2022-05-18T15:20:39.862Z","task_switching-rhyme-same_different-phon_sim","","1738.7000000476837","task_switching","{""uncued_switch_ans"":""86""}","experiment","89","uncued_switch","86","true","subtract","23","","","","","","","","","","","","","","","","","","","","","","","","","","","","",""
"","","","","","survey-text","154","291426","0.0-154.0","A1F9KLZGHE9DTA","2022-05-18T15:20:39.862Z","task_switching-rhyme-same_different-phon_sim","","2209.600000023842","task_switching","{""uncued_switch_ans"":""94""}","experiment","91","uncued_switch","94","true","add","24","","","","","","","","","","","","","","","","","","","","","","","","","","","","",""
"","","","","","survey-text","155","292754","0.0-155.0","A1F9KLZGHE9DTA","2022-05-18T15:20:39.862Z","task_switching-rhyme-same_different-phon_sim","","1325.300000011921","task_switching","{""uncued_switch_ans"":""13""}","experiment","16","uncued_switch","13","true","subtract","25","","","","","","","","","","","","","","","","","","","","","","","","","","","","",""
"","","","","","survey-text","156","294152","0.0-156.0","A1F9KLZGHE9DTA","2022-05-18T15:20:39.862Z","task_switching-rhyme-same_different-phon_sim","","1395.4000000357628","task_switching","{""uncued_switch_ans"":""55""}","experiment","52","uncued_switch","55","true","add","26","","","","","","","","","","","","","","","","","","","","","","","","","","","","",""
"","","","","","survey-text","157","296012","0.0-157.0","A1F9KLZGHE9DTA","2022-05-18T15:20:39.862Z","task_switching-rhyme-same_different-phon_sim","","1858","task_switching","{""uncued_switch_ans"":""75""}","experiment","78","uncued_switch","75","true","subtract","27","","","","","","","","","","","","","","","","","","","","","","","","","","","","",""
"","","","","","survey-text","158","297394","0.0-158.0","A1F9KLZGHE9DTA","2022-05-18T15:20:39.862Z","task_switching-rhyme-same_different-phon_sim","","1376.800000011921","task_switching","{""uncued_switch_ans"":""18""}","experiment","15","uncued_switch","18","true","add","28","","","","","","","","","","","","","","","","","","","","","","","","","","","","",""
"","","","","","survey-text","159","298778","0.0-159.0","A1F9KLZGHE9DTA","2022-05-18T15:20:39.862Z","task_switching-rhyme-same_different-phon_sim","","1381.0999999642372","task_switching","{""uncued_switch_ans"":""80""}","experiment","83","uncued_switch","80","true","subtract","29","","","","","","","","","","","","","","","","","","","","","","","","","","","","",""
"","","","","","instructions","160","304440","0.0-160.0","A1F9KLZGHE9DTA","2022-05-18T15:20:39.862Z","task_switching-rhyme-same_different-phon_sim","[{""page_index"":0,""viewing_time"":5661.100000023842}]","5661.5","task_switching","","","","","","","","","","","","","","","","","","","","","","","","","","","","","","","","","","","","",""
"","","","","","survey-text","161","306316","0.0-161.0","A1F9KLZGHE9DTA","2022-05-18T15:20:39.862Z","task_switching-rhyme-same_different-phon_sim","","1873.6000000238419","task_switching","{""symbolcue_switch_ans"":""24""}","training","21","symbolcue_switch","24","true","add","0","+","","","","","","","","","","","","","","","","","","","","","","","","","","","",""
"","","","","","html-keyboard-response","162","307335","0.0-162.0","A1F9KLZGHE9DTA","2022-05-18T15:20:39.862Z","task_switching-rhyme-same_different-phon_sim","","null","task_switching","null","training","<div style=""color:darkgreen; font-size:60px"">Well done!</div>","symbolcue_switch","","","","","","","","","","","","","","","","","","","","","","","","","","","","","","","","",""
"","","","","","survey-text","163","308951","0.0-163.0","A1F9KLZGHE9DTA","2022-05-18T15:20:39.862Z","task_switching-rhyme-same_different-phon_sim","","1610.800000011921","task_switching","{""symbolcue_switch_ans"":""56""}","training","59","symbolcue_switch","56","true","subtract","1","-","","","","","","","","","","","","","","","","","","","","","","","","","","","",""
"","","","","","html-keyboard-response","164","309961","0.0-164.0","A1F9KLZGHE9DTA","2022-05-18T15:20:39.862Z","task_switching-rhyme-same_different-phon_sim","","null","task_switching","null","training","<div style=""color:darkgreen; font-size:60px"">Well done!</div>","symbolcue_switch","","","","","","","","","","","","","","","","","","","","","","","","","","","","","","","","",""
"","","","","","survey-text","165","311480","0.0-165.0","A1F9KLZGHE9DTA","2022-05-18T15:20:39.862Z","task_switching-rhyme-same_different-phon_sim","","1514.199999988079","task_switching","{""symbolcue_switch_ans"":""51""}","training","48","symbolcue_switch","51","true","add","2","+","","","","","","","","","","","","","","","","","","","","","","","","","","","",""
"","","","","","html-keyboard-response","166","312493","0.0-166.0","A1F9KLZGHE9DTA","2022-05-18T15:20:39.862Z","task_switching-rhyme-same_different-phon_sim","","null","task_switching","null","training","<div style=""color:darkgreen; font-size:60px"">Well done!</div>","symbolcue_switch","","","","","","","","","","","","","","","","","","","","","","","","","","","","","","","","",""
"","","","","","survey-text","167","314104","0.0-167.0","A1F9KLZGHE9DTA","2022-05-18T15:20:39.862Z","task_switching-rhyme-same_different-phon_sim","","1606","task_switching","{""symbolcue_switch_ans"":""82""}","training","85","symbolcue_switch","82","true","subtract","3","-","","","","","","","","","","","","","","","","","","","","","","","","","","","",""
"","","","","","html-keyboard-response","168","315114","0.0-168.0","A1F9KLZGHE9DTA","2022-05-18T15:20:39.862Z","task_switching-rhyme-same_different-phon_sim","","null","task_switching","null","training","<div style=""color:darkgreen; font-size:60px"">Well done!</div>","symbolcue_switch","","","","","","","","","","","","","","","","","","","","","","","","","","","","","","","","",""
"","","","","","survey-text","169","316402","0.0-169.0","A1F9KLZGHE9DTA","2022-05-18T15:20:39.862Z","task_switching-rhyme-same_different-phon_sim","","1278.3999999761581","task_switching","{""symbolcue_switch_ans"":""85""}","training","92","symbolcue_switch","85","false","add","4","+","","","","","","","","","","","","","","","","","","","","","","","","","","","",""
"","","","","","html-keyboard-response","170","321414","0.0-170.0","A1F9KLZGHE9DTA","2022-05-18T15:20:39.862Z","task_switching-rhyme-same_different-phon_sim","","null","task_switching","null","training","<div style=""color:darkred; font-size:40px"">That was an <b>add</b> trial.<p> Correct answer: 95.</p><p> Next trial subtract 3.</p></div>","symbolcue_switch","","","","","","","","","","","","","","","","","","","","","","","","","","","","","","","","",""
"","","","","","survey-text","171","323074","0.0-171.0","A1F9KLZGHE9DTA","2022-05-18T15:20:39.862Z","task_switching-rhyme-same_different-phon_sim","","1653.699999988079","task_switching","{""symbolcue_switch_ans"":""66""}","training","69","symbolcue_switch","66","true","subtract","5","-","","","","","","","","","","","","","","","","","","","","","","","","","","","",""
"","","","","","html-keyboard-response","172","324082","0.0-172.0","A1F9KLZGHE9DTA","2022-05-18T15:20:39.862Z","task_switching-rhyme-same_different-phon_sim","","null","task_switching","null","training","<div style=""color:darkgreen; font-size:60px"">Well done!</div>","symbolcue_switch","","","","","","","","","","","","","","","","","","","","","","","","","","","","","","","","",""
"","","","","","survey-text","173","325478","0.0-173.0","A1F9KLZGHE9DTA","2022-05-18T15:20:39.862Z","task_switching-rhyme-same_different-phon_sim","","1391.4000000357628","task_switching","{""symbolcue_switch_ans"":""83""}","training","80","symbolcue_switch","83","true","add","6","+","","","","","","","","","","","","","","","","","","","","","","","","","","","",""
"","","","","","html-keyboard-response","174","326486","0.0-174.0","A1F9KLZGHE9DTA","2022-05-18T15:20:39.862Z","task_switching-rhyme-same_different-phon_sim","","null","task_switching","null","training","<div style=""color:darkgreen; font-size:60px"">Well done!</div>","symbolcue_switch","","","","","","","","","","","","","","","","","","","","","","","","","","","","","","","","",""
"","","","","","survey-text","175","328072","0.0-175.0","A1F9KLZGHE9DTA","2022-05-18T15:20:39.862Z","task_switching-rhyme-same_different-phon_sim","","1581.3999999761581","task_switching","{""symbolcue_switch_ans"":""47""}","training","50","symbolcue_switch","47","true","subtract","7","-","","","","","","","","","","","","","","","","","","","","","","","","","","","",""
"","","","","","html-keyboard-response","176","329088","0.0-176.0","A1F9KLZGHE9DTA","2022-05-18T15:20:39.862Z","task_switching-rhyme-same_different-phon_sim","","null","task_switching","null","training","<div style=""color:darkgreen; font-size:60px"">Well done!</div>","symbolcue_switch","","","","","","","","","","","","","","","","","","","","","","","","","","","","","","","","",""
"","","","","","survey-text","177","330518","0.0-177.0","A1F9KLZGHE9DTA","2022-05-18T15:20:39.862Z","task_switching-rhyme-same_different-phon_sim","","1424.9000000357628","task_switching","{""symbolcue_switch_ans"":""30""}","training","27","symbolcue_switch","30","true","add","8","+","","","","","","","","","","","","","","","","","","","","","","","","","","","",""
"","","","","","html-keyboard-response","178","331536","0.0-178.0","A1F9KLZGHE9DTA","2022-05-18T15:20:39.862Z","task_switching-rhyme-same_different-phon_sim","","null","task_switching","null","training","<div style=""color:darkgreen; font-size:60px"">Well done!</div>","symbolcue_switch","","","","","","","","","","","","","","","","","","","","","","","","","","","","","","","","",""
"","","","","","survey-text","179","333440","0.0-179.0","A1F9KLZGHE9DTA","2022-05-18T15:20:39.862Z","task_switching-rhyme-same_different-phon_sim","","1899","task_switching","{""symbolcue_switch_ans"":""49""}","training","52","symbolcue_switch","49","true","subtract","9","-","","","","","","","","","","","","","","","","","","","","","","","","","","","",""
"","","","","","html-keyboard-response","180","334447","0.0-180.0","A1F9KLZGHE9DTA","2022-05-18T15:20:39.862Z","task_switching-rhyme-same_different-phon_sim","","null","task_switching","null","training","<div style=""color:darkgreen; font-size:60px"">Well done!</div>","symbolcue_switch","","","","","","","","","","","","","","","","","","","","","","","","","","","","","","","","",""
"","","","","","instructions","181","337986","0.0-181.0","A1F9KLZGHE9DTA","2022-05-18T15:20:39.862Z","task_switching-rhyme-same_different-phon_sim","[{""page_index"":0,""viewing_time"":3537.400000035763}]","3537.699999988079","task_switching","","","","","","","","","","","","","","","","","","","","","","","","","","","","","","","","","","","","",""
"","","","","","survey-text","182","340120","0.0-182.0","A1F9KLZGHE9DTA","2022-05-18T15:20:39.862Z","task_switching-rhyme-same_different-phon_sim","","2132.099999964237","task_switching","{""symbolcue_switch_ans"":""40""}","experiment","37","symbolcue_switch","40","true","add","0","+","","","","","","","","","","","","","","","","","","","","","","","","","","","",""
"","","","","","survey-text","183","341908","0.0-183.0","A1F9KLZGHE9DTA","2022-05-18T15:20:39.862Z","task_switching-rhyme-same_different-phon_sim","","1786","task_switching","{""symbolcue_switch_ans"":""87""}","experiment","90","symbolcue_switch","87","true","subtract","1","-","","","","","","","","","","","","","","","","","","","","","","","","","","","",""
"","","","","","survey-text","184","343408","0.0-184.0","A1F9KLZGHE9DTA","2022-05-18T15:20:39.862Z","task_switching-rhyme-same_different-phon_sim","","1498","task_switching","{""symbolcue_switch_ans"":""31""}","experiment","28","symbolcue_switch","31","true","add","2","+","","","","","","","","","","","","","","","","","","","","","","","","","","","",""
"","","","","","survey-text","185","344908","0.0-185.0","A1F9KLZGHE9DTA","2022-05-18T15:20:39.862Z","task_switching-rhyme-same_different-phon_sim","","1497.5","task_switching","{""symbolcue_switch_ans"":""10""}","experiment","13","symbolcue_switch","10","true","subtract","3","-","","","","","","","","","","","","","","","","","","","","","","","","","","","",""
"","","","","","survey-text","186","346572","0.0-186.0","A1F9KLZGHE9DTA","2022-05-18T15:20:39.862Z","task_switching-rhyme-same_different-phon_sim","","1661.5","task_switching","{""symbolcue_switch_ans"":""81""}","experiment","78","symbolcue_switch","81","true","add","4","+","","","","","","","","","","","","","","","","","","","","","","","","","","","",""
"","","","","","survey-text","187","348024","0.0-187.0","A1F9KLZGHE9DTA","2022-05-18T15:20:39.862Z","task_switching-rhyme-same_different-phon_sim","","1449.9000000357628","task_switching","{""symbolcue_switch_ans"":""35""}","experiment","38","symbolcue_switch","35","true","subtract","5","-","","","","","","","","","","","","","","","","","","","","","","","","","","","",""
"","","","","","survey-text","188","349400","0.0-188.0","A1F9KLZGHE9DTA","2022-05-18T15:20:39.862Z","task_switching-rhyme-same_different-phon_sim","","1373.6000000238419","task_switching","{""symbolcue_switch_ans"":""45""}","experiment","42","symbolcue_switch","45","true","add","6","+","","","","","","","","","","","","","","","","","","","","","","","","","","","",""
"","","","","","survey-text","189","351909","0.0-189.0","A1F9KLZGHE9DTA","2022-05-18T15:20:39.862Z","task_switching-rhyme-same_different-phon_sim","","2506.7999999523163","task_switching","{""symbolcue_switch_ans"":""88""}","experiment","91","symbolcue_switch","88","true","subtract","7","-","","","","","","","","","","","","","","","","","","","","","","","","","","","",""
"","","","","","survey-text","190","353650","0.0-190.0","A1F9KLZGHE9DTA","2022-05-18T15:20:39.862Z","task_switching-rhyme-same_different-phon_sim","","1739.199999988079","task_switching","{""symbolcue_switch_ans"":""64""}","experiment","61","symbolcue_switch","64","true","add","8","+","","","","","","","","","","","","","","","","","","","","","","","","","","","",""
"","","","","","survey-text","191","355221","0.0-191.0","A1F9KLZGHE9DTA","2022-05-18T15:20:39.862Z","task_switching-rhyme-same_different-phon_sim","","1568.9000000357628","task_switching","{""symbolcue_switch_ans"":""56""}","experiment","59","symbolcue_switch","56","true","subtract","9","-","","","","","","","","","","","","","","","","","","","","","","","","","","","",""
"","","","","","survey-text","192","356736","0.0-192.0","A1F9KLZGHE9DTA","2022-05-18T15:20:39.862Z","task_switching-rhyme-same_different-phon_sim","","1513","task_switching","{""symbolcue_switch_ans"":""83""}","experiment","80","symbolcue_switch","83","true","add","10","+","","","","","","","","","","","","","","","","","","","","","","","","","","","",""
"","","","","","survey-text","193","358446","0.0-193.0","A1F9KLZGHE9DTA","2022-05-18T15:20:39.862Z","task_switching-rhyme-same_different-phon_sim","","1706.6000000238419","task_switching","{""symbolcue_switch_ans"":""41""}","experiment","44","symbolcue_switch","41","true","subtract","11","-","","","","","","","","","","","","","","","","","","","","","","","","","","","",""
"","","","","","survey-text","194","360182","0.0-194.0","A1F9KLZGHE9DTA","2022-05-18T15:20:39.862Z","task_switching-rhyme-same_different-phon_sim","","1734","task_switching","{""symbolcue_switch_ans"":""29""}","experiment","26","symbolcue_switch","29","true","add","12","+","","","","","","","","","","","","","","","","","","","","","","","","","","","",""
"","","","","","survey-text","195","362250","0.0-195.0","A1F9KLZGHE9DTA","2022-05-18T15:20:39.862Z","task_switching-rhyme-same_different-phon_sim","","2065.5","task_switching","{""symbolcue_switch_ans"":""49""}","experiment","52","symbolcue_switch","49","true","subtract","13","-","","","","","","","","","","","","","","","","","","","","","","","","","","","",""
"","","","","","survey-text","196","363541","0.0-196.0","A1F9KLZGHE9DTA","2022-05-18T15:20:39.862Z","task_switching-rhyme-same_different-phon_sim","","1288.6000000238419","task_switching","{""symbolcue_switch_ans"":""23""}","experiment","20","symbolcue_switch","23","true","add","14","+","","","","","","","","","","","","","","","","","","","","","","","","","","","",""
"","","","","","survey-text","197","364917","0.0-197.0","A1F9KLZGHE9DTA","2022-05-18T15:20:39.862Z","task_switching-rhyme-same_different-phon_sim","","1373.5999999642372","task_switching","{""symbolcue_switch_ans"":""55""}","experiment","58","symbolcue_switch","55","true","subtract","15","-","","","","","","","","","","","","","","","","","","","","","","","","","","","",""
"","","","","","survey-text","198","366658","0.0-198.0","A1F9KLZGHE9DTA","2022-05-18T15:20:39.862Z","task_switching-rhyme-same_different-phon_sim","","1738.800000011921","task_switching","{""symbolcue_switch_ans"":""82""}","experiment","79","symbolcue_switch","82","true","add","16","+","","","","","","","","","","","","","","","","","","","","","","","","","","","",""
"","","","","","survey-text","199","368338","0.0-199.0","A1F9KLZGHE9DTA","2022-05-18T15:20:39.862Z","task_switching-rhyme-same_different-phon_sim","","1677.6000000238419","task_switching","{""symbolcue_switch_ans"":""74""}","experiment","77","symbolcue_switch","74","true","subtract","17","-","","","","","","","","","","","","","","","","","","","","","","","","","","","",""
"","","","","","survey-text","200","370016","0.0-200.0","A1F9KLZGHE9DTA","2022-05-18T15:20:39.862Z","task_switching-rhyme-same_different-phon_sim","","1675.699999988079","task_switching","{""symbolcue_switch_ans"":""28""}","experiment","25","symbolcue_switch","28","true","add","18","+","","","","","","","","","","","","","","","","","","","","","","","","","","","",""
"","","","","","survey-text","201","372142","0.0-201.0","A1F9KLZGHE9DTA","2022-05-18T15:20:39.862Z","task_switching-rhyme-same_different-phon_sim","","2124","task_switching","{""symbolcue_switch_ans"":""68""}","experiment","71","symbolcue_switch","68","true","subtract","19","-","","","","","","","","","","","","","","","","","","","","","","","","","","","",""
"","","","","","survey-text","202","373852","0.0-202.0","A1F9KLZGHE9DTA","2022-05-18T15:20:39.862Z","task_switching-rhyme-same_different-phon_sim","","1707.699999988079","task_switching","{""symbolcue_switch_ans"":""26""}","experiment","23","symbolcue_switch","26","true","add","20","+","","","","","","","","","","","","","","","","","","","","","","","","","","","",""
"","","","","","survey-text","203","375479","0.0-203.0","A1F9KLZGHE9DTA","2022-05-18T15:20:39.862Z","task_switching-rhyme-same_different-phon_sim","","1624.300000011921","task_switching","{""symbolcue_switch_ans"":""31""}","experiment","34","symbolcue_switch","31","true","subtract","21","-","","","","","","","","","","","","","","","","","","","","","","","","","","","",""
"","","","","","survey-text","204","377150","0.0-204.0","A1F9KLZGHE9DTA","2022-05-18T15:20:39.862Z","task_switching-rhyme-same_different-phon_sim","","1668.699999988079","task_switching","{""symbolcue_switch_ans"":""91""}","experiment","88","symbolcue_switch","91","true","add","22","+","","","","","","","","","","","","","","","","","","","","","","","","","","","",""
"","","","","","survey-text","205","378594","0.0-205.0","A1F9KLZGHE9DTA","2022-05-18T15:20:39.862Z","task_switching-rhyme-same_different-phon_sim","","1441.5999999642372","task_switching","{""symbolcue_switch_ans"":""63""}","experiment","66","symbolcue_switch","63","true","subtract","23","-","","","","","","","","","","","","","","","","","","","","","","","","","","","",""
"","","","","","survey-text","206","380228","0.0-206.0","A1F9KLZGHE9DTA","2022-05-18T15:20:39.862Z","task_switching-rhyme-same_different-phon_sim","","1631.300000011921","task_switching","{""symbolcue_switch_ans"":""70""}","experiment","67","symbolcue_switch","70","true","add","24","+","","","","","","","","","","","","","","","","","","","","","","","","","","","",""
"","","","","","survey-text","207","382086","0.0-207.0","A1F9KLZGHE9DTA","2022-05-18T15:20:39.862Z","task_switching-rhyme-same_different-phon_sim","","1856.300000011921","task_switching","{""symbolcue_switch_ans"":""18""}","experiment","21","symbolcue_switch","18","true","subtract","25","-","","","","","","","","","","","","","","","","","","","","","","","","","","","",""
"","","","","","survey-text","208","383578","0.0-208.0","A1F9KLZGHE9DTA","2022-05-18T15:20:39.862Z","task_switching-rhyme-same_different-phon_sim","","1490","task_switching","{""symbolcue_switch_ans"":""17""}","experiment","14","symbolcue_switch","17","true","add","26","+","","","","","","","","","","","","","","","","","","","","","","","","","","","",""
"","","","","","survey-text","209","385384","0.0-209.0","A1F9KLZGHE9DTA","2022-05-18T15:20:39.862Z","task_switching-rhyme-same_different-phon_sim","","1803.2000000476837","task_switching","{""symbolcue_switch_ans"":""72""}","experiment","75","symbolcue_switch","72","true","subtract","27","-","","","","","","","","","","","","","","","","","","","","","","","","","","","",""
"","","","","","survey-text","210","388758","0.0-210.0","A1F9KLZGHE9DTA","2022-05-18T15:20:39.862Z","task_switching-rhyme-same_different-phon_sim","","3371.800000011921","task_switching","{""symbolcue_switch_ans"":""22""}","experiment","19","symbolcue_switch","22","true","add","28","+","","","","","","","","","","","","","","","","","","","","","","","","","","","",""
"","","","","","survey-text","211","390344","0.0-211.0","A1F9KLZGHE9DTA","2022-05-18T15:20:39.862Z","task_switching-rhyme-same_different-phon_sim","","1583.800000011921","task_switching","{""symbolcue_switch_ans"":""65""}","experiment","68","symbolcue_switch","65","true","subtract","29","-","","","","","","","","","","","","","","","","","","","","","","","","","","","",""
"","","","","","instructions","212","397844","0.0-212.0","A1F9KLZGHE9DTA","2022-05-18T15:20:39.862Z","task_switching-rhyme-same_different-phon_sim","[{""page_index"":0,""viewing_time"":7498.599999964237}]","7498.899999976158","task_switching","","","","","","","","","","","","","","","","","","","","","","","","","","","","","","","","","","","","",""
"","","","","","survey-text","213","399812","0.0-213.0","A1F9KLZGHE9DTA","2022-05-18T15:20:39.862Z","task_switching-rhyme-same_different-phon_sim","","1966","task_switching","{""colorcue_switch_ans"":""53""}","training","50","colorcue_switch","53","true","add","0","","red","","","","","","","","","","","","","","","","","","","","","","","","","","",""
"","","","","","html-keyboard-response","214","400821","0.0-214.0","A1F9KLZGHE9DTA","2022-05-18T15:20:39.862Z","task_switching-rhyme-same_different-phon_sim","","null","task_switching","null","training","<div style=""color:darkgreen; font-size:60px"">Well done!</div>","colorcue_switch","","","","","","","","","","","","","","","","","","","","","","","","","","","","","","","","",""
"","","","","","survey-text","215","402274","0.0-215.0","A1F9KLZGHE9DTA","2022-05-18T15:20:39.862Z","task_switching-rhyme-same_different-phon_sim","","1450.5","task_switching","{""colorcue_switch_ans"":""24""}","training","27","colorcue_switch","24","true","subtract","1","","blue","","","","","","","","","","","","","","","","","","","","","","","","","","",""
"","","","","","html-keyboard-response","216","403285","0.0-216.0","A1F9KLZGHE9DTA","2022-05-18T15:20:39.862Z","task_switching-rhyme-same_different-phon_sim","","null","task_switching","null","training","<div style=""color:darkgreen; font-size:60px"">Well done!</div>","colorcue_switch","","","","","","","","","","","","","","","","","","","","","","","","","","","","","","","","",""
"","","","","","survey-text","217","404805","0.0-217.0","A1F9KLZGHE9DTA","2022-05-18T15:20:39.862Z","task_switching-rhyme-same_different-phon_sim","","1515.199999988079","task_switching","{""colorcue_switch_ans"":""40""}","training","37","colorcue_switch","40","true","add","2","","red","","","","","","","","","","","","","","","","","","","","","","","","","","",""
"","","","","","html-keyboard-response","218","405812","0.0-218.0","A1F9KLZGHE9DTA","2022-05-18T15:20:39.862Z","task_switching-rhyme-same_different-phon_sim","","null","task_switching","null","training","<div style=""color:darkgreen; font-size:60px"">Well done!</div>","colorcue_switch","","","","","","","","","","","","","","","","","","","","","","","","","","","","","","","","",""
"","","","","","survey-text","219","407968","0.0-219.0","A1F9KLZGHE9DTA","2022-05-18T15:20:39.862Z","task_switching-rhyme-same_different-phon_sim","","2153.2000000476837","task_switching","{""colorcue_switch_ans"":""84""}","training","87","colorcue_switch","84","true","subtract","3","","blue","","","","","","","","","","","","","","","","","","","","","","","","","","",""
"","","","","","html-keyboard-response","220","408976","0.0-220.0","A1F9KLZGHE9DTA","2022-05-18T15:20:39.862Z","task_switching-rhyme-same_different-phon_sim","","null","task_switching","null","training","<div style=""color:darkgreen; font-size:60px"">Well done!</div>","colorcue_switch","","","","","","","","","","","","","","","","","","","","","","","","","","","","","","","","",""
"","","","","","survey-text","221","410742","0.0-221.0","A1F9KLZGHE9DTA","2022-05-18T15:20:39.862Z","task_switching-rhyme-same_different-phon_sim","","1759.7000000476837","task_switching","{""colorcue_switch_ans"":""81""}","training","78","colorcue_switch","81","true","add","4","","red","","","","","","","","","","","","","","","","","","","","","","","","","","",""
"","","","","","html-keyboard-response","222","411759","0.0-222.0","A1F9KLZGHE9DTA","2022-05-18T15:20:39.862Z","task_switching-rhyme-same_different-phon_sim","","null","task_switching","null","training","<div style=""color:darkgreen; font-size:60px"">Well done!</div>","colorcue_switch","","","","","","","","","","","","","","","","","","","","","","","","","","","","","","","","",""
"","","","","","survey-text","223","413164","0.0-223.0","A1F9KLZGHE9DTA","2022-05-18T15:20:39.862Z","task_switching-rhyme-same_different-phon_sim","","1397.800000011921","task_switching","{""colorcue_switch_ans"":""40""}","training","43","colorcue_switch","40","true","subtract","5","","blue","","","","","","","","","","","","","","","","","","","","","","","","","","",""
"","","","","","html-keyboard-response","224","414173","0.0-224.0","A1F9KLZGHE9DTA","2022-05-18T15:20:39.862Z","task_switching-rhyme-same_different-phon_sim","","null","task_switching","null","training","<div style=""color:darkgreen; font-size:60px"">Well done!</div>","colorcue_switch","","","","","","","","","","","","","","","","","","","","","","","","","","","","","","","","",""
"","","","","","survey-text","225","416054","0.0-225.0","A1F9KLZGHE9DTA","2022-05-18T15:20:39.862Z","task_switching-rhyme-same_different-phon_sim","","1876.4000000357628","task_switching","{""colorcue_switch_ans"":""64""}","training","61","colorcue_switch","64","true","add","6","","red","","","","","","","","","","","","","","","","","","","","","","","","","","",""
"","","","","","html-keyboard-response","226","417063","0.0-226.0","A1F9KLZGHE9DTA","2022-05-18T15:20:39.862Z","task_switching-rhyme-same_different-phon_sim","","null","task_switching","null","training","<div style=""color:darkgreen; font-size:60px"">Well done!</div>","colorcue_switch","","","","","","","","","","","","","","","","","","","","","","","","","","","","","","","","",""
"","","","","","survey-text","227","418501","0.0-227.0","A1F9KLZGHE9DTA","2022-05-18T15:20:39.862Z","task_switching-rhyme-same_different-phon_sim","","1432.800000011921","task_switching","{""colorcue_switch_ans"":""67""}","training","70","colorcue_switch","67","true","subtract","7","","blue","","","","","","","","","","","","","","","","","","","","","","","","","","",""
"","","","","","html-keyboard-response","228","419504","0.0-228.0","A1F9KLZGHE9DTA","2022-05-18T15:20:39.862Z","task_switching-rhyme-same_different-phon_sim","","null","task_switching","null","training","<div style=""color:darkgreen; font-size:60px"">Well done!</div>","colorcue_switch","","","","","","","","","","","","","","","","","","","","","","","","","","","","","","","","",""
"","","","","","survey-text","229","421680","0.0-229.0","A1F9KLZGHE9DTA","2022-05-18T15:20:39.862Z","task_switching-rhyme-same_different-phon_sim","","2169","task_switching","{""colorcue_switch_ans"":""22""}","training","19","colorcue_switch","22","true","add","8","","red","","","","","","","","","","","","","","","","","","","","","","","","","","",""
"","","","","","html-keyboard-response","230","422687","0.0-230.0","A1F9KLZGHE9DTA","2022-05-18T15:20:39.862Z","task_switching-rhyme-same_different-phon_sim","","null","task_switching","null","training","<div style=""color:darkgreen; font-size:60px"">Well done!</div>","colorcue_switch","","","","","","","","","","","","","","","","","","","","","","","","","","","","","","","","",""
"","","","","","survey-text","231","424053","0.0-231.0","A1F9KLZGHE9DTA","2022-05-18T15:20:39.862Z","task_switching-rhyme-same_different-phon_sim","","1363","task_switching","{""colorcue_switch_ans"":""45""}","training","48","colorcue_switch","45","true","subtract","9","","blue","","","","","","","","","","","","","","","","","","","","","","","","","","",""
"","","","","","html-keyboard-response","232","425058","0.0-232.0","A1F9KLZGHE9DTA","2022-05-18T15:20:39.862Z","task_switching-rhyme-same_different-phon_sim","","null","task_switching","null","training","<div style=""color:darkgreen; font-size:60px"">Well done!</div>","colorcue_switch","","","","","","","","","","","","","","","","","","","","","","","","","","","","","","","","",""
"","","","","","instructions","233","426623","0.0-233.0","A1F9KLZGHE9DTA","2022-05-18T15:20:39.862Z","task_switching-rhyme-same_different-phon_sim","[{""page_index"":0,""viewing_time"":1564.199999988079}]","1564.4000000357628","task_switching","","","","","","","","","","","","","","","","","","","","","","","","","","","","","","","","","","","","",""
"","","","","","survey-text","234","428171","0.0-234.0","A1F9KLZGHE9DTA","2022-05-18T15:20:39.862Z","task_switching-rhyme-same_different-phon_sim","","1546.1000000238419","task_switching","{""colorcue_switch_ans"":""70""}","experiment","67","colorcue_switch","70","true","add","0","","red","","","","","","","","","","","","","","","","","","","","","","","","","","",""
"","","","","","survey-text","235","429669","0.0-235.0","A1F9KLZGHE9DTA","2022-05-18T15:20:39.862Z","task_switching-rhyme-same_different-phon_sim","","1495.800000011921","task_switching","{""colorcue_switch_ans"":""20""}","experiment","23","colorcue_switch","20","true","subtract","1","","blue","","","","","","","","","","","","","","","","","","","","","","","","","","",""
"","","","","","survey-text","236","431201","0.0-236.0","A1F9KLZGHE9DTA","2022-05-18T15:20:39.862Z","task_switching-rhyme-same_different-phon_sim","","1529.5999999642372","task_switching","{""colorcue_switch_ans"":""95""}","experiment","92","colorcue_switch","95","true","add","2","","red","","","","","","","","","","","","","","","","","","","","","","","","","","",""
"","","","","","survey-text","237","432669","0.0-237.0","A1F9KLZGHE9DTA","2022-05-18T15:20:39.862Z","task_switching-rhyme-same_different-phon_sim","","1465.7000000476837","task_switching","{""colorcue_switch_ans"":""33""}","experiment","36","colorcue_switch","33","true","subtract","3","","blue","","","","","","","","","","","","","","","","","","","","","","","","","","",""
"","","","","","survey-text","238","434553","0.0-238.0","A1F9KLZGHE9DTA","2022-05-18T15:20:39.862Z","task_switching-rhyme-same_different-phon_sim","","1881.800000011921","task_switching","{""colorcue_switch_ans"":""27""}","experiment","24","colorcue_switch","27","true","add","4","","red","","","","","","","","","","","","","","","","","","","","","","","","","","",""
"","","","","","survey-text","239","436169","0.0-239.0","A1F9KLZGHE9DTA","2022-05-18T15:20:39.862Z","task_switching-rhyme-same_different-phon_sim","","1613.4000000357628","task_switching","{""colorcue_switch_ans"":""17""}","experiment","20","colorcue_switch","17","true","subtract","5","","blue","","","","","","","","","","","","","","","","","","","","","","","","","","",""
"","","","","","survey-text","240","440419","0.0-240.0","A1F9KLZGHE9DTA","2022-05-18T15:20:39.862Z","task_switching-rhyme-same_different-phon_sim","","4247.700000047684","task_switching","{""colorcue_switch_ans"":""62""}","experiment","59","colorcue_switch","62","true","add","6","","red","","","","","","","","","","","","","","","","","","","","","","","","","","",""
"","","","","","survey-text","241","442051","0.0-241.0","A1F9KLZGHE9DTA","2022-05-18T15:20:39.862Z","task_switching-rhyme-same_different-phon_sim","","1629.800000011921","task_switching","{""colorcue_switch_ans"":""86""}","experiment","89","colorcue_switch","86","true","subtract","7","","blue","","","","","","","","","","","","","","","","","","","","","","","","","","",""
"","","","","","survey-text","242","443489","0.0-242.0","A1F9KLZGHE9DTA","2022-05-18T15:20:39.862Z","task_switching-rhyme-same_different-phon_sim","","1435.6000000238419","task_switching","{""colorcue_switch_ans"":""63""}","experiment","60","colorcue_switch","63","true","add","8","","red","","","","","","","","","","","","","","","","","","","","","","","","","","",""
"","","","","","survey-text","243","445177","0.0-243.0","A1F9KLZGHE9DTA","2022-05-18T15:20:39.862Z","task_switching-rhyme-same_different-phon_sim","","1685.699999988079","task_switching","{""colorcue_switch_ans"":""29""}","experiment","32","colorcue_switch","29","true","subtract","9","","blue","","","","","","","","","","","","","","","","","","","","","","","","","","",""
"","","","","","survey-text","244","446685","0.0-244.0","A1F9KLZGHE9DTA","2022-05-18T15:20:39.862Z","task_switching-rhyme-same_different-phon_sim","","1506","task_switching","{""colorcue_switch_ans"":""82""}","experiment","79","colorcue_switch","82","true","add","10","","red","","","","","","","","","","","","","","","","","","","","","","","","","","",""
"","","","","","survey-text","245","449052","0.0-245.0","A1F9KLZGHE9DTA","2022-05-18T15:20:39.862Z","task_switching-rhyme-same_different-phon_sim","","2364.5","task_switching","{""colorcue_switch_ans"":""88""}","experiment","91","colorcue_switch","88","true","subtract","11","","blue","","","","","","","","","","","","","","","","","","","","","","","","","","",""
"","","","","","survey-text","246","451045","0.0-246.0","A1F9KLZGHE9DTA","2022-05-18T15:20:39.862Z","task_switching-rhyme-same_different-phon_sim","","1991.2000000476837","task_switching","{""colorcue_switch_ans"":""88""}","experiment","85","colorcue_switch","88","true","add","12","","red","","","","","","","","","","","","","","","","","","","","","","","","","","",""
"","","","","","survey-text","247","452514","0.0-247.0","A1F9KLZGHE9DTA","2022-05-18T15:20:39.862Z","task_switching-rhyme-same_different-phon_sim","","1465.6000000238419","task_switching","{""colorcue_switch_ans"":""90""}","experiment","93","colorcue_switch","90","true","subtract","13","","blue","","","","","","","","","","","","","","","","","","","","","","","","","","",""
"","","","","","survey-text","248","454153","0.0-248.0","A1F9KLZGHE9DTA","2022-05-18T15:20:39.862Z","task_switching-rhyme-same_different-phon_sim","","1637.300000011921","task_switching","{""colorcue_switch_ans"":""53""}","experiment","50","colorcue_switch","53","true","add","14","","red","","","","","","","","","","","","","","","","","","","","","","","","","","",""
"","","","","","survey-text","249","455810","0.0-249.0","A1F9KLZGHE9DTA","2022-05-18T15:20:39.862Z","task_switching-rhyme-same_different-phon_sim","","1653.800000011921","task_switching","{""colorcue_switch_ans"":""78""}","experiment","81","colorcue_switch","78","true","subtract","15","","blue","","","","","","","","","","","","","","","","","","","","","","","","","","",""
"","","","","","survey-text","250","457473","0.0-250.0","A1F9KLZGHE9DTA","2022-05-18T15:20:39.862Z","task_switching-rhyme-same_different-phon_sim","","1661.3999999761581","task_switching","{""colorcue_switch_ans"":""97""}","experiment","94","colorcue_switch","97","true","add","16","","red","","","","","","","","","","","","","","","","","","","","","","","","","","",""
"","","","","","survey-text","251","458779","0.0-251.0","A1F9KLZGHE9DTA","2022-05-18T15:20:39.862Z","task_switching-rhyme-same_different-phon_sim","","1303.800000011921","task_switching","{""colorcue_switch_ans"":""22""}","experiment","25","colorcue_switch","22","true","subtract","17","","blue","","","","","","","","","","","","","","","","","","","","","","","","","","",""
"","","","","","survey-text","252","460076","0.0-252.0","A1F9KLZGHE9DTA","2022-05-18T15:20:39.862Z","task_switching-rhyme-same_different-phon_sim","","1292.5999999642372","task_switching","{""colorcue_switch_ans"":""33""}","experiment","30","colorcue_switch","33","true","add","18","","red","","","","","","","","","","","","","","","","","","","","","","","","","","",""
"","","","","","survey-text","253","462239","0.0-253.0","A1F9KLZGHE9DTA","2022-05-18T15:20:39.862Z","task_switching-rhyme-same_different-phon_sim","","2161.600000023842","task_switching","{""colorcue_switch_ans"":""62""}","experiment","65","colorcue_switch","62","true","subtract","19","","blue","","","","","","","","","","","","","","","","","","","","","","","","","","",""
"","","","","","survey-text","254","463661","0.0-254.0","A1F9KLZGHE9DTA","2022-05-18T15:20:39.862Z","task_switching-rhyme-same_different-phon_sim","","1420","task_switching","{""colorcue_switch_ans"":""86""}","experiment","83","colorcue_switch","86","true","add","20","","red","","","","","","","","","","","","","","","","","","","","","","","","","","",""
"","","","","","survey-text","255","465113","0.0-255.0","A1F9KLZGHE9DTA","2022-05-18T15:20:39.862Z","task_switching-rhyme-same_different-phon_sim","","1449.699999988079","task_switching","{""colorcue_switch_ans"":""23""}","experiment","26","colorcue_switch","23","true","subtract","21","","blue","","","","","","","","","","","","","","","","","","","","","","","","","","",""
"","","","","","survey-text","256","466764","0.0-256.0","A1F9KLZGHE9DTA","2022-05-18T15:20:39.862Z","task_switching-rhyme-same_different-phon_sim","","1647.699999988079","task_switching","{""colorcue_switch_ans"":""59""}","experiment","56","colorcue_switch","59","true","add","22","","red","","","","","","","","","","","","","","","","","","","","","","","","","","",""
"","","","","","survey-text","257","468240","0.0-257.0","A1F9KLZGHE9DTA","2022-05-18T15:20:39.862Z","task_switching-rhyme-same_different-phon_sim","","1473.7999999523163","task_switching","{""colorcue_switch_ans"":""43""}","experiment","46","colorcue_switch","43","true","subtract","23","","blue","","","","","","","","","","","","","","","","","","","","","","","","","","",""
"","","","","","survey-text","258","469943","0.0-258.0","A1F9KLZGHE9DTA","2022-05-18T15:20:39.862Z","task_switching-rhyme-same_different-phon_sim","","1700.5999999642372","task_switching","{""colorcue_switch_ans"":""16""}","experiment","13","colorcue_switch","16","true","add","24","","red","","","","","","","","","","","","","","","","","","","","","","","","","","",""
"","","","","","survey-text","259","471863","0.0-259.0","A1F9KLZGHE9DTA","2022-05-18T15:20:39.862Z","task_switching-rhyme-same_different-phon_sim","","1917.8999999761581","task_switching","{""colorcue_switch_ans"":""49""}","experiment","52","colorcue_switch","49","true","subtract","25","","blue","","","","","","","","","","","","","","","","","","","","","","","","","","",""
"","","","","","survey-text","260","473489","0.0-260.0","A1F9KLZGHE9DTA","2022-05-18T15:20:39.862Z","task_switching-rhyme-same_different-phon_sim","","1623.699999988079","task_switching","{""colorcue_switch_ans"":""90""}","experiment","87","colorcue_switch","90","true","add","26","","red","","","","","","","","","","","","","","","","","","","","","","","","","","",""
"","","","","","survey-text","261","475035","0.0-261.0","A1F9KLZGHE9DTA","2022-05-18T15:20:39.862Z","task_switching-rhyme-same_different-phon_sim","","1544","task_switching","{""colorcue_switch_ans"":""50""}","experiment","53","colorcue_switch","50","true","subtract","27","","blue","","","","","","","","","","","","","","","","","","","","","","","","","","",""
"","","","","","survey-text","262","476326","0.0-262.0","A1F9KLZGHE9DTA","2022-05-18T15:20:39.862Z","task_switching-rhyme-same_different-phon_sim","","1288.1000000238419","task_switching","{""colorcue_switch_ans"":""66""}","experiment","63","colorcue_switch","66","true","add","28","","red","","","","","","","","","","","","","","","","","","","","","","","","","","",""
"","","","","","survey-text","263","478004","0.0-263.0","A1F9KLZGHE9DTA","2022-05-18T15:20:39.862Z","task_switching-rhyme-same_different-phon_sim","","1677","task_switching","{""colorcue_switch_ans"":""59""}","experiment","62","colorcue_switch","59","true","subtract","29","","blue","","","","","","","","","","","","","","","","","","","","","","","","","","",""
"","","","","","survey-multi-choice","264","481576","0.0-264.0","A1F9KLZGHE9DTA","2022-05-18T15:20:39.862Z","task_switching-rhyme-same_different-phon_sim","","3569.699999988079","task_switching","{""Q0"":""Yes""}","","","","","","","","","","[0]","Yes","","","","","","","","","","","","","","","","","","","","","","","","",""
"","","","","","survey-text","265","498782","0.0-265.0","A1F9KLZGHE9DTA","2022-05-18T15:20:39.862Z","task_switching-rhyme-same_different-phon_sim","","17203","task_switching","{""Q0"":""Just intent focus and speaking the rules""}","","","","","","","","","","","","Just intent focus and speaking the rules","","","","","","","","","","","","","","","","","","","","","","","",""
"","","","","","instructions","266","500004","0.0-266.0","A1F9KLZGHE9DTA","2022-05-18T15:20:39.862Z","task_switching-rhyme-same_different-phon_sim","[{""page_index"":0,""viewing_time"":1221.1000000238419}]","1221.300000011921","task_switching","","","","","","","","","","","","","","","","","","","","","","","","","","","","","","","","","","","","",""
"","","","","","instructions","267","589589","0.0-267.0","A1F9KLZGHE9DTA","2022-05-18T15:20:39.862Z","task_switching-rhyme-same_different-phon_sim","[{""page_index"":0,""viewing_time"":89584.20000004768}]","89584.5","rhyme","","","","","","","","","","","","","","","","","","","","","","","","","","","","","","","","","","","","",""
"","","","","","html-keyboard-response","268","589841","0.0-268.0-0.0","A1F9KLZGHE9DTA","2022-05-18T15:20:39.862Z","task_switching-rhyme-same_different-phon_sim","","null","rhyme","null","","<div style=""font-size:60px;"">+</div>","","","","","","","","","","","250","","","","","","","","","","","","","","","","","","","","","","",""
"","","","","","html-keyboard-response","269","590357","0.0-268.0-1.0","A1F9KLZGHE9DTA","2022-05-18T15:20:39.862Z","task_switching-rhyme-same_different-phon_sim","","null","rhyme","null","","<img src=""square.png"" width=""306"" height=""306"" style=""position: fixed;left:14%;top:30%""><img src=""square.png"" width=""306"" height=""306"" style=""position: fixed;left:64%;top:30%"">","","","","","","","","","","","","","","","","","","","","","","","","","","","","","","","","","",""
