"success","timeout","failed_images","failed_audio","failed_video","trial_type","trial_index","time_elapsed","internal_node_id","worker_id","start_time","experiment_order","view_history","rt","experiment","response","phase","stimulus","condition","answer","correct","operation","color_cue","trial_no","symbol_cue","question_order","talk_out_loud","strategy_free_ans","word_1","word_2","word_3","word_4","word_5","original_word_set","response_1","response_2","response_3","response_4","response_5","judgment_type","stim_1","stim_2","inverted","true_pos","true_neg","false_neg","false_pos"
"true","false","[]","[]","[]","preload","0","3051","0.0-0.0","A1O4Q0QVPVBF8M","2022-05-19T02:22:38.920Z","task_switching-phon_sim-same_different-rhyme","","","","","","","","","","","","","","","","","","","","","","","","","","","","","","","","","","",""
"","","","","","instructions","1","18944","0.0-1.0","A1O4Q0QVPVBF8M","2022-05-19T02:22:38.920Z","task_switching-phon_sim-same_different-rhyme","[{""page_index"":0,""viewing_time"":15892.300000011921}]","15892.5","","","","","","","","","","","","","","","","","","","","","","","","","","","","","","","","",""
"true","","","","","fullscreen","2","21954","0.0-2.0","A1O4Q0QVPVBF8M","2022-05-19T02:22:38.920Z","task_switching-phon_sim-same_different-rhyme","","","","","","","","","","","","","","","","","","","","","","","","","","","","","","","","","","",""
"","","","","","instructions","3","34244","0.0-3.0","A1O4Q0QVPVBF8M","2022-05-19T02:22:38.920Z","task_switching-phon_sim-same_different-rhyme","[{""page_index"":0,""viewing_time"":12289.39999999106}]","12289.59999999404","task_switching","","","","","","","","","","","","","","","","","","","","","","","","","","","","","","","",""
"","","","","","instructions","4","40332","0.0-4.0","A1O4Q0QVPVBF8M","2022-05-19T02:22:38.920Z","task_switching-phon_sim-same_different-rhyme","[{""page_index"":0,""viewing_time"":6087.29999999702}]","6087.5","task_switching","","","","","","","","","","","","","","","","","","","","","","","","","","","","","","","",""
"","","","","","survey-text","5","44022","0.0-5.0","A1O4Q0QVPVBF8M","2022-05-19T02:22:38.920Z","task_switching-phon_sim-same_different-rhyme","","3684.5","task_switching","{""subtraction_ans"":""91""}","training","94","subtraction","91","true","subtract","","","","","","","","","","","","","","","","","","","","","","","","",""
"","","","","","html-keyboard-response","6","45025","0.0-6.0","A1O4Q0QVPVBF8M","2022-05-19T02:22:38.920Z","task_switching-phon_sim-same_different-rhyme","","null","task_switching","null","training","<div style=""color:darkgreen; font-size:60px"">Well done!</div>","subtraction","","","","","","","","","","","","","","","","","","","","","","","","","","","",""
"","","","","","survey-text","7","47585","0.0-7.0","A1O4Q0QVPVBF8M","2022-05-19T02:22:38.920Z","task_switching-phon_sim-same_different-rhyme","","2556.7000000029802","task_switching","{""subtraction_ans"":""40""}","training","43","subtraction","40","true","subtract","","","","","","","","","","","","","","","","","","","","","","","","",""
"","","","","","html-keyboard-response","8","48601","0.0-8.0","A1O4Q0QVPVBF8M","2022-05-19T02:22:38.920Z","task_switching-phon_sim-same_different-rhyme","","null","task_switching","null","training","<div style=""color:darkgreen; font-size:60px"">Well done!</div>","subtraction","","","","","","","","","","","","","","","","","","","","","","","","","","","",""
"","","","","","survey-text","9","50749","0.0-9.0","A1O4Q0QVPVBF8M","2022-05-19T02:22:38.920Z","task_switching-phon_sim-same_different-rhyme","","2145.8999999910593","task_switching","{""subtraction_ans"":""55""}","training","58","subtraction","55","true","subtract","","","","","","","","","","","","","","","","","","","","","","","","",""
"","","","","","html-keyboard-response","10","51765","0.0-10.0","A1O4Q0QVPVBF8M","2022-05-19T02:22:38.920Z","task_switching-phon_sim-same_different-rhyme","","null","task_switching","null","training","<div style=""color:darkgreen; font-size:60px"">Well done!</div>","subtraction","","","","","","","","","","","","","","","","","","","","","","","","","","","",""
"","","","","","survey-text","11","54581","0.0-11.0","A1O4Q0QVPVBF8M","2022-05-19T02:22:38.920Z","task_switching-phon_sim-same_different-rhyme","","2814.2000000029802","task_switching","{""subtraction_ans"":""93""}","training","96","subtraction","93","true","subtract","","","","","","","","","","","","","","","","","","","","","","","","",""
"","","","","","html-keyboard-response","12","55588","0.0-12.0","A1O4Q0QVPVBF8M","2022-05-19T02:22:38.920Z","task_switching-phon_sim-same_different-rhyme","","null","task_switching","null","training","<div style=""color:darkgreen; font-size:60px"">Well done!</div>","subtraction","","","","","","","","","","","","","","","","","","","","","","","","","","","",""
"","","","","","survey-text","13","58483","0.0-13.0","A1O4Q0QVPVBF8M","2022-05-19T02:22:38.920Z","task_switching-phon_sim-same_different-rhyme","","2891.2000000029802","task_switching","{""subtraction_ans"":""45""}","training","48","subtraction","45","true","subtract","","","","","","","","","","","","","","","","","","","","","","","","",""
"","","","","","html-keyboard-response","14","59484","0.0-14.0","A1O4Q0QVPVBF8M","2022-05-19T02:22:38.920Z","task_switching-phon_sim-same_different-rhyme","","null","task_switching","null","training","<div style=""color:darkgreen; font-size:60px"">Well done!</div>","subtraction","","","","","","","","","","","","","","","","","","","","","","","","","","","",""
"","","","","","survey-text","15","61778","0.0-15.0","A1O4Q0QVPVBF8M","2022-05-19T02:22:38.920Z","task_switching-phon_sim-same_different-rhyme","","2292.7000000029802","task_switching","{""subtraction_ans"":""15""}","training","18","subtraction","15","true","subtract","","","","","","","","","","","","","","","","","","","","","","","","",""
"","","","","","html-keyboard-response","16","62779","0.0-16.0","A1O4Q0QVPVBF8M","2022-05-19T02:22:38.920Z","task_switching-phon_sim-same_different-rhyme","","null","task_switching","null","training","<div style=""color:darkgreen; font-size:60px"">Well done!</div>","subtraction","","","","","","","","","","","","","","","","","","","","","","","","","","","",""
"","","","","","survey-text","17","65333","0.0-17.0","A1O4Q0QVPVBF8M","2022-05-19T02:22:38.920Z","task_switching-phon_sim-same_different-rhyme","","2552","task_switching","{""subtraction_ans"":""90""}","training","93","subtraction","90","true","subtract","","","","","","","","","","","","","","","","","","","","","","","","",""
"","","","","","html-keyboard-response","18","66334","0.0-18.0","A1O4Q0QVPVBF8M","2022-05-19T02:22:38.920Z","task_switching-phon_sim-same_different-rhyme","","null","task_switching","null","training","<div style=""color:darkgreen; font-size:60px"">Well done!</div>","subtraction","","","","","","","","","","","","","","","","","","","","","","","","","","","",""
"","","","","","survey-text","19","68819","0.0-19.0","A1O4Q0QVPVBF8M","2022-05-19T02:22:38.920Z","task_switching-phon_sim-same_different-rhyme","","2483","task_switching","{""subtraction_ans"":""25""}","training","28","subtraction","25","true","subtract","","","","","","","","","","","","","","","","","","","","","","","","",""
"","","","","","html-keyboard-response","20","69821","0.0-20.0","A1O4Q0QVPVBF8M","2022-05-19T02:22:38.920Z","task_switching-phon_sim-same_different-rhyme","","null","task_switching","null","training","<div style=""color:darkgreen; font-size:60px"">Well done!</div>","subtraction","","","","","","","","","","","","","","","","","","","","","","","","","","","",""
"","","","","","survey-text","21","72533","0.0-21.0","A1O4Q0QVPVBF8M","2022-05-19T02:22:38.920Z","task_switching-phon_sim-same_different-rhyme","","2710.7000000029802","task_switching","{""subtraction_ans"":""53""}","training","56","subtraction","53","true","subtract","","","","","","","","","","","","","","","","","","","","","","","","",""
"","","","","","html-keyboard-response","22","73541","0.0-22.0","A1O4Q0QVPVBF8M","2022-05-19T02:22:38.920Z","task_switching-phon_sim-same_different-rhyme","","null","task_switching","null","training","<div style=""color:darkgreen; font-size:60px"">Well done!</div>","subtraction","","","","","","","","","","","","","","","","","","","","","","","","","","","",""
"","","","","","survey-text","23","76725","0.0-23.0","A1O4Q0QVPVBF8M","2022-05-19T02:22:38.920Z","task_switching-phon_sim-same_different-rhyme","","3182.1000000089407","task_switching","{""subtraction_ans"":""73""}","training","76","subtraction","73","true","subtract","","","","","","","","","","","","","","","","","","","","","","","","",""
"","","","","","html-keyboard-response","24","77726","0.0-24.0","A1O4Q0QVPVBF8M","2022-05-19T02:22:38.920Z","task_switching-phon_sim-same_different-rhyme","","null","task_switching","null","training","<div style=""color:darkgreen; font-size:60px"">Well done!</div>","subtraction","","","","","","","","","","","","","","","","","","","","","","","","","","","",""
"","","","","","instructions","25","79311","0.0-25.0","A1O4Q0QVPVBF8M","2022-05-19T02:22:38.920Z","task_switching-phon_sim-same_different-rhyme","[{""page_index"":0,""viewing_time"":1583.9000000059605}]","1584","task_switching","","","","","","","","","","","","","","","","","","","","","","","","","","","","","","","",""
"","","","","","survey-text","26","82498","0.0-26.0","A1O4Q0QVPVBF8M","2022-05-19T02:22:38.920Z","task_switching-phon_sim-same_different-rhyme","","3186.2999999970198","task_switching","{""subtraction_ans"":""47""}","experiment","50","subtraction","47","true","subtract","","","","","","","","","","","","","","","","","","","","","","","","",""
"","","","","","survey-text","27","84645","0.0-27.0","A1O4Q0QVPVBF8M","2022-05-19T02:22:38.920Z","task_switching-phon_sim-same_different-rhyme","","2145.0999999940395","task_switching","{""subtraction_ans"":""80""}","experiment","83","subtraction","80","true","subtract","","","","","","","","","","","","","","","","","","","","","","","","",""
"","","","","","survey-text","28","87327","0.0-28.0","A1O4Q0QVPVBF8M","2022-05-19T02:22:38.920Z","task_switching-phon_sim-same_different-rhyme","","2680.5999999940395","task_switching","{""subtraction_ans"":""39""}","experiment","42","subtraction","39","true","subtract","","","","","","","","","","","","","","","","","","","","","","","","",""
"","","","","","survey-text","29","89996","0.0-29.0","A1O4Q0QVPVBF8M","2022-05-19T02:22:38.920Z","task_switching-phon_sim-same_different-rhyme","","2668.2000000029802","task_switching","{""subtraction_ans"":""48""}","experiment","51","subtraction","48","true","subtract","","","","","","","","","","","","","","","","","","","","","","","","",""
"","","","","","survey-text","30","92081","0.0-30.0","A1O4Q0QVPVBF8M","2022-05-19T02:22:38.920Z","task_switching-phon_sim-same_different-rhyme","","2083.2000000029802","task_switching","{""subtraction_ans"":""20""}","experiment","23","subtraction","20","true","subtract","","","","","","","","","","","","","","","","","","","","","","","","",""
"","","","","","survey-text","31","94665","0.0-31.0","A1O4Q0QVPVBF8M","2022-05-19T02:22:38.920Z","task_switching-phon_sim-same_different-rhyme","","2582.2999999970198","task_switching","{""subtraction_ans"":""24""}","experiment","27","subtraction","24","true","subtract","","","","","","","","","","","","","","","","","","","","","","","","",""
"","","","","","survey-text","32","99375","0.0-32.0","A1O4Q0QVPVBF8M","2022-05-19T02:22:38.920Z","task_switching-phon_sim-same_different-rhyme","","4708.600000008941","task_switching","{""subtraction_ans"":""94""}","experiment","97","subtraction","94","true","subtract","","","","","","","","","","","","","","","","","","","","","","","","",""
"","","","","","survey-text","33","101506","0.0-33.0","A1O4Q0QVPVBF8M","2022-05-19T02:22:38.920Z","task_switching-phon_sim-same_different-rhyme","","2130.3999999910593","task_switching","{""subtraction_ans"":""15""}","experiment","18","subtraction","15","true","subtract","","","","","","","","","","","","","","","","","","","","","","","","",""
"","","","","","survey-text","34","104019","0.0-34.0","A1O4Q0QVPVBF8M","2022-05-19T02:22:38.920Z","task_switching-phon_sim-same_different-rhyme","","2511.0999999940395","task_switching","{""subtraction_ans"":""53""}","experiment","56","subtraction","53","true","subtract","","","","","","","","","","","","","","","","","","","","","","","","",""
"","","","","","survey-text","35","106229","0.0-35.0","A1O4Q0QVPVBF8M","2022-05-19T02:22:38.920Z","task_switching-phon_sim-same_different-rhyme","","2208.7999999970198","task_switching","{""subtraction_ans"":""46""}","experiment","49","subtraction","46","true","subtract","","","","","","","","","","","","","","","","","","","","","","","","",""
"","","","","","survey-text","36","108254","0.0-36.0","A1O4Q0QVPVBF8M","2022-05-19T02:22:38.920Z","task_switching-phon_sim-same_different-rhyme","","2024.2000000029802","task_switching","{""subtraction_ans"":""40""}","experiment","43","subtraction","40","true","subtract","","","","","","","","","","","","","","","","","","","","","","","","",""
"","","","","","survey-text","37","111211","0.0-37.0","A1O4Q0QVPVBF8M","2022-05-19T02:22:38.920Z","task_switching-phon_sim-same_different-rhyme","","2955.4000000059605","task_switching","{""subtraction_ans"":""30""}","experiment","33","subtraction","30","true","subtract","","","","","","","","","","","","","","","","","","","","","","","","",""
"","","","","","survey-text","38","113425","0.0-38.0","A1O4Q0QVPVBF8M","2022-05-19T02:22:38.920Z","task_switching-phon_sim-same_different-rhyme","","2212.5","task_switching","{""subtraction_ans"":""92""}","experiment","95","subtraction","92","true","subtract","","","","","","","","","","","","","","","","","","","","","","","","",""
"","","","","","survey-text","39","116497","0.0-39.0","A1O4Q0QVPVBF8M","2022-05-19T02:22:38.920Z","task_switching-phon_sim-same_different-rhyme","","3070.5","task_switching","{""subtraction_ans"":""87""}","experiment","90","subtraction","87","true","subtract","","","","","","","","","","","","","","","","","","","","","","","","",""
"","","","","","survey-text","40","119923","0.0-40.0","A1O4Q0QVPVBF8M","2022-05-19T02:22:38.920Z","task_switching-phon_sim-same_different-rhyme","","3424.5","task_switching","{""subtraction_ans"":""23""}","experiment","26","subtraction","23","true","subtract","","","","","","","","","","","","","","","","","","","","","","","","",""
"","","","","","survey-text","41","121893","0.0-41.0","A1O4Q0QVPVBF8M","2022-05-19T02:22:38.920Z","task_switching-phon_sim-same_different-rhyme","","1968.5999999940395","task_switching","{""subtraction_ans"":""44""}","experiment","47","subtraction","44","true","subtract","","","","","","","","","","","","","","","","","","","","","","","","",""
"","","","","","survey-text","42","124169","0.0-42.0","A1O4Q0QVPVBF8M","2022-05-19T02:22:38.920Z","task_switching-phon_sim-same_different-rhyme","","2274.300000011921","task_switching","{""subtraction_ans"":""96""}","experiment","99","subtraction","96","true","subtract","","","","","","","","","","","","","","","","","","","","","","","","",""
"","","","","","survey-text","43","126953","0.0-43.0","A1O4Q0QVPVBF8M","2022-05-19T02:22:38.920Z","task_switching-phon_sim-same_different-rhyme","","2783.2999999970198","task_switching","{""subtraction_ans"":""76""}","experiment","79","subtraction","76","true","subtract","","","","","","","","","","","","","","","","","","","","","","","","",""
"","","","","","survey-text","44","129125","0.0-44.0","A1O4Q0QVPVBF8M","2022-05-19T02:22:38.920Z","task_switching-phon_sim-same_different-rhyme","","2170.4000000059605","task_switching","{""subtraction_ans"":""54""}","experiment","57","subtraction","54","true","subtract","","","","","","","","","","","","","","","","","","","","","","","","",""
"","","","","","survey-text","45","131037","0.0-45.0","A1O4Q0QVPVBF8M","2022-05-19T02:22:38.920Z","task_switching-phon_sim-same_different-rhyme","","1910.4000000059605","task_switching","{""subtraction_ans"":""11""}","experiment","14","subtraction","11","true","subtract","","","","","","","","","","","","","","","","","","","","","","","","",""
"","","","","","survey-text","46","133799","0.0-46.0","A1O4Q0QVPVBF8M","2022-05-19T02:22:38.920Z","task_switching-phon_sim-same_different-rhyme","","2760.5999999940395","task_switching","{""subtraction_ans"":""91""}","experiment","94","subtraction","91","true","subtract","","","","","","","","","","","","","","","","","","","","","","","","",""
"","","","","","survey-text","47","135947","0.0-47.0","A1O4Q0QVPVBF8M","2022-05-19T02:22:38.920Z","task_switching-phon_sim-same_different-rhyme","","2146.5","task_switching","{""subtraction_ans"":""75""}","experiment","78","subtraction","75","true","subtract","","","","","","","","","","","","","","","","","","","","","","","","",""
"","","","","","survey-text","48","139395","0.0-48.0","A1O4Q0QVPVBF8M","2022-05-19T02:22:38.920Z","task_switching-phon_sim-same_different-rhyme","","3446.7000000029802","task_switching","{""subtraction_ans"":""28""}","experiment","31","subtraction","28","true","subtract","","","","","","","","","","","","","","","","","","","","","","","","",""
"","","","","","survey-text","49","143041","0.0-49.0","A1O4Q0QVPVBF8M","2022-05-19T02:22:38.920Z","task_switching-phon_sim-same_different-rhyme","","3644","task_switching","{""subtraction_ans"":""88""}","experiment","91","subtraction","88","true","subtract","","","","","","","","","","","","","","","","","","","","","","","","",""
"","","","","","survey-text","50","146017","0.0-50.0","A1O4Q0QVPVBF8M","2022-05-19T02:22:38.920Z","task_switching-phon_sim-same_different-rhyme","","2974.3999999910593","task_switching","{""subtraction_ans"":""59""}","experiment","62","subtraction","59","true","subtract","","","","","","","","","","","","","","","","","","","","","","","","",""
"","","","","","survey-text","51","148129","0.0-51.0","A1O4Q0QVPVBF8M","2022-05-19T02:22:38.920Z","task_switching-phon_sim-same_different-rhyme","","2110.2999999970198","task_switching","{""subtraction_ans"":""19""}","experiment","22","subtraction","19","true","subtract","","","","","","","","","","","","","","","","","","","","","","","","",""
"","","","","","survey-text","52","150069","0.0-52.0","A1O4Q0QVPVBF8M","2022-05-19T02:22:38.920Z","task_switching-phon_sim-same_different-rhyme","","1938.1000000089407","task_switching","{""subtraction_ans"":""25""}","experiment","28","subtraction","25","true","subtract","","","","","","","","","","","","","","","","","","","","","","","","",""
"","","","","","survey-text","53","152013","0.0-53.0","A1O4Q0QVPVBF8M","2022-05-19T02:22:38.920Z","task_switching-phon_sim-same_different-rhyme","","1943.1000000089407","task_switching","{""subtraction_ans"":""16""}","experiment","19","subtraction","16","true","subtract","","","","","","","","","","","","","","","","","","","","","","","","",""
"","","","","","survey-text","54","154474","0.0-54.0","A1O4Q0QVPVBF8M","2022-05-19T02:22:38.920Z","task_switching-phon_sim-same_different-rhyme","","2459.5999999940395","task_switching","{""subtraction_ans"":""45""}","experiment","48","subtraction","45","true","subtract","","","","","","","","","","","","","","","","","","","","","","","","",""
"","","","","","survey-text","55","156561","0.0-55.0","A1O4Q0QVPVBF8M","2022-05-19T02:22:38.920Z","task_switching-phon_sim-same_different-rhyme","","2086","task_switching","{""subtraction_ans"":""31""}","experiment","34","subtraction","31","true","subtract","","","","","","","","","","","","","","","","","","","","","","","","",""
"","","","","","instructions","56","158639","0.0-56.0","A1O4Q0QVPVBF8M","2022-05-19T02:22:38.920Z","task_switching-phon_sim-same_different-rhyme","[{""page_index"":0,""viewing_time"":2076.7000000029802}]","2077","task_switching","","","","","","","","","","","","","","","","","","","","","","","","","","","","","","","",""
"","","","","","survey-text","57","161696","0.0-57.0","A1O4Q0QVPVBF8M","2022-05-19T02:22:38.920Z","task_switching-phon_sim-same_different-rhyme","","3055.4000000059605","task_switching","{""addition_ans"":""58""}","training","55","addition","58","true","add","","","","","","","","","","","","","","","","","","","","","","","","",""
"","","","","","html-keyboard-response","58","162711","0.0-58.0","A1O4Q0QVPVBF8M","2022-05-19T02:22:38.920Z","task_switching-phon_sim-same_different-rhyme","","null","task_switching","null","training","<div style=""color:darkgreen; font-size:60px"">Well done!</div>","addition","","","","","","","","","","","","","","","","","","","","","","","","","","","",""
"","","","","","survey-text","59","165019","0.0-59.0","A1O4Q0QVPVBF8M","2022-05-19T02:22:38.920Z","task_switching-phon_sim-same_different-rhyme","","2304.7000000029802","task_switching","{""addition_ans"":""64""}","training","67","addition","64","false","add","","","","","","","","","","","","","","","","","","","","","","","","",""
"","","","","","html-keyboard-response","60","170020","0.0-60.0","A1O4Q0QVPVBF8M","2022-05-19T02:22:38.920Z","task_switching-phon_sim-same_different-rhyme","","null","task_switching","null","training","<div style=""color:darkred; font-size:40px"">Remember to <b>add</b> 3.<p> Correct answer: 70</p></div>","addition","","","","","","","","","","","","","","","","","","","","","","","","","","","",""
"","","","","","survey-text","61","175227","0.0-61.0","A1O4Q0QVPVBF8M","2022-05-19T02:22:38.920Z","task_switching-phon_sim-same_different-rhyme","","5203.29999999702","task_switching","{""addition_ans"":""66""}","training","63","addition","66","true","add","","","","","","","","","","","","","","","","","","","","","","","","",""
"","","","","","html-keyboard-response","62","176240","0.0-62.0","A1O4Q0QVPVBF8M","2022-05-19T02:22:38.920Z","task_switching-phon_sim-same_different-rhyme","","null","task_switching","null","training","<div style=""color:darkgreen; font-size:60px"">Well done!</div>","addition","","","","","","","","","","","","","","","","","","","","","","","","","","","",""
"","","","","","survey-text","63","178697","0.0-63.0","A1O4Q0QVPVBF8M","2022-05-19T02:22:38.920Z","task_switching-phon_sim-same_different-rhyme","","2452.5999999940395","task_switching","{""addition_ans"":""24""}","training","21","addition","24","true","add","","","","","","","","","","","","","","","","","","","","","","","","",""
"","","","","","html-keyboard-response","64","179705","0.0-64.0","A1O4Q0QVPVBF8M","2022-05-19T02:22:38.920Z","task_switching-phon_sim-same_different-rhyme","","null","task_switching","null","training","<div style=""color:darkgreen; font-size:60px"">Well done!</div>","addition","","","","","","","","","","","","","","","","","","","","","","","","","","","",""
"","","","","","survey-text","65","183687","0.0-65.0","A1O4Q0QVPVBF8M","2022-05-19T02:22:38.920Z","task_switching-phon_sim-same_different-rhyme","","3979.6000000089407","task_switching","{""addition_ans"":""34""}","training","31","addition","34","true","add","","","","","","","","","","","","","","","","","","","","","","","","",""
"","","","","","html-keyboard-response","66","184704","0.0-66.0","A1O4Q0QVPVBF8M","2022-05-19T02:22:38.920Z","task_switching-phon_sim-same_different-rhyme","","null","task_switching","null","training","<div style=""color:darkgreen; font-size:60px"">Well done!</div>","addition","","","","","","","","","","","","","","","","","","","","","","","","","","","",""
"","","","","","survey-text","67","187635","0.0-67.0","A1O4Q0QVPVBF8M","2022-05-19T02:22:38.920Z","task_switching-phon_sim-same_different-rhyme","","2927.5","task_switching","{""addition_ans"":""86""}","training","83","addition","86","true","add","","","","","","","","","","","","","","","","","","","","","","","","",""
"","","","","","html-keyboard-response","68","188650","0.0-68.0","A1O4Q0QVPVBF8M","2022-05-19T02:22:38.920Z","task_switching-phon_sim-same_different-rhyme","","null","task_switching","null","training","<div style=""color:darkgreen; font-size:60px"">Well done!</div>","addition","","","","","","","","","","","","","","","","","","","","","","","","","","","",""
"","","","","","survey-text","69","191099","0.0-69.0","A1O4Q0QVPVBF8M","2022-05-19T02:22:38.920Z","task_switching-phon_sim-same_different-rhyme","","2445.2000000029802","task_switching","{""addition_ans"":""39""}","training","36","addition","39","true","add","","","","","","","","","","","","","","","","","","","","","","","","",""
"","","","","","html-keyboard-response","70","192102","0.0-70.0","A1O4Q0QVPVBF8M","2022-05-19T02:22:38.920Z","task_switching-phon_sim-same_different-rhyme","","null","task_switching","null","training","<div style=""color:darkgreen; font-size:60px"">Well done!</div>","addition","","","","","","","","","","","","","","","","","","","","","","","","","","","",""
"","","","","","survey-text","71","194203","0.0-71.0","A1O4Q0QVPVBF8M","2022-05-19T02:22:38.920Z","task_switching-phon_sim-same_different-rhyme","","2097.7999999970198","task_switching","{""addition_ans"":""21""}","training","18","addition","21","true","add","","","","","","","","","","","","","","","","","","","","","","","","",""
"","","","","","html-keyboard-response","72","195205","0.0-72.0","A1O4Q0QVPVBF8M","2022-05-19T02:22:38.920Z","task_switching-phon_sim-same_different-rhyme","","null","task_switching","null","training","<div style=""color:darkgreen; font-size:60px"">Well done!</div>","addition","","","","","","","","","","","","","","","","","","","","","","","","","","","",""
"","","","","","survey-text","73","198157","0.0-73.0","A1O4Q0QVPVBF8M","2022-05-19T02:22:38.920Z","task_switching-phon_sim-same_different-rhyme","","2948.7000000029802","task_switching","{""addition_ans"":""31""}","training","28","addition","31","true","add","","","","","","","","","","","","","","","","","","","","","","","","",""
"","","","","","html-keyboard-response","74","199166","0.0-74.0","A1O4Q0QVPVBF8M","2022-05-19T02:22:38.920Z","task_switching-phon_sim-same_different-rhyme","","null","task_switching","null","training","<div style=""color:darkgreen; font-size:60px"">Well done!</div>","addition","","","","","","","","","","","","","","","","","","","","","","","","","","","",""
"","","","","","survey-text","75","201152","0.0-75.0","A1O4Q0QVPVBF8M","2022-05-19T02:22:38.920Z","task_switching-phon_sim-same_different-rhyme","","1983.1000000089407","task_switching","{""addition_ans"":""54""}","training","51","addition","54","true","add","","","","","","","","","","","","","","","","","","","","","","","","",""
"","","","","","html-keyboard-response","76","202164","0.0-76.0","A1O4Q0QVPVBF8M","2022-05-19T02:22:38.920Z","task_switching-phon_sim-same_different-rhyme","","null","task_switching","null","training","<div style=""color:darkgreen; font-size:60px"">Well done!</div>","addition","","","","","","","","","","","","","","","","","","","","","","","","","","","",""
"","","","","","instructions","77","203961","0.0-77.0","A1O4Q0QVPVBF8M","2022-05-19T02:22:38.920Z","task_switching-phon_sim-same_different-rhyme","[{""page_index"":0,""viewing_time"":1796.3999999910593}]","1796.7000000029802","task_switching","","","","","","","","","","","","","","","","","","","","","","","","","","","","","","","",""
"","","","","","survey-text","78","206784","0.0-78.0","A1O4Q0QVPVBF8M","2022-05-19T02:22:38.920Z","task_switching-phon_sim-same_different-rhyme","","2821.7999999970198","task_switching","{""addition_ans"":""42""}","experiment","39","addition","42","true","add","","","","","","","","","","","","","","","","","","","","","","","","",""
"","","","","","survey-text","79","209077","0.0-79.0","A1O4Q0QVPVBF8M","2022-05-19T02:22:38.920Z","task_switching-phon_sim-same_different-rhyme","","2291.4000000059605","task_switching","{""addition_ans"":""68""}","experiment","65","addition","68","true","add","","","","","","","","","","","","","","","","","","","","","","","","",""
"","","","","","survey-text","80","211363","0.0-80.0","A1O4Q0QVPVBF8M","2022-05-19T02:22:38.920Z","task_switching-phon_sim-same_different-rhyme","","2283.9000000059605","task_switching","{""addition_ans"":""17""}","experiment","14","addition","17","true","add","","","","","","","","","","","","","","","","","","","","","","","","",""
"","","","","","survey-text","81","213315","0.0-81.0","A1O4Q0QVPVBF8M","2022-05-19T02:22:38.920Z","task_switching-phon_sim-same_different-rhyme","","1951.1000000089407","task_switching","{""addition_ans"":""63""}","experiment","60","addition","63","true","add","","","","","","","","","","","","","","","","","","","","","","","","",""
"","","","","","survey-text","82","215599","0.0-82.0","A1O4Q0QVPVBF8M","2022-05-19T02:22:38.920Z","task_switching-phon_sim-same_different-rhyme","","2282.800000011921","task_switching","{""addition_ans"":""40""}","experiment","37","addition","40","true","add","","","","","","","","","","","","","","","","","","","","","","","","",""
"","","","","","survey-text","83","217855","0.0-83.0","A1O4Q0QVPVBF8M","2022-05-19T02:22:38.920Z","task_switching-phon_sim-same_different-rhyme","","2254.2999999970198","task_switching","{""addition_ans"":""54""}","experiment","51","addition","54","true","add","","","","","","","","","","","","","","","","","","","","","","","","",""
"","","","","","survey-text","84","220689","0.0-84.0","A1O4Q0QVPVBF8M","2022-05-19T02:22:38.920Z","task_switching-phon_sim-same_different-rhyme","","2832.7000000029802","task_switching","{""addition_ans"":""14""}","experiment","11","addition","14","true","add","","","","","","","","","","","","","","","","","","","","","","","","",""
"","","","","","survey-text","85","223801","0.0-85.0","A1O4Q0QVPVBF8M","2022-05-19T02:22:38.920Z","task_switching-phon_sim-same_different-rhyme","","3110.3999999910593","task_switching","{""addition_ans"":""35""}","experiment","32","addition","35","true","add","","","","","","","","","","","","","","","","","","","","","","","","",""
"","","","","","survey-text","86","226503","0.0-86.0","A1O4Q0QVPVBF8M","2022-05-19T02:22:38.920Z","task_switching-phon_sim-same_different-rhyme","","2700.4000000059605","task_switching","{""addition_ans"":""70""}","experiment","67","addition","70","true","add","","","","","","","","","","","","","","","","","","","","","","","","",""
"","","","","","survey-text","87","230739","0.0-87.0","A1O4Q0QVPVBF8M","2022-05-19T02:22:38.920Z","task_switching-phon_sim-same_different-rhyme","","4234.5999999940395","task_switching","{""addition_ans"":""92""}","experiment","89","addition","92","true","add","","","","","","","","","","","","","","","","","","","","","","","","",""
"","","","","","survey-text","88","233399","0.0-88.0","A1O4Q0QVPVBF8M","2022-05-19T02:22:38.920Z","task_switching-phon_sim-same_different-rhyme","","2658.5999999940395","task_switching","{""addition_ans"":""90""}","experiment","87","addition","90","true","add","","","","","","","","","","","","","","","","","","","","","","","","",""
"","","","","","survey-text","89","235563","0.0-89.0","A1O4Q0QVPVBF8M","2022-05-19T02:22:38.920Z","task_switching-phon_sim-same_different-rhyme","","2162","task_switching","{""addition_ans"":""30""}","experiment","27","addition","30","true","add","","","","","","","","","","","","","","","","","","","","","","","","",""
"","","","","","survey-text","90","238449","0.0-90.0","A1O4Q0QVPVBF8M","2022-05-19T02:22:38.920Z","task_switching-phon_sim-same_different-rhyme","","2884.800000011921","task_switching","{""addition_ans"":""72""}","experiment","69","addition","72","true","add","","","","","","","","","","","","","","","","","","","","","","","","",""
"","","","","","survey-text","91","242363","0.0-91.0","A1O4Q0QVPVBF8M","2022-05-19T02:22:38.920Z","task_switching-phon_sim-same_different-rhyme","","3913","task_switching","{""addition_ans"":""65""}","experiment","62","addition","65","true","add","","","","","","","","","","","","","","","","","","","","","","","","",""
"","","","","","survey-text","92","244685","0.0-92.0","A1O4Q0QVPVBF8M","2022-05-19T02:22:38.920Z","task_switching-phon_sim-same_different-rhyme","","2320.5999999940395","task_switching","{""addition_ans"":""76""}","experiment","73","addition","76","true","add","","","","","","","","","","","","","","","","","","","","","","","","",""
"","","","","","survey-text","93","246527","0.0-93.0","A1O4Q0QVPVBF8M","2022-05-19T02:22:38.920Z","task_switching-phon_sim-same_different-rhyme","","1840.4000000059605","task_switching","{""addition_ans"":""55""}","experiment","52","addition","55","true","add","","","","","","","","","","","","","","","","","","","","","","","","",""
"","","","","","survey-text","94","248931","0.0-94.0","A1O4Q0QVPVBF8M","2022-05-19T02:22:38.920Z","task_switching-phon_sim-same_different-rhyme","","2402.3999999910593","task_switching","{""addition_ans"":""74""}","experiment","71","addition","74","true","add","","","","","","","","","","","","","","","","","","","","","","","","",""
"","","","","","survey-text","95","251433","0.0-95.0","A1O4Q0QVPVBF8M","2022-05-19T02:22:38.920Z","task_switching-phon_sim-same_different-rhyme","","2500.5","task_switching","{""addition_ans"":""96""}","experiment","93","addition","96","true","add","","","","","","","","","","","","","","","","","","","","","","","","",""
"","","","","","survey-text","96","253797","0.0-96.0","A1O4Q0QVPVBF8M","2022-05-19T02:22:38.920Z","task_switching-phon_sim-same_different-rhyme","","2362","task_switching","{""addition_ans"":""97""}","experiment","94","addition","97","true","add","","","","","","","","","","","","","","","","","","","","","","","","",""
"","","","","","survey-text","97","256619","0.0-97.0","A1O4Q0QVPVBF8M","2022-05-19T02:22:38.920Z","task_switching-phon_sim-same_different-rhyme","","2820.9000000059605","task_switching","{""addition_ans"":""57""}","experiment","54","addition","57","true","add","","","","","","","","","","","","","","","","","","","","","","","","",""
"","","","","","survey-text","98","259431","0.0-98.0","A1O4Q0QVPVBF8M","2022-05-19T02:22:38.920Z","task_switching-phon_sim-same_different-rhyme","","2810.5","task_switching","{""addition_ans"":""82""}","experiment","79","addition","82","true","add","","","","","","","","","","","","","","","","","","","","","","","","",""
"","","","","","survey-text","99","261993","0.0-99.0","A1O4Q0QVPVBF8M","2022-05-19T02:22:38.920Z","task_switching-phon_sim-same_different-rhyme","","2559.7999999970198","task_switching","{""addition_ans"":""99""}","experiment","96","addition","99","true","add","","","","","","","","","","","","","","","","","","","","","","","","",""
"","","","","","survey-text","100","264571","0.0-100.0","A1O4Q0QVPVBF8M","2022-05-19T02:22:38.920Z","task_switching-phon_sim-same_different-rhyme","","2576.9000000059605","task_switching","{""addition_ans"":""27""}","experiment","24","addition","27","true","add","","","","","","","","","","","","","","","","","","","","","","","","",""
"","","","","","survey-text","101","268043","0.0-101.0","A1O4Q0QVPVBF8M","2022-05-19T02:22:38.920Z","task_switching-phon_sim-same_different-rhyme","","3470.5","task_switching","{""addition_ans"":""81""}","experiment","78","addition","81","true","add","","","","","","","","","","","","","","","","","","","","","","","","",""
"","","","","","survey-text","102","273203","0.0-102.0","A1O4Q0QVPVBF8M","2022-05-19T02:22:38.920Z","task_switching-phon_sim-same_different-rhyme","","5158.4000000059605","task_switching","{""addition_ans"":""49""}","experiment","46","addition","49","true","add","","","","","","","","","","","","","","","","","","","","","","","","",""
"","","","","","survey-text","103","275533","0.0-103.0","A1O4Q0QVPVBF8M","2022-05-19T02:22:38.920Z","task_switching-phon_sim-same_different-rhyme","","2328","task_switching","{""addition_ans"":""66""}","experiment","63","addition","66","true","add","","","","","","","","","","","","","","","","","","","","","","","","",""
"","","","","","survey-text","104","278025","0.0-104.0","A1O4Q0QVPVBF8M","2022-05-19T02:22:38.920Z","task_switching-phon_sim-same_different-rhyme","","2491.1000000089407","task_switching","{""addition_ans"":""64""}","experiment","61","addition","64","true","add","","","","","","","","","","","","","","","","","","","","","","","","",""
"","","","","","survey-text","105","280351","0.0-105.0","A1O4Q0QVPVBF8M","2022-05-19T02:22:38.920Z","task_switching-phon_sim-same_different-rhyme","","2324.5","task_switching","{""addition_ans"":""50""}","experiment","47","addition","50","true","add","","","","","","","","","","","","","","","","","","","","","","","","",""
"","","","","","survey-text","106","283855","0.0-106.0","A1O4Q0QVPVBF8M","2022-05-19T02:22:38.920Z","task_switching-phon_sim-same_different-rhyme","","3502.5","task_switching","{""addition_ans"":""46""}","experiment","43","addition","46","true","add","","","","","","","","","","","","","","","","","","","","","","","","",""
"","","","","","survey-text","107","285860","0.0-107.0","A1O4Q0QVPVBF8M","2022-05-19T02:22:38.920Z","task_switching-phon_sim-same_different-rhyme","","2003.199999988079","task_switching","{""addition_ans"":""77""}","experiment","74","addition","77","true","add","","","","","","","","","","","","","","","","","","","","","","","","",""
"","","","","","instructions","108","292043","0.0-108.0","A1O4Q0QVPVBF8M","2022-05-19T02:22:38.920Z","task_switching-phon_sim-same_different-rhyme","[{""page_index"":0,""viewing_time"":6182.0999999940395}]","6182.29999999702","task_switching","","","","","","","","","","","","","","","","","","","","","","","","","","","","","","","",""
"","","","","","survey-text","109","294533","0.0-109.0","A1O4Q0QVPVBF8M","2022-05-19T02:22:38.920Z","task_switching-phon_sim-same_different-rhyme","","2488.7999999970198","task_switching","{""colorcue_switch_ans"":""65""}","training","62","colorcue_switch","65","true","add","red","0","","","","","","","","","","","","","","","","","","","","","","",""
"","","","","","html-keyboard-response","110","295539","0.0-110.0","A1O4Q0QVPVBF8M","2022-05-19T02:22:38.920Z","task_switching-phon_sim-same_different-rhyme","","null","task_switching","null","training","<div style=""color:darkgreen; font-size:60px"">Well done!</div>","colorcue_switch","","","","","","","","","","","","","","","","","","","","","","","","","","","",""
"","","","","","survey-text","111","298254","0.0-111.0","A1O4Q0QVPVBF8M","2022-05-19T02:22:38.920Z","task_switching-phon_sim-same_different-rhyme","","2711","task_switching","{""colorcue_switch_ans"":""30""}","training","33","colorcue_switch","30","true","subtract","blue","1","","","","","","","","","","","","","","","","","","","","","","",""
"","","","","","html-keyboard-response","112","299266","0.0-112.0","A1O4Q0QVPVBF8M","2022-05-19T02:22:38.920Z","task_switching-phon_sim-same_different-rhyme","","null","task_switching","null","training","<div style=""color:darkgreen; font-size:60px"">Well done!</div>","colorcue_switch","","","","","","","","","","","","","","","","","","","","","","","","","","","",""
"","","","","","survey-text","113","301372","0.0-113.0","A1O4Q0QVPVBF8M","2022-05-19T02:22:38.920Z","task_switching-phon_sim-same_different-rhyme","","2104.5","task_switching","{""colorcue_switch_ans"":""16""}","training","13","colorcue_switch","16","true","add","red","2","","","","","","","","","","","","","","","","","","","","","","",""
"","","","","","html-keyboard-response","114","302381","0.0-114.0","A1O4Q0QVPVBF8M","2022-05-19T02:22:38.920Z","task_switching-phon_sim-same_different-rhyme","","null","task_switching","null","training","<div style=""color:darkgreen; font-size:60px"">Well done!</div>","colorcue_switch","","","","","","","","","","","","","","","","","","","","","","","","","","","",""
"","","","","","survey-text","115","304945","0.0-115.0","A1O4Q0QVPVBF8M","2022-05-19T02:22:38.920Z","task_switching-phon_sim-same_different-rhyme","","2560.1000000089407","task_switching","{""colorcue_switch_ans"":""81""}","training","84","colorcue_switch","81","true","subtract","blue","3","","","","","","","","","","","","","","","","","","","","","","",""
"","","","","","html-keyboard-response","116","305950","0.0-116.0","A1O4Q0QVPVBF8M","2022-05-19T02:22:38.920Z","task_switching-phon_sim-same_different-rhyme","","null","task_switching","null","training","<div style=""color:darkgreen; font-size:60px"">Well done!</div>","colorcue_switch","","","","","","","","","","","","","","","","","","","","","","","","","","","",""
"","","","","","survey-text","117","310086","0.0-117.0","A1O4Q0QVPVBF8M","2022-05-19T02:22:38.920Z","task_switching-phon_sim-same_different-rhyme","","4132.79999999702","task_switching","{""colorcue_switch_ans"":""38""}","training","35","colorcue_switch","38","true","add","red","4","","","","","","","","","","","","","","","","","","","","","","",""
"","","","","","html-keyboard-response","118","311095","0.0-118.0","A1O4Q0QVPVBF8M","2022-05-19T02:22:38.920Z","task_switching-phon_sim-same_different-rhyme","","null","task_switching","null","training","<div style=""color:darkgreen; font-size:60px"">Well done!</div>","colorcue_switch","","","","","","","","","","","","","","","","","","","","","","","","","","","",""
"","","","","","survey-text","119","314027","0.0-119.0","A1O4Q0QVPVBF8M","2022-05-19T02:22:38.920Z","task_switching-phon_sim-same_different-rhyme","","2927.9000000059605","task_switching","{""colorcue_switch_ans"":""39""}","training","42","colorcue_switch","39","true","subtract","blue","5","","","","","","","","","","","","","","","","","","","","","","",""
"","","","","","html-keyboard-response","120","315044","0.0-120.0","A1O4Q0QVPVBF8M","2022-05-19T02:22:38.920Z","task_switching-phon_sim-same_different-rhyme","","null","task_switching","null","training","<div style=""color:darkgreen; font-size:60px"">Well done!</div>","colorcue_switch","","","","","","","","","","","","","","","","","","","","","","","","","","","",""
"","","","","","survey-text","121","318626","0.0-121.0","A1O4Q0QVPVBF8M","2022-05-19T02:22:38.920Z","task_switching-phon_sim-same_different-rhyme","","3580.3999999910593","task_switching","{""colorcue_switch_ans"":""27""}","training","24","colorcue_switch","27","true","add","red","6","","","","","","","","","","","","","","","","","","","","","","",""
"","","","","","html-keyboard-response","122","319640","0.0-122.0","A1O4Q0QVPVBF8M","2022-05-19T02:22:38.920Z","task_switching-phon_sim-same_different-rhyme","","null","task_switching","null","training","<div style=""color:darkgreen; font-size:60px"">Well done!</div>","colorcue_switch","","","","","","","","","","","","","","","","","","","","","","","","","","","",""
"","","","","","survey-text","123","323466","0.0-123.0","A1O4Q0QVPVBF8M","2022-05-19T02:22:38.920Z","task_switching-phon_sim-same_different-rhyme","","3822.4000000059605","task_switching","{""colorcue_switch_ans"":""85""}","training","88","colorcue_switch","85","true","subtract","blue","7","","","","","","","","","","","","","","","","","","","","","","",""
"","","","","","html-keyboard-response","124","324477","0.0-124.0","A1O4Q0QVPVBF8M","2022-05-19T02:22:38.920Z","task_switching-phon_sim-same_different-rhyme","","null","task_switching","null","training","<div style=""color:darkgreen; font-size:60px"">Well done!</div>","colorcue_switch","","","","","","","","","","","","","","","","","","","","","","","","","","","",""
"","","","","","survey-text","125","327223","0.0-125.0","A1O4Q0QVPVBF8M","2022-05-19T02:22:38.920Z","task_switching-phon_sim-same_different-rhyme","","2743.8999999910593","task_switching","{""colorcue_switch_ans"":""20""}","training","17","colorcue_switch","20","true","add","red","8","","","","","","","","","","","","","","","","","","","","","","",""
"","","","","","html-keyboard-response","126","328232","0.0-126.0","A1O4Q0QVPVBF8M","2022-05-19T02:22:38.920Z","task_switching-phon_sim-same_different-rhyme","","null","task_switching","null","training","<div style=""color:darkgreen; font-size:60px"">Well done!</div>","colorcue_switch","","","","","","","","","","","","","","","","","","","","","","","","","","","",""
"","","","","","survey-text","127","330946","0.0-127.0","A1O4Q0QVPVBF8M","2022-05-19T02:22:38.920Z","task_switching-phon_sim-same_different-rhyme","","2712.5","task_switching","{""colorcue_switch_ans"":""92""}","training","95","colorcue_switch","92","true","subtract","blue","9","","","","","","","","","","","","","","","","","","","","","","",""
"","","","","","html-keyboard-response","128","331958","0.0-128.0","A1O4Q0QVPVBF8M","2022-05-19T02:22:38.920Z","task_switching-phon_sim-same_different-rhyme","","null","task_switching","null","training","<div style=""color:darkgreen; font-size:60px"">Well done!</div>","colorcue_switch","","","","","","","","","","","","","","","","","","","","","","","","","","","",""
"","","","","","instructions","129","335176","0.0-129.0","A1O4Q0QVPVBF8M","2022-05-19T02:22:38.920Z","task_switching-phon_sim-same_different-rhyme","[{""page_index"":0,""viewing_time"":3217.4000000059605}]","3217.5999999940395","task_switching","","","","","","","","","","","","","","","","","","","","","","","","","","","","","","","",""
"","","","","","survey-text","130","338683","0.0-130.0","A1O4Q0QVPVBF8M","2022-05-19T02:22:38.920Z","task_switching-phon_sim-same_different-rhyme","","3504.7999999970198","task_switching","{""colorcue_switch_ans"":""58""}","experiment","55","colorcue_switch","58","true","add","red","0","","","","","","","","","","","","","","","","","","","","","","",""
"","","","","","survey-text","131","341210","0.0-131.0","A1O4Q0QVPVBF8M","2022-05-19T02:22:38.920Z","task_switching-phon_sim-same_different-rhyme","","2525.5","task_switching","{""colorcue_switch_ans"":""59""}","experiment","62","colorcue_switch","59","true","subtract","blue","1","","","","","","","","","","","","","","","","","","","","","","",""
"","","","","","survey-text","132","343528","0.0-132.0","A1O4Q0QVPVBF8M","2022-05-19T02:22:38.920Z","task_switching-phon_sim-same_different-rhyme","","2317","task_switching","{""colorcue_switch_ans"":""47""}","experiment","44","colorcue_switch","47","true","add","red","2","","","","","","","","","","","","","","","","","","","","","","",""
"","","","","","survey-text","133","345936","0.0-133.0","A1O4Q0QVPVBF8M","2022-05-19T02:22:38.920Z","task_switching-phon_sim-same_different-rhyme","","2405.7000000029802","task_switching","{""colorcue_switch_ans"":""50""}","experiment","47","colorcue_switch","50","false","subtract","blue","3","","","","","","","","","","","","","","","","","","","","","","",""
"","","","","","survey-text","134","352088","0.0-134.0","A1O4Q0QVPVBF8M","2022-05-19T02:22:38.920Z","task_switching-phon_sim-same_different-rhyme","","6149.70000000298","task_switching","{""colorcue_switch_ans"":""93""}","experiment","90","colorcue_switch","93","true","add","red","4","","","","","","","","","","","","","","","","","","","","","","",""
"","","","","","survey-text","135","354380","0.0-135.0","A1O4Q0QVPVBF8M","2022-05-19T02:22:38.920Z","task_switching-phon_sim-same_different-rhyme","","2291","task_switching","{""colorcue_switch_ans"":""85""}","experiment","88","colorcue_switch","85","true","subtract","blue","5","","","","","","","","","","","","","","","","","","","","","","",""
"","","","","","survey-text","136","357771","0.0-136.0","A1O4Q0QVPVBF8M","2022-05-19T02:22:38.920Z","task_switching-phon_sim-same_different-rhyme","","3388.5999999940395","task_switching","{""colorcue_switch_ans"":""82""}","experiment","79","colorcue_switch","82","true","add","red","6","","","","","","","","","","","","","","","","","","","","","","",""
"","","","","","survey-text","137","361701","0.0-137.0","A1O4Q0QVPVBF8M","2022-05-19T02:22:38.920Z","task_switching-phon_sim-same_different-rhyme","","3927.9000000059605","task_switching","{""colorcue_switch_ans"":""57""}","experiment","60","colorcue_switch","57","true","subtract","blue","7","","","","","","","","","","","","","","","","","","","","","","",""
"","","","","","survey-text","138","363817","0.0-138.0","A1O4Q0QVPVBF8M","2022-05-19T02:22:38.920Z","task_switching-phon_sim-same_different-rhyme","","2114.7000000029802","task_switching","{""colorcue_switch_ans"":""57""}","experiment","54","colorcue_switch","57","true","add","red","8","","","","","","","","","","","","","","","","","","","","","","",""
"","","","","","survey-text","139","370619","0.0-139.0","A1O4Q0QVPVBF8M","2022-05-19T02:22:38.920Z","task_switching-phon_sim-same_different-rhyme","","6800.9000000059605","task_switching","{""colorcue_switch_ans"":""75""}","experiment","78","colorcue_switch","75","true","subtract","blue","9","","","","","","","","","","","","","","","","","","","","","","",""
"","","","","","survey-text","140","375315","0.0-140.0","A1O4Q0QVPVBF8M","2022-05-19T02:22:38.920Z","task_switching-phon_sim-same_different-rhyme","","4693.70000000298","task_switching","{""colorcue_switch_ans"":""77""}","experiment","74","colorcue_switch","77","true","add","red","10","","","","","","","","","","","","","","","","","","","","","","",""
"","","","","","survey-text","141","379343","0.0-141.0","A1O4Q0QVPVBF8M","2022-05-19T02:22:38.920Z","task_switching-phon_sim-same_different-rhyme","","4027.5","task_switching","{""colorcue_switch_ans"":""34""}","experiment","37","colorcue_switch","34","true","subtract","blue","11","","","","","","","","","","","","","","","","","","","","","","",""
"","","","","","survey-text","142","382263","0.0-142.0","A1O4Q0QVPVBF8M","2022-05-19T02:22:38.920Z","task_switching-phon_sim-same_different-rhyme","","2917.7000000029802","task_switching","{""colorcue_switch_ans"":""30""}","experiment","27","colorcue_switch","30","true","add","red","12","","","","","","","","","","","","","","","","","","","","","","",""
"","","","","","survey-text","143","385465","0.0-143.0","A1O4Q0QVPVBF8M","2022-05-19T02:22:38.920Z","task_switching-phon_sim-same_different-rhyme","","3200.6000000089407","task_switching","{""colorcue_switch_ans"":""28""}","experiment","31","colorcue_switch","28","true","subtract","blue","13","","","","","","","","","","","","","","","","","","","","","","",""
"","","","","","survey-text","144","388124","0.0-144.0","A1O4Q0QVPVBF8M","2022-05-19T02:22:38.920Z","task_switching-phon_sim-same_different-rhyme","","2657.4000000059605","task_switching","{""colorcue_switch_ans"":""22""}","experiment","19","colorcue_switch","22","true","add","red","14","","","","","","","","","","","","","","","","","","","","","","",""
"","","","","","survey-text","145","390409","0.0-145.0","A1O4Q0QVPVBF8M","2022-05-19T02:22:38.920Z","task_switching-phon_sim-same_different-rhyme","","2283.8999999910593","task_switching","{""colorcue_switch_ans"":""63""}","experiment","66","colorcue_switch","63","true","subtract","blue","15","","","","","","","","","","","","","","","","","","","","","","",""
"","","","","","survey-text","146","395989","0.0-146.0","A1O4Q0QVPVBF8M","2022-05-19T02:22:38.920Z","task_switching-phon_sim-same_different-rhyme","","5579","task_switching","{""colorcue_switch_ans"":""68""}","experiment","65","colorcue_switch","68","true","add","red","16","","","","","","","","","","","","","","","","","","","","","","",""
"","","","","","survey-text","147","399391","0.0-147.0","A1O4Q0QVPVBF8M","2022-05-19T02:22:38.920Z","task_switching-phon_sim-same_different-rhyme","","3399.2999999970198","task_switching","{""colorcue_switch_ans"":""56""}","experiment","59","colorcue_switch","56","true","subtract","blue","17","","","","","","","","","","","","","","","","","","","","","","",""
"","","","","","survey-text","148","403161","0.0-148.0","A1O4Q0QVPVBF8M","2022-05-19T02:22:38.920Z","task_switching-phon_sim-same_different-rhyme","","3768.7000000029802","task_switching","{""colorcue_switch_ans"":""97""}","experiment","94","colorcue_switch","97","true","add","red","18","","","","","","","","","","","","","","","","","","","","","","",""
"","","","","","survey-text","149","405921","0.0-149.0","A1O4Q0QVPVBF8M","2022-05-19T02:22:38.920Z","task_switching-phon_sim-same_different-rhyme","","2758.1000000089407","task_switching","{""colorcue_switch_ans"":""43""}","experiment","46","colorcue_switch","43","true","subtract","blue","19","","","","","","","","","","","","","","","","","","","","","","",""
"","","","","","survey-text","150","407967","0.0-150.0","A1O4Q0QVPVBF8M","2022-05-19T02:22:38.920Z","task_switching-phon_sim-same_different-rhyme","","2044.7000000029802","task_switching","{""colorcue_switch_ans"":""66""}","experiment","63","colorcue_switch","66","true","add","red","20","","","","","","","","","","","","","","","","","","","","","","",""
"","","","","","survey-text","151","412126","0.0-151.0","A1O4Q0QVPVBF8M","2022-05-19T02:22:38.920Z","task_switching-phon_sim-same_different-rhyme","","4157.70000000298","task_switching","{""colorcue_switch_ans"":""83""}","experiment","86","colorcue_switch","83","true","subtract","blue","21","","","","","","","","","","","","","","","","","","","","","","",""
"","","","","","survey-text","152","415983","0.0-152.0","A1O4Q0QVPVBF8M","2022-05-19T02:22:38.920Z","task_switching-phon_sim-same_different-rhyme","","3855.5","task_switching","{""colorcue_switch_ans"":""72""}","experiment","69","colorcue_switch","72","true","add","red","22","","","","","","","","","","","","","","","","","","","","","","",""
"","","","","","survey-text","153","418164","0.0-153.0","A1O4Q0QVPVBF8M","2022-05-19T02:22:38.920Z","task_switching-phon_sim-same_different-rhyme","","2179.6000000089407","task_switching","{""colorcue_switch_ans"":""18""}","experiment","21","colorcue_switch","18","true","subtract","blue","23","","","","","","","","","","","","","","","","","","","","","","",""
"","","","","","survey-text","154","420607","0.0-154.0","A1O4Q0QVPVBF8M","2022-05-19T02:22:38.920Z","task_switching-phon_sim-same_different-rhyme","","2441.5","task_switching","{""colorcue_switch_ans"":""73""}","experiment","70","colorcue_switch","73","true","add","red","24","","","","","","","","","","","","","","","","","","","","","","",""
"","","","","","survey-text","155","422737","0.0-155.0","A1O4Q0QVPVBF8M","2022-05-19T02:22:38.920Z","task_switching-phon_sim-same_different-rhyme","","2128.5","task_switching","{""colorcue_switch_ans"":""15""}","experiment","18","colorcue_switch","15","true","subtract","blue","25","","","","","","","","","","","","","","","","","","","","","","",""
"","","","","","survey-text","156","426183","0.0-156.0","A1O4Q0QVPVBF8M","2022-05-19T02:22:38.920Z","task_switching-phon_sim-same_different-rhyme","","3444.699999988079","task_switching","{""colorcue_switch_ans"":""17""}","experiment","14","colorcue_switch","17","true","add","red","26","","","","","","","","","","","","","","","","","","","","","","",""
"","","","","","survey-text","157","429190","0.0-157.0","A1O4Q0QVPVBF8M","2022-05-19T02:22:38.920Z","task_switching-phon_sim-same_different-rhyme","","3006.0999999940395","task_switching","{""colorcue_switch_ans"":""79""}","experiment","82","colorcue_switch","79","true","subtract","blue","27","","","","","","","","","","","","","","","","","","","","","","",""
"","","","","","survey-text","158","434029","0.0-158.0","A1O4Q0QVPVBF8M","2022-05-19T02:22:38.920Z","task_switching-phon_sim-same_different-rhyme","","4837.399999991059","task_switching","{""colorcue_switch_ans"":""61""}","experiment","58","colorcue_switch","61","true","add","red","28","","","","","","","","","","","","","","","","","","","","","","",""
"","","","","","survey-text","159","437061","0.0-159.0","A1O4Q0QVPVBF8M","2022-05-19T02:22:38.920Z","task_switching-phon_sim-same_different-rhyme","","3030.2999999970198","task_switching","{""colorcue_switch_ans"":""20""}","experiment","23","colorcue_switch","20","true","subtract","blue","29","","","","","","","","","","","","","","","","","","","","","","",""
"","","","","","instructions","160","461085","0.0-160.0","A1O4Q0QVPVBF8M","2022-05-19T02:22:38.920Z","task_switching-phon_sim-same_different-rhyme","[{""page_index"":0,""viewing_time"":24023.09999999404}]","24023.5","task_switching","","","","","","","","","","","","","","","","","","","","","","","","","","","","","","","",""
"","","","","","survey-text","161","464867","0.0-161.0","A1O4Q0QVPVBF8M","2022-05-19T02:22:38.920Z","task_switching-phon_sim-same_different-rhyme","","3780.0999999940395","task_switching","{""uncued_switch_ans"":""56""}","training","53","uncued_switch","56","true","add","","0","","","","","","","","","","","","","","","","","","","","","","",""
"","","","","","html-keyboard-response","162","465877","0.0-162.0","A1O4Q0QVPVBF8M","2022-05-19T02:22:38.920Z","task_switching-phon_sim-same_different-rhyme","","null","task_switching","null","training","<div style=""color:darkgreen; font-size:60px"">Well done!</div>","uncued_switch","","","","","","","","","","","","","","","","","","","","","","","","","","","",""
"","","","","","survey-text","163","468277","0.0-163.0","A1O4Q0QVPVBF8M","2022-05-19T02:22:38.920Z","task_switching-phon_sim-same_different-rhyme","","2396.3999999910593","task_switching","{""uncued_switch_ans"":""75""}","training","78","uncued_switch","75","true","subtract","","1","","","","","","","","","","","","","","","","","","","","","","",""
"","","","","","html-keyboard-response","164","469289","0.0-164.0","A1O4Q0QVPVBF8M","2022-05-19T02:22:38.920Z","task_switching-phon_sim-same_different-rhyme","","null","task_switching","null","training","<div style=""color:darkgreen; font-size:60px"">Well done!</div>","uncued_switch","","","","","","","","","","","","","","","","","","","","","","","","","","","",""
"","","","","","survey-text","165","472769","0.0-165.0","A1O4Q0QVPVBF8M","2022-05-19T02:22:38.920Z","task_switching-phon_sim-same_different-rhyme","","3475.9000000059605","task_switching","{""uncued_switch_ans"":""61""}","training","58","uncued_switch","61","true","add","","2","","","","","","","","","","","","","","","","","","","","","","",""
"","","","","","html-keyboard-response","166","473775","0.0-166.0","A1O4Q0QVPVBF8M","2022-05-19T02:22:38.920Z","task_switching-phon_sim-same_different-rhyme","","null","task_switching","null","training","<div style=""color:darkgreen; font-size:60px"">Well done!</div>","uncued_switch","","","","","","","","","","","","","","","","","","","","","","","","","","","",""
"","","","","","survey-text","167","475883","0.0-167.0","A1O4Q0QVPVBF8M","2022-05-19T02:22:38.920Z","task_switching-phon_sim-same_different-rhyme","","2104.0999999940395","task_switching","{""uncued_switch_ans"":""44""}","training","47","uncued_switch","44","true","subtract","","3","","","","","","","","","","","","","","","","","","","","","","",""
"","","","","","html-keyboard-response","168","476897","0.0-168.0","A1O4Q0QVPVBF8M","2022-05-19T02:22:38.920Z","task_switching-phon_sim-same_different-rhyme","","null","task_switching","null","training","<div style=""color:darkgreen; font-size:60px"">Well done!</div>","uncued_switch","","","","","","","","","","","","","","","","","","","","","","","","","","","",""
"","","","","","survey-text","169","481363","0.0-169.0","A1O4Q0QVPVBF8M","2022-05-19T02:22:38.920Z","task_switching-phon_sim-same_different-rhyme","","4463","task_switching","{""uncued_switch_ans"":""94""}","training","91","uncued_switch","94","true","add","","4","","","","","","","","","","","","","","","","","","","","","","",""
"","","","","","html-keyboard-response","170","482372","0.0-170.0","A1O4Q0QVPVBF8M","2022-05-19T02:22:38.920Z","task_switching-phon_sim-same_different-rhyme","","null","task_switching","null","training","<div style=""color:darkgreen; font-size:60px"">Well done!</div>","uncued_switch","","","","","","","","","","","","","","","","","","","","","","","","","","","",""
"","","","","","survey-text","171","484557","0.0-171.0","A1O4Q0QVPVBF8M","2022-05-19T02:22:38.920Z","task_switching-phon_sim-same_different-rhyme","","2180.8999999910593","task_switching","{""uncued_switch_ans"":""42""}","training","45","uncued_switch","42","true","subtract","","5","","","","","","","","","","","","","","","","","","","","","","",""
"","","","","","html-keyboard-response","172","485568","0.0-172.0","A1O4Q0QVPVBF8M","2022-05-19T02:22:38.920Z","task_switching-phon_sim-same_different-rhyme","","null","task_switching","null","training","<div style=""color:darkgreen; font-size:60px"">Well done!</div>","uncued_switch","","","","","","","","","","","","","","","","","","","","","","","","","","","",""
"","","","","","survey-text","173","487767","0.0-173.0","A1O4Q0QVPVBF8M","2022-05-19T02:22:38.920Z","task_switching-phon_sim-same_different-rhyme","","2195.699999988079","task_switching","{""uncued_switch_ans"":""26""}","training","23","uncued_switch","26","true","add","","6","","","","","","","","","","","","","","","","","","","","","","",""
"","","","","","html-keyboard-response","174","488773","0.0-174.0","A1O4Q0QVPVBF8M","2022-05-19T02:22:38.920Z","task_switching-phon_sim-same_different-rhyme","","null","task_switching","null","training","<div style=""color:darkgreen; font-size:60px"">Well done!</div>","uncued_switch","","","","","","","","","","","","","","","","","","","","","","","","","","","",""
"","","","","","survey-text","175","493125","0.0-175.0","A1O4Q0QVPVBF8M","2022-05-19T02:22:38.920Z","task_switching-phon_sim-same_different-rhyme","","4348.100000008941","task_switching","{""uncued_switch_ans"":""27""}","training","30","uncued_switch","27","true","subtract","","7","","","","","","","","","","","","","","","","","","","","","","",""
"","","","","","html-keyboard-response","176","494134","0.0-176.0","A1O4Q0QVPVBF8M","2022-05-19T02:22:38.920Z","task_switching-phon_sim-same_different-rhyme","","null","task_switching","null","training","<div style=""color:darkgreen; font-size:60px"">Well done!</div>","uncued_switch","","","","","","","","","","","","","","","","","","","","","","","","","","","",""
"","","","","","survey-text","177","497089","0.0-177.0","A1O4Q0QVPVBF8M","2022-05-19T02:22:38.920Z","task_switching-phon_sim-same_different-rhyme","","2952.199999988079","task_switching","{""uncued_switch_ans"":""65""}","training","62","uncued_switch","65","true","add","","8","","","","","","","","","","","","","","","","","","","","","","",""
"","","","","","html-keyboard-response","178","498100","0.0-178.0","A1O4Q0QVPVBF8M","2022-05-19T02:22:38.920Z","task_switching-phon_sim-same_different-rhyme","","null","task_switching","null","training","<div style=""color:darkgreen; font-size:60px"">Well done!</div>","uncued_switch","","","","","","","","","","","","","","","","","","","","","","","","","","","",""
"","","","","","survey-text","179","500573","0.0-179.0","A1O4Q0QVPVBF8M","2022-05-19T02:22:38.920Z","task_switching-phon_sim-same_different-rhyme","","2469.6000000089407","task_switching","{""uncued_switch_ans"":""73""}","training","76","uncued_switch","73","true","subtract","","9","","","","","","","","","","","","","","","","","","","","","","",""
"","","","","","html-keyboard-response","180","501584","0.0-180.0","A1O4Q0QVPVBF8M","2022-05-19T02:22:38.920Z","task_switching-phon_sim-same_different-rhyme","","null","task_switching","null","training","<div style=""color:darkgreen; font-size:60px"">Well done!</div>","uncued_switch","","","","","","","","","","","","","","","","","","","","","","","","","","","",""
"","","","","","instructions","181","503267","0.0-181.0","A1O4Q0QVPVBF8M","2022-05-19T02:22:38.920Z","task_switching-phon_sim-same_different-rhyme","[{""page_index"":0,""viewing_time"":1682.2999999970198}]","1682.5","task_switching","","","","","","","","","","","","","","","","","","","","","","","","","","","","","","","",""
"","","","","","survey-text","182","506387","0.0-182.0","A1O4Q0QVPVBF8M","2022-05-19T02:22:38.920Z","task_switching-phon_sim-same_different-rhyme","","3118.5","task_switching","{""uncued_switch_ans"":""26""}","experiment","23","uncued_switch","26","true","add","","0","","","","","","","","","","","","","","","","","","","","","","",""
"","","","","","survey-text","183","509253","0.0-183.0","A1O4Q0QVPVBF8M","2022-05-19T02:22:38.920Z","task_switching-phon_sim-same_different-rhyme","","2864.4000000059605","task_switching","{""uncued_switch_ans"":""68""}","experiment","71","uncued_switch","68","true","subtract","","1","","","","","","","","","","","","","","","","","","","","","","",""
"","","","","","survey-text","184","512533","0.0-184.0","A1O4Q0QVPVBF8M","2022-05-19T02:22:38.920Z","task_switching-phon_sim-same_different-rhyme","","3277.5","task_switching","{""uncued_switch_ans"":""39""}","experiment","36","uncued_switch","39","true","add","","2","","","","","","","","","","","","","","","","","","","","","","",""
"","","","","","survey-text","185","515607","0.0-185.0","A1O4Q0QVPVBF8M","2022-05-19T02:22:38.920Z","task_switching-phon_sim-same_different-rhyme","","3073.2000000029802","task_switching","{""uncued_switch_ans"":""86""}","experiment","89","uncued_switch","86","true","subtract","","3","","","","","","","","","","","","","","","","","","","","","","",""
"","","","","","survey-text","186","518443","0.0-186.0","A1O4Q0QVPVBF8M","2022-05-19T02:22:38.920Z","task_switching-phon_sim-same_different-rhyme","","2834.2999999970198","task_switching","{""uncued_switch_ans"":""37""}","experiment","34","uncued_switch","37","true","add","","4","","","","","","","","","","","","","","","","","","","","","","",""
"","","","","","survey-text","187","521509","0.0-187.0","A1O4Q0QVPVBF8M","2022-05-19T02:22:38.920Z","task_switching-phon_sim-same_different-rhyme","","3064.199999988079","task_switching","{""uncued_switch_ans"":""72""}","experiment","75","uncued_switch","72","true","subtract","","5","","","","","","","","","","","","","","","","","","","","","","",""
"","","","","","survey-text","188","525341","0.0-188.0","A1O4Q0QVPVBF8M","2022-05-19T02:22:38.920Z","task_switching-phon_sim-same_different-rhyme","","3830","task_switching","{""uncued_switch_ans"":""91""}","experiment","88","uncued_switch","91","true","add","","6","","","","","","","","","","","","","","","","","","","","","","",""
"","","","","","survey-text","189","528051","0.0-189.0","A1O4Q0QVPVBF8M","2022-05-19T02:22:38.920Z","task_switching-phon_sim-same_different-rhyme","","2708","task_switching","{""uncued_switch_ans"":""41""}","experiment","44","uncued_switch","41","true","subtract","","7","","","","","","","","","","","","","","","","","","","","","","",""
"","","","","","survey-text","190","530299","0.0-190.0","A1O4Q0QVPVBF8M","2022-05-19T02:22:38.920Z","task_switching-phon_sim-same_different-rhyme","","2246.2000000029802","task_switching","{""uncued_switch_ans"":""16""}","experiment","13","uncued_switch","16","true","add","","8","","","","","","","","","","","","","","","","","","","","","","",""
"","","","","","survey-text","191","533817","0.0-191.0","A1O4Q0QVPVBF8M","2022-05-19T02:22:38.920Z","task_switching-phon_sim-same_different-rhyme","","3516.5","task_switching","{""uncued_switch_ans"":""43""}","experiment","46","uncued_switch","43","true","subtract","","9","","","","","","","","","","","","","","","","","","","","","","",""
"","","","","","survey-text","192","536149","0.0-192.0","A1O4Q0QVPVBF8M","2022-05-19T02:22:38.920Z","task_switching-phon_sim-same_different-rhyme","","2330.3999999910593","task_switching","{""uncued_switch_ans"":""90""}","experiment","87","uncued_switch","90","true","add","","10","","","","","","","","","","","","","","","","","","","","","","",""
"","","","","","survey-text","193","538840","0.0-193.0","A1O4Q0QVPVBF8M","2022-05-19T02:22:38.920Z","task_switching-phon_sim-same_different-rhyme","","2689.7000000029802","task_switching","{""uncued_switch_ans"":""90""}","experiment","93","uncued_switch","90","true","subtract","","11","","","","","","","","","","","","","","","","","","","","","","",""
"","","","","","survey-text","194","547273","0.0-194.0","A1O4Q0QVPVBF8M","2022-05-19T02:22:38.920Z","task_switching-phon_sim-same_different-rhyme","","8431.29999999702","task_switching","{""uncued_switch_ans"":""52""}","experiment","49","uncued_switch","52","true","add","","12","","","","","","","","","","","","","","","","","","","","","","",""
"","","","","","survey-text","195","550543","0.0-195.0","A1O4Q0QVPVBF8M","2022-05-19T02:22:38.920Z","task_switching-phon_sim-same_different-rhyme","","3268.5","task_switching","{""uncued_switch_ans"":""15""}","experiment","18","uncued_switch","15","true","subtract","","13","","","","","","","","","","","","","","","","","","","","","","",""
"","","","","","survey-text","196","556532","0.0-196.0","A1O4Q0QVPVBF8M","2022-05-19T02:22:38.920Z","task_switching-phon_sim-same_different-rhyme","","5987.5999999940395","task_switching","{""uncued_switch_ans"":""66""}","experiment","63","uncued_switch","66","true","add","","14","","","","","","","","","","","","","","","","","","","","","","",""
"","","","","","survey-text","197","559422","0.0-197.0","A1O4Q0QVPVBF8M","2022-05-19T02:22:38.920Z","task_switching-phon_sim-same_different-rhyme","","2888.5","task_switching","{""uncued_switch_ans"":""80""}","experiment","83","uncued_switch","80","true","subtract","","15","","","","","","","","","","","","","","","","","","","","","","",""
"","","","","","survey-text","198","563601","0.0-198.0","A1O4Q0QVPVBF8M","2022-05-19T02:22:38.920Z","task_switching-phon_sim-same_different-rhyme","","4177.300000011921","task_switching","{""uncued_switch_ans"":""34""}","experiment","37","uncued_switch","34","false","add","","16","","","","","","","","","","","","","","","","","","","","","","",""
"","","","","","survey-text","199","565589","0.0-199.0","A1O4Q0QVPVBF8M","2022-05-19T02:22:38.920Z","task_switching-phon_sim-same_different-rhyme","","1986.2000000029802","task_switching","{""uncued_switch_ans"":""25""}","experiment","22","uncued_switch","25","false","subtract","","17","","","","","","","","","","","","","","","","","","","","","","",""
"","","","","","survey-text","200","568045","0.0-200.0","A1O4Q0QVPVBF8M","2022-05-19T02:22:38.920Z","task_switching-phon_sim-same_different-rhyme","","2454.2000000029802","task_switching","{""uncued_switch_ans"":""79""}","experiment","82","uncued_switch","79","false","add","","18","","","","","","","","","","","","","","","","","","","","","","",""
"","","","","","survey-text","201","570651","0.0-201.0","A1O4Q0QVPVBF8M","2022-05-19T02:22:38.920Z","task_switching-phon_sim-same_different-rhyme","","2604.9000000059605","task_switching","{""uncued_switch_ans"":""33""}","experiment","30","uncued_switch","33","false","subtract","","19","","","","","","","","","","","","","","","","","","","","","","",""
"","","","","","survey-text","202","573853","0.0-202.0","A1O4Q0QVPVBF8M","2022-05-19T02:22:38.920Z","task_switching-phon_sim-same_different-rhyme","","3200.4000000059605","task_switching","{""uncued_switch_ans"":""36""}","experiment","39","uncued_switch","36","false","add","","20","","","","","","","","","","","","","","","","","","","","","","",""
"","","","","","survey-text","203","577115","0.0-203.0","A1O4Q0QVPVBF8M","2022-05-19T02:22:38.920Z","task_switching-phon_sim-same_different-rhyme","","3260.4000000059605","task_switching","{""uncued_switch_ans"":""68""}","experiment","65","uncued_switch","68","false","subtract","","21","","","","","","","","","","","","","","","","","","","","","","",""
"","","","","","survey-text","204","580195","0.0-204.0","A1O4Q0QVPVBF8M","2022-05-19T02:22:38.920Z","task_switching-phon_sim-same_different-rhyme","","3078.5","task_switching","{""uncued_switch_ans"":""48""}","experiment","51","uncued_switch","48","false","add","","22","","","","","","","","","","","","","","","","","","","","","","",""
"","","","","","survey-text","205","582996","0.0-205.0","A1O4Q0QVPVBF8M","2022-05-19T02:22:38.920Z","task_switching-phon_sim-same_different-rhyme","","2799.7999999970198","task_switching","{""uncued_switch_ans"":""60""}","experiment","57","uncued_switch","60","false","subtract","","23","","","","","","","","","","","","","","","","","","","","","","",""
"","","","","","survey-text","206","585693","0.0-206.0","A1O4Q0QVPVBF8M","2022-05-19T02:22:38.920Z","task_switching-phon_sim-same_different-rhyme","","2695.4000000059605","task_switching","{""uncued_switch_ans"":""45""}","experiment","48","uncued_switch","45","false","add","","24","","","","","","","","","","","","","","","","","","","","","","",""
"","","","","","survey-text","207","588867","0.0-207.0","A1O4Q0QVPVBF8M","2022-05-19T02:22:38.920Z","task_switching-phon_sim-same_different-rhyme","","3172.4000000059605","task_switching","{""uncued_switch_ans"":""89""}","experiment","86","uncued_switch","89","false","subtract","","25","","","","","","","","","","","","","","","","","","","","","","",""
"","","","","","survey-text","208","592449","0.0-208.0","A1O4Q0QVPVBF8M","2022-05-19T02:22:38.920Z","task_switching-phon_sim-same_different-rhyme","","3580.4000000059605","task_switching","{""uncued_switch_ans"":""14""}","experiment","17","uncued_switch","14","false","add","","26","","","","","","","","","","","","","","","","","","","","","","",""
"","","","","","survey-text","209","595902","0.0-209.0","A1O4Q0QVPVBF8M","2022-05-19T02:22:38.920Z","task_switching-phon_sim-same_different-rhyme","","3451.7000000029802","task_switching","{""uncued_switch_ans"":""34""}","experiment","31","uncued_switch","34","false","subtract","","27","","","","","","","","","","","","","","","","","","","","","","",""
"","","","","","survey-text","210","598149","0.0-210.0","A1O4Q0QVPVBF8M","2022-05-19T02:22:38.920Z","task_switching-phon_sim-same_different-rhyme","","2245","task_switching","{""uncued_switch_ans"":""50""}","experiment","53","uncued_switch","50","false","add","","28","","","","","","","","","","","","","","","","","","","","","","",""
"","","","","","survey-text","211","601249","0.0-211.0","A1O4Q0QVPVBF8M","2022-05-19T02:22:38.920Z","task_switching-phon_sim-same_different-rhyme","","3099","task_switching","{""uncued_switch_ans"":""59""}","experiment","56","uncued_switch","59","false","subtract","","29","","","","","","","","","","","","","","","","","","","","","","",""
"","","","","","instructions","212","607133","0.0-212.0","A1O4Q0QVPVBF8M","2022-05-19T02:22:38.920Z","task_switching-phon_sim-same_different-rhyme","[{""page_index"":0,""viewing_time"":5882.79999999702}]","5883","task_switching","","","","","","","","","","","","","","","","","","","","","","","","","","","","","","","",""
"","","","","","survey-text","213","610689","0.0-213.0","A1O4Q0QVPVBF8M","2022-05-19T02:22:38.920Z","task_switching-phon_sim-same_different-rhyme","","3554.4000000059605","task_switching","{""symbolcue_switch_ans"":""55""}","training","52","symbolcue_switch","55","true","add","","0","+","","","","","","","","","","","","","","","","","","","","","",""
"","","","","","html-keyboard-response","214","611691","0.0-214.0","A1O4Q0QVPVBF8M","2022-05-19T02:22:38.920Z","task_switching-phon_sim-same_different-rhyme","","null","task_switching","null","training","<div style=""color:darkgreen; font-size:60px"">Well done!</div>","symbolcue_switch","","","","","","","","","","","","","","","","","","","","","","","","","","","",""
"","","","","","survey-text","215","614480","0.0-215.0","A1O4Q0QVPVBF8M","2022-05-19T02:22:38.920Z","task_switching-phon_sim-same_different-rhyme","","2787.7000000029802","task_switching","{""symbolcue_switch_ans"":""76""}","training","79","symbolcue_switch","76","true","subtract","","1","-","","","","","","","","","","","","","","","","","","","","","",""
"","","","","","html-keyboard-response","216","615493","0.0-216.0","A1O4Q0QVPVBF8M","2022-05-19T02:22:38.920Z","task_switching-phon_sim-same_different-rhyme","","null","task_switching","null","training","<div style=""color:darkgreen; font-size:60px"">Well done!</div>","symbolcue_switch","","","","","","","","","","","","","","","","","","","","","","","","","","","",""
"","","","","","survey-text","217","618457","0.0-217.0","A1O4Q0QVPVBF8M","2022-05-19T02:22:38.920Z","task_switching-phon_sim-same_different-rhyme","","2962.800000011921","task_switching","{""symbolcue_switch_ans"":""86""}","training","83","symbolcue_switch","86","true","add","","2","+","","","","","","","","","","","","","","","","","","","","","",""
"","","","","","html-keyboard-response","218","619472","0.0-218.0","A1O4Q0QVPVBF8M","2022-05-19T02:22:38.920Z","task_switching-phon_sim-same_different-rhyme","","null","task_switching","null","training","<div style=""color:darkgreen; font-size:60px"">Well done!</div>","symbolcue_switch","","","","","","","","","","","","","","","","","","","","","","","","","","","",""
"","","","","","survey-text","219","621471","0.0-219.0","A1O4Q0QVPVBF8M","2022-05-19T02:22:38.920Z","task_switching-phon_sim-same_different-rhyme","","1995.300000011921","task_switching","{""symbolcue_switch_ans"":""44""}","training","47","symbolcue_switch","44","true","subtract","","3","-","","","","","","","","","","","","","","","","","","","","","",""
"","","","","","html-keyboard-response","220","622474","0.0-220.0","A1O4Q0QVPVBF8M","2022-05-19T02:22:38.920Z","task_switching-phon_sim-same_different-rhyme","","null","task_switching","null","training","<div style=""color:darkgreen; font-size:60px"">Well done!</div>","symbolcue_switch","","","","","","","","","","","","","","","","","","","","","","","","","","","",""
"","","","","","survey-text","221","625408","0.0-221.0","A1O4Q0QVPVBF8M","2022-05-19T02:22:38.920Z","task_switching-phon_sim-same_different-rhyme","","2930.5999999940395","task_switching","{""symbolcue_switch_ans"":""92""}","training","89","symbolcue_switch","92","true","add","","4","+","","","","","","","","","","","","","","","","","","","","","",""
"","","","","","html-keyboard-response","222","626422","0.0-222.0","A1O4Q0QVPVBF8M","2022-05-19T02:22:38.920Z","task_switching-phon_sim-same_different-rhyme","","null","task_switching","null","training","<div style=""color:darkgreen; font-size:60px"">Well done!</div>","symbolcue_switch","","","","","","","","","","","","","","","","","","","","","","","","","","","",""
"","","","","","survey-text","223","628522","0.0-223.0","A1O4Q0QVPVBF8M","2022-05-19T02:22:38.920Z","task_switching-phon_sim-same_different-rhyme","","2097.2000000029802","task_switching","{""symbolcue_switch_ans"":""63""}","training","66","symbolcue_switch","63","true","subtract","","5","-","","","","","","","","","","","","","","","","","","","","","",""
"","","","","","html-keyboard-response","224","629532","0.0-224.0","A1O4Q0QVPVBF8M","2022-05-19T02:22:38.920Z","task_switching-phon_sim-same_different-rhyme","","null","task_switching","null","training","<div style=""color:darkgreen; font-size:60px"">Well done!</div>","symbolcue_switch","","","","","","","","","","","","","","","","","","","","","","","","","","","",""
"","","","","","survey-text","225","633729","0.0-225.0","A1O4Q0QVPVBF8M","2022-05-19T02:22:38.920Z","task_switching-phon_sim-same_different-rhyme","","4193.29999999702","task_switching","{""symbolcue_switch_ans"":""91""}","training","88","symbolcue_switch","91","true","add","","6","+","","","","","","","","","","","","","","","","","","","","","",""
"","","","","","html-keyboard-response","226","634735","0.0-226.0","A1O4Q0QVPVBF8M","2022-05-19T02:22:38.920Z","task_switching-phon_sim-same_different-rhyme","","null","task_switching","null","training","<div style=""color:darkgreen; font-size:60px"">Well done!</div>","symbolcue_switch","","","","","","","","","","","","","","","","","","","","","","","","","","","",""
"","","","","","survey-text","227","638353","0.0-227.0","A1O4Q0QVPVBF8M","2022-05-19T02:22:38.920Z","task_switching-phon_sim-same_different-rhyme","","3614.7999999970198","task_switching","{""symbolcue_switch_ans"":""48""}","training","51","symbolcue_switch","48","true","subtract","","7","-","","","","","","","","","","","","","","","","","","","","","",""
"","","","","","html-keyboard-response","228","639368","0.0-228.0","A1O4Q0QVPVBF8M","2022-05-19T02:22:38.920Z","task_switching-phon_sim-same_different-rhyme","","null","task_switching","null","training","<div style=""color:darkgreen; font-size:60px"">Well done!</div>","symbolcue_switch","","","","","","","","","","","","","","","","","","","","","","","","","","","",""
"","","","","","survey-text","229","641769","0.0-229.0","A1O4Q0QVPVBF8M","2022-05-19T02:22:38.920Z","task_switching-phon_sim-same_different-rhyme","","2397.2999999970198","task_switching","{""symbolcue_switch_ans"":""23""}","training","20","symbolcue_switch","23","true","add","","8","+","","","","","","","","","","","","","","","","","","","","","",""
"","","","","","html-keyboard-response","230","642782","0.0-230.0","A1O4Q0QVPVBF8M","2022-05-19T02:22:38.920Z","task_switching-phon_sim-same_different-rhyme","","null","task_switching","null","training","<div style=""color:darkgreen; font-size:60px"">Well done!</div>","symbolcue_switch","","","","","","","","","","","","","","","","","","","","","","","","","","","",""
"","","","","","survey-text","231","644959","0.0-231.0","A1O4Q0QVPVBF8M","2022-05-19T02:22:38.920Z","task_switching-phon_sim-same_different-rhyme","","2173.2000000029802","task_switching","{""symbolcue_switch_ans"":""25""}","training","28","symbolcue_switch","25","true","subtract","","9","-","","","","","","","","","","","","","","","","","","","","","",""
"","","","","","html-keyboard-response","232","645966","0.0-232.0","A1O4Q0QVPVBF8M","2022-05-19T02:22:38.920Z","task_switching-phon_sim-same_different-rhyme","","null","task_switching","null","training","<div style=""color:darkgreen; font-size:60px"">Well done!</div>","symbolcue_switch","","","","","","","","","","","","","","","","","","","","","","","","","","","",""
"","","","","","instructions","233","647821","0.0-233.0","A1O4Q0QVPVBF8M","2022-05-19T02:22:38.920Z","task_switching-phon_sim-same_different-rhyme","[{""page_index"":0,""viewing_time"":1854.2999999970198}]","1854.5999999940395","task_switching","","","","","","","","","","","","","","","","","","","","","","","","","","","","","","","",""
"","","","","","survey-text","234","650341","0.0-234.0","A1O4Q0QVPVBF8M","2022-05-19T02:22:38.920Z","task_switching-phon_sim-same_different-rhyme","","2518.0999999940395","task_switching","{""symbolcue_switch_ans"":""49""}","experiment","46","symbolcue_switch","49","true","add","","0","+","","","","","","","","","","","","","","","","","","","","","",""
"","","","","","survey-text","235","652449","0.0-235.0","A1O4Q0QVPVBF8M","2022-05-19T02:22:38.920Z","task_switching-phon_sim-same_different-rhyme","","2106.300000011921","task_switching","{""symbolcue_switch_ans"":""14""}","experiment","17","symbolcue_switch","14","true","subtract","","1","-","","","","","","","","","","","","","","","","","","","","","",""
"","","","","","survey-text","236","656075","0.0-236.0","A1O4Q0QVPVBF8M","2022-05-19T02:22:38.920Z","task_switching-phon_sim-same_different-rhyme","","3624.5","task_switching","{""symbolcue_switch_ans"":""71""}","experiment","68","symbolcue_switch","71","true","add","","2","+","","","","","","","","","","","","","","","","","","","","","",""
"","","","","","survey-text","237","658901","0.0-237.0","A1O4Q0QVPVBF8M","2022-05-19T02:22:38.920Z","task_switching-phon_sim-same_different-rhyme","","2823.7000000029802","task_switching","{""symbolcue_switch_ans"":""53""}","experiment","56","symbolcue_switch","53","true","subtract","","3","-","","","","","","","","","","","","","","","","","","","","","",""
"","","","","","survey-text","238","660795","0.0-238.0","A1O4Q0QVPVBF8M","2022-05-19T02:22:38.920Z","task_switching-phon_sim-same_different-rhyme","","1893.0999999940395","task_switching","{""symbolcue_switch_ans"":""53""}","experiment","50","symbolcue_switch","53","true","add","","4","+","","","","","","","","","","","","","","","","","","","","","",""
"","","","","","survey-text","239","662889","0.0-239.0","A1O4Q0QVPVBF8M","2022-05-19T02:22:38.920Z","task_switching-phon_sim-same_different-rhyme","","2092.2000000029802","task_switching","{""symbolcue_switch_ans"":""40""}","experiment","43","symbolcue_switch","40","true","subtract","","5","-","","","","","","","","","","","","","","","","","","","","","",""
"","","","","","survey-text","240","665667","0.0-240.0","A1O4Q0QVPVBF8M","2022-05-19T02:22:38.920Z","task_switching-phon_sim-same_different-rhyme","","2776.2999999970198","task_switching","{""symbolcue_switch_ans"":""95""}","experiment","92","symbolcue_switch","95","true","add","","6","+","","","","","","","","","","","","","","","","","","","","","",""
"","","","","","survey-text","241","667949","0.0-241.0","A1O4Q0QVPVBF8M","2022-05-19T02:22:38.920Z","task_switching-phon_sim-same_different-rhyme","","2280.9000000059605","task_switching","{""symbolcue_switch_ans"":""76""}","experiment","79","symbolcue_switch","76","true","subtract","","7","-","","","","","","","","","","","","","","","","","","","","","",""
"","","","","","survey-text","242","669965","0.0-242.0","A1O4Q0QVPVBF8M","2022-05-19T02:22:38.920Z","task_switching-phon_sim-same_different-rhyme","","2014","task_switching","{""symbolcue_switch_ans"":""67""}","experiment","64","symbolcue_switch","67","true","add","","8","+","","","","","","","","","","","","","","","","","","","","","",""
"","","","","","survey-text","243","671915","0.0-243.0","A1O4Q0QVPVBF8M","2022-05-19T02:22:38.920Z","task_switching-phon_sim-same_different-rhyme","","1948.7000000029802","task_switching","{""symbolcue_switch_ans"":""23""}","experiment","26","symbolcue_switch","23","true","subtract","","9","-","","","","","","","","","","","","","","","","","","","","","",""
"","","","","","survey-text","244","674489","0.0-244.0","A1O4Q0QVPVBF8M","2022-05-19T02:22:38.920Z","task_switching-phon_sim-same_different-rhyme","","2572.7000000029802","task_switching","{""symbolcue_switch_ans"":""80""}","experiment","77","symbolcue_switch","80","true","add","","10","+","","","","","","","","","","","","","","","","","","","","","",""
"","","","","","survey-text","245","676921","0.0-245.0","A1O4Q0QVPVBF8M","2022-05-19T02:22:38.920Z","task_switching-phon_sim-same_different-rhyme","","2430.300000011921","task_switching","{""symbolcue_switch_ans"":""75""}","experiment","78","symbolcue_switch","75","true","subtract","","11","-","","","","","","","","","","","","","","","","","","","","","",""
"","","","","","survey-text","246","680910","0.0-246.0","A1O4Q0QVPVBF8M","2022-05-19T02:22:38.920Z","task_switching-phon_sim-same_different-rhyme","","3987.7999999970198","task_switching","{""symbolcue_switch_ans"":""77""}","experiment","74","symbolcue_switch","77","true","add","","12","+","","","","","","","","","","","","","","","","","","","","","",""
"","","","","","survey-text","247","683361","0.0-247.0","A1O4Q0QVPVBF8M","2022-05-19T02:22:38.920Z","task_switching-phon_sim-same_different-rhyme","","2449.2000000029802","task_switching","{""symbolcue_switch_ans"":""30""}","experiment","33","symbolcue_switch","30","true","subtract","","13","-","","","","","","","","","","","","","","","","","","","","","",""
"","","","","","survey-text","248","685937","0.0-248.0","A1O4Q0QVPVBF8M","2022-05-19T02:22:38.920Z","task_switching-phon_sim-same_different-rhyme","","2574.7000000029802","task_switching","{""symbolcue_switch_ans"":""18""}","experiment","15","symbolcue_switch","18","true","add","","14","+","","","","","","","","","","","","","","","","","","","","","",""
"","","","","","survey-text","249","688609","0.0-249.0","A1O4Q0QVPVBF8M","2022-05-19T02:22:38.920Z","task_switching-phon_sim-same_different-rhyme","","2670.0999999940395","task_switching","{""symbolcue_switch_ans"":""27""}","experiment","30","symbolcue_switch","27","true","subtract","","15","-","","","","","","","","","","","","","","","","","","","","","",""
"","","","","","survey-text","250","690606","0.0-250.0","A1O4Q0QVPVBF8M","2022-05-19T02:22:38.920Z","task_switching-phon_sim-same_different-rhyme","","1995.5999999940395","task_switching","{""symbolcue_switch_ans"":""55""}","experiment","52","symbolcue_switch","55","true","add","","16","+","","","","","","","","","","","","","","","","","","","","","",""
"","","","","","survey-text","251","692672","0.0-251.0","A1O4Q0QVPVBF8M","2022-05-19T02:22:38.920Z","task_switching-phon_sim-same_different-rhyme","","2064.6000000089407","task_switching","{""symbolcue_switch_ans"":""54""}","experiment","57","symbolcue_switch","54","true","subtract","","17","-","","","","","","","","","","","","","","","","","","","","","",""
"","","","","","survey-text","252","694661","0.0-252.0","A1O4Q0QVPVBF8M","2022-05-19T02:22:38.920Z","task_switching-phon_sim-same_different-rhyme","","1987.7000000029802","task_switching","{""symbolcue_switch_ans"":""23""}","experiment","20","symbolcue_switch","23","true","add","","18","+","","","","","","","","","","","","","","","","","","","","","",""
"","","","","","survey-text","253","696829","0.0-253.0","A1O4Q0QVPVBF8M","2022-05-19T02:22:38.920Z","task_switching-phon_sim-same_different-rhyme","","2166","task_switching","{""symbolcue_switch_ans"":""46""}","experiment","49","symbolcue_switch","46","true","subtract","","19","-","","","","","","","","","","","","","","","","","","","","","",""
"","","","","","survey-text","254","699909","0.0-254.0","A1O4Q0QVPVBF8M","2022-05-19T02:22:38.920Z","task_switching-phon_sim-same_different-rhyme","","3078.9000000059605","task_switching","{""symbolcue_switch_ans"":""98""}","experiment","95","symbolcue_switch","98","true","add","","20","+","","","","","","","","","","","","","","","","","","","","","",""
"","","","","","survey-text","255","702535","0.0-255.0","A1O4Q0QVPVBF8M","2022-05-19T02:22:38.920Z","task_switching-phon_sim-same_different-rhyme","","2624","task_switching","{""symbolcue_switch_ans"":""31""}","experiment","34","symbolcue_switch","31","true","subtract","","21","-","","","","","","","","","","","","","","","","","","","","","",""
"","","","","","survey-text","256","704733","0.0-256.0","A1O4Q0QVPVBF8M","2022-05-19T02:22:38.920Z","task_switching-phon_sim-same_different-rhyme","","2196","task_switching","{""symbolcue_switch_ans"":""21""}","experiment","18","symbolcue_switch","21","true","add","","22","+","","","","","","","","","","","","","","","","","","","","","",""
"","","","","","survey-text","257","707195","0.0-257.0","A1O4Q0QVPVBF8M","2022-05-19T02:22:38.920Z","task_switching-phon_sim-same_different-rhyme","","2460.2000000029802","task_switching","{""symbolcue_switch_ans"":""18""}","experiment","21","symbolcue_switch","18","true","subtract","","23","-","","","","","","","","","","","","","","","","","","","","","",""
"","","","","","survey-text","258","709979","0.0-258.0","A1O4Q0QVPVBF8M","2022-05-19T02:22:38.920Z","task_switching-phon_sim-same_different-rhyme","","2782.300000011921","task_switching","{""symbolcue_switch_ans"":""43""}","experiment","40","symbolcue_switch","43","true","add","","24","+","","","","","","","","","","","","","","","","","","","","","",""
"","","","","","survey-text","259","712021","0.0-259.0","A1O4Q0QVPVBF8M","2022-05-19T02:22:38.920Z","task_switching-phon_sim-same_different-rhyme","","2040.800000011921","task_switching","{""symbolcue_switch_ans"":""60""}","experiment","63","symbolcue_switch","60","true","subtract","","25","-","","","","","","","","","","","","","","","","","","","","","",""
"","","","","","survey-text","260","714025","0.0-260.0","A1O4Q0QVPVBF8M","2022-05-19T02:22:38.920Z","task_switching-phon_sim-same_different-rhyme","","2002.2000000029802","task_switching","{""symbolcue_switch_ans"":""45""}","experiment","42","symbolcue_switch","45","true","add","","26","+","","","","","","","","","","","","","","","","","","","","","",""
"","","","","","survey-text","261","716555","0.0-261.0","A1O4Q0QVPVBF8M","2022-05-19T02:22:38.920Z","task_switching-phon_sim-same_different-rhyme","","2528.2000000029802","task_switching","{""symbolcue_switch_ans"":""72""}","experiment","75","symbolcue_switch","72","true","subtract","","27","-","","","","","","","","","","","","","","","","","","","","","",""
"","","","","","survey-text","262","718635","0.0-262.0","A1O4Q0QVPVBF8M","2022-05-19T02:22:38.920Z","task_switching-phon_sim-same_different-rhyme","","2078","task_switching","{""symbolcue_switch_ans"":""79""}","experiment","76","symbolcue_switch","79","true","add","","28","+","","","","","","","","","","","","","","","","","","","","","",""
"","","","","","survey-text","263","720653","0.0-263.0","A1O4Q0QVPVBF8M","2022-05-19T02:22:38.920Z","task_switching-phon_sim-same_different-rhyme","","2016.9000000059605","task_switching","{""symbolcue_switch_ans"":""63""}","experiment","66","symbolcue_switch","63","true","subtract","","29","-","","","","","","","","","","","","","","","","","","","","","",""
"","","","","","survey-multi-choice","264","724309","0.0-264.0","A1O4Q0QVPVBF8M","2022-05-19T02:22:38.920Z","task_switching-phon_sim-same_different-rhyme","","3654.2000000029802","task_switching","{""Q0"":""Yes""}","","","","","","","","","","[0]","Yes","","","","","","","","","","","","","","","","","","","",""
"","","","","","survey-text","265","736443","0.0-265.0","A1O4Q0QVPVBF8M","2022-05-19T02:22:38.920Z","task_switching-phon_sim-same_different-rhyme","","12131.79999999702","task_switching","{""Q0"":""Just serious concentration!""}","","","","","","","","","","","","Just serious concentration!","","","","","","","","","","","","","","","","","","",""
"","","","","","instructions","266","737681","0.0-266.0","A1O4Q0QVPVBF8M","2022-05-19T02:22:38.920Z","task_switching-phon_sim-same_different-rhyme","[{""page_index"":0,""viewing_time"":1237}]","1237.1000000089407","task_switching","","","","","","","","","","","","","","","","","","","","","","","","","","","","","","","",""
"","","","","","instructions","267","745859","0.0-267.0","A1O4Q0QVPVBF8M","2022-05-19T02:22:38.920Z","task_switching-phon_sim-same_different-rhyme","[{""page_index"":0,""viewing_time"":8177.29999999702}]","8177.600000008941","phon_sim","","","","","","","","","","","","","","","","","","","","","","","","","","","","","","","",""
"","","","","","html-keyboard-response","268","758861","0.0-268.0-0.0","A1O4Q0QVPVBF8M","2022-05-19T02:22:38.920Z","task_switching-phon_sim-same_different-rhyme","","null","phon_sim","null","training","<div style=""display:grid""><h1 id=""word_1"" style=""grid-column:1; grid-row:1"">mad</h1><h1 id=""word_2"" style=""visibility:hidden;grid-column:1; grid-row:1"">man</h1><h1 id=""word_3"" style=""visibility:hidden;grid-column:1; grid-row:1"">map</h1><h1 id=""word_4"" style=""visibility:hidden;grid-column:1; grid-row:1"">mat</h1><h1 id=""word_5"" style=""visibility:hidden;grid-column:1; grid-row:1"">max</h1></div>","","","","","","","","","","","mad","man","map","mat","max","training","","","","","","","","","","","","",""
"","","","","","survey-text","269","777787","0.0-268.0-1.0","A1O4Q0QVPVBF8M","2022-05-19T02:22:38.920Z","task_switching-phon_sim-same_different-rhyme","","18924.20000000298","phon_sim","{""position_1"":""mad "",""position_2"":""man "",""position_3"":""map"",""position_4"":""mat"",""position_5"":""max""}","training","","","","","","","","","","","","","","","","","","mad ","man ","map","mat","max","","","","","","","",""
"","","","","","html-keyboard-response","270","782793","0.0-268.0-2.0","A1O4Q0QVPVBF8M","2022-05-19T02:22:38.920Z","task_switching-phon_sim-same_different-rhyme","","null","phon_sim","null","","<h1 id=""word_1"">mad</h1><h1 id=""word_2"">man</h1><h1 id=""word_3"">map</h1><h1 id=""word_4"">mat</h1><h1 id=""word_5"">max</h1>","","","","","","","","","","","","","","","","","","","","","","","","","","","","",""
"","","","","","html-keyboard-response","271","795799","0.0-268.0-0.1","A1O4Q0QVPVBF8M","2022-05-19T02:22:38.920Z","task_switching-phon_sim-same_different-rhyme","","null","phon_sim","null","training","<div style=""display:grid""><h1 id=""word_1"" style=""grid-column:1; grid-row:1"">pen</h1><h1 id=""word_2"" style=""visibility:hidden;grid-column:1; grid-row:1"">rig</h1><h1 id=""word_3"" style=""visibility:hidden;grid-column:1; grid-row:1"">day</h1><h1 id=""word_4"" style=""visibility:hidden;grid-column:1; grid-row:1"">bar</h1><h1 id=""word_5"" style=""visibility:hidden;grid-column:1; grid-row:1"">cow</h1></div>","","","","","","","","","","","pen","rig","day","bar","cow","training","","","","","","","","","","","","",""
"","","","","","survey-text","272","811973","0.0-268.0-1.1","A1O4Q0QVPVBF8M","2022-05-19T02:22:38.920Z","task_switching-phon_sim-same_different-rhyme","","16168.5","phon_sim","{""position_1"":""pen"",""position_2"":""rig"",""position_3"":"""",""position_4"":""day"",""position_5"":""cow""}","training","","","","","","","","","","","","","","","","","","pen","rig","","day","cow","","","","","","","",""
"","","","","","html-keyboard-response","273","816974","0.0-268.0-2.1","A1O4Q0QVPVBF8M","2022-05-19T02:22:38.920Z","task_switching-phon_sim-same_different-rhyme","","null","phon_sim","null","","<h1 id=""word_1"">pen</h1><h1 id=""word_2"">rig</h1><h1 id=""word_3"">day</h1><h1 id=""word_4"">bar</h1><h1 id=""word_5"">cow</h1>","","","","","","","","","","","","","","","","","","","","","","","","","","","","",""
"","","","","","instructions","274","818473","0.0-269.0","A1O4Q0QVPVBF8M","2022-05-19T02:22:38.920Z","task_switching-phon_sim-same_different-rhyme","[{""page_index"":0,""viewing_time"":1497.8999999910593}]","1498.0999999940395","","","","","","","","","","","","","","","","","","","","","","","","","","","","","","","","",""
"","","","","","html-keyboard-response","275","831485","0.0-270.0-0.0","A1O4Q0QVPVBF8M","2022-05-19T02:22:38.920Z","task_switching-phon_sim-same_different-rhyme","","null","phon_sim","null","experiment","<div style=""display:grid""><h1 id=""word_1"" style=""grid-column:1; grid-row:1"">through</h1><h1 id=""word_2"" style=""visibility:hidden;grid-column:1; grid-row:1"">cough</h1><h1 id=""word_3"" style=""visibility:hidden;grid-column:1; grid-row:1"">dough</h1><h1 id=""word_4"" style=""visibility:hidden;grid-column:1; grid-row:1"">rough</h1><h1 id=""word_5"" style=""visibility:hidden;grid-column:1; grid-row:1"">bough</h1></div>","","","","","","","","","","","through","cough","dough","rough","bough","orthoSet","","","","","","","","","","","","",""
"","","","","","survey-text","276","865675","0.0-270.0-1.0","A1O4Q0QVPVBF8M","2022-05-19T02:22:38.920Z","task_switching-phon_sim-same_different-rhyme","","34184.40000000596","phon_sim","{""position_1"":""through"",""position_2"":""rough"",""position_3"":"""",""position_4"":"""",""position_5"":""bough""}","experiment","","","","","","","","","","","","","","","","","","through","rough","","","bough","","","","","","","",""
"","","","","","html-keyboard-response","277","878677","0.0-270.0-0.1","A1O4Q0QVPVBF8M","2022-05-19T02:22:38.920Z","task_switching-phon_sim-same_different-rhyme","","null","phon_sim","null","experiment","<div style=""display:grid""><h1 id=""word_1"" style=""grid-column:1; grid-row:1"">dough</h1><h1 id=""word_2"" style=""visibility:hidden;grid-column:1; grid-row:1"">cough</h1><h1 id=""word_3"" style=""visibility:hidden;grid-column:1; grid-row:1"">rough</h1><h1 id=""word_4"" style=""visibility:hidden;grid-column:1; grid-row:1"">bough</h1><h1 id=""word_5"" style=""visibility:hidden;grid-column:1; grid-row:1"">through</h1></div>","","","","","","","","","","","dough","cough","rough","bough","through","orthoSet","","","","","","","","","","","","",""
