"success","timeout","failed_images","failed_audio","failed_video","trial_type","trial_index","time_elapsed","internal_node_id","worker_id","start_time","experiment_order","view_history","rt","experiment","stimulus","response","phase","word_1","word_2","word_3","word_4","word_5","original_word_set","response_1","response_2","response_3","response_4","response_5","question_order","talk_out_loud","strategy_free_ans","condition","answer","correct","operation","color_cue","trial_no","symbol_cue","wait_time","image_1","image_2","cor_key","type","judgment_type","stim_1","stim_2","inverted","true_pos","true_neg","false_neg","false_pos"
"true","false","[]","[]","[]","preload","0","2651","0.0-0.0","A3FNC8ELMK8YJA","2022-05-19T13:39:04.935Z","phon_sim-task_switching-rhyme-same_different","","","","","","","","","","","","","","","","","","","","","","","","","","","","","","","","","","","","","","","",""
"","","","","","instructions","1","450669","0.0-1.0","A3FNC8ELMK8YJA","2022-05-19T13:39:04.935Z","phon_sim-task_switching-rhyme-same_different","[{""page_index"":0,""viewing_time"":448015.3000000715}]","448016","","","","","","","","","","","","","","","","","","","","","","","","","","","","","","","","","","","","","",""
"true","","","","","fullscreen","2","454783","0.0-2.0","A3FNC8ELMK8YJA","2022-05-19T13:39:04.935Z","phon_sim-task_switching-rhyme-same_different","","","","","","","","","","","","","","","","","","","","","","","","","","","","","","","","","","","","","","","",""
"","","","","","instructions","3","482704","0.0-3.0","A3FNC8ELMK8YJA","2022-05-19T13:39:04.935Z","phon_sim-task_switching-rhyme-same_different","[{""page_index"":0,""viewing_time"":27918.699999928474}]","27919.299999952316","phon_sim","","","","","","","","","","","","","","","","","","","","","","","","","","","","","","","","","","","","",""
"","","","","","html-keyboard-response","4","495719","0.0-4.0-0.0","A3FNC8ELMK8YJA","2022-05-19T13:39:04.935Z","phon_sim-task_switching-rhyme-same_different","","null","phon_sim","<div style=""display:grid""><h1 id=""word_1"" style=""grid-column:1; grid-row:1"">pen</h1><h1 id=""word_2"" style=""visibility:hidden;grid-column:1; grid-row:1"">rig</h1><h1 id=""word_3"" style=""visibility:hidden;grid-column:1; grid-row:1"">day</h1><h1 id=""word_4"" style=""visibility:hidden;grid-column:1; grid-row:1"">bar</h1><h1 id=""word_5"" style=""visibility:hidden;grid-column:1; grid-row:1"">cow</h1></div>","null","training","pen","rig","day","bar","cow","training","","","","","","","","","","","","","","","","","","","","","","","","","","","",""
"","","","","","survey-text","5","511715","0.0-4.0-1.0","A3FNC8ELMK8YJA","2022-05-19T13:39:04.935Z","phon_sim-task_switching-rhyme-same_different","","15988.600000023842","phon_sim","","{""position_1"":""pen"",""position_2"":""rig"",""position_3"":""day"",""position_4"":""bar"",""position_5"":""cow""}","training","","","","","","","pen","rig","day","bar","cow","","","","","","","","","","","","","","","","","","","","","","",""
"","","","","","html-keyboard-response","6","516719","0.0-4.0-2.0","A3FNC8ELMK8YJA","2022-05-19T13:39:04.935Z","phon_sim-task_switching-rhyme-same_different","","null","phon_sim","<h1 id=""word_1"">pen</h1><h1 id=""word_2"">rig</h1><h1 id=""word_3"">day</h1><h1 id=""word_4"">bar</h1><h1 id=""word_5"">cow</h1>","null","","","","","","","","","","","","","","","","","","","","","","","","","","","","","","","","","","",""
"","","","","","html-keyboard-response","7","529752","0.0-4.0-0.1","A3FNC8ELMK8YJA","2022-05-19T13:39:04.935Z","phon_sim-task_switching-rhyme-same_different","","null","phon_sim","<div style=""display:grid""><h1 id=""word_1"" style=""grid-column:1; grid-row:1"">mad</h1><h1 id=""word_2"" style=""visibility:hidden;grid-column:1; grid-row:1"">man</h1><h1 id=""word_3"" style=""visibility:hidden;grid-column:1; grid-row:1"">map</h1><h1 id=""word_4"" style=""visibility:hidden;grid-column:1; grid-row:1"">mat</h1><h1 id=""word_5"" style=""visibility:hidden;grid-column:1; grid-row:1"">max</h1></div>","null","training","mad","man","map","mat","max","training","","","","","","","","","","","","","","","","","","","","","","","","","","","",""
"","","","","","survey-text","8","590239","0.0-4.0-1.1","A3FNC8ELMK8YJA","2022-05-19T13:39:04.935Z","phon_sim-task_switching-rhyme-same_different","","60480.39999997616","phon_sim","","{""position_1"":""mad"",""position_2"":""man"",""position_3"":""mat"",""position_4"":""max"",""position_5"":""may""}","training","","","","","","","mad","man","mat","max","may","","","","","","","","","","","","","","","","","","","","","","",""
"","","","","","html-keyboard-response","9","595245","0.0-4.0-2.1","A3FNC8ELMK8YJA","2022-05-19T13:39:04.935Z","phon_sim-task_switching-rhyme-same_different","","null","phon_sim","<h1 id=""word_1"">mad</h1><h1 id=""word_2"">man</h1><h1 id=""word_3"">map</h1><h1 id=""word_4"">mat</h1><h1 id=""word_5"">max</h1>","null","","","","","","","","","","","","","","","","","","","","","","","","","","","","","","","","","","",""
"","","","","","instructions","10","649337","0.0-5.0","A3FNC8ELMK8YJA","2022-05-19T13:39:04.935Z","phon_sim-task_switching-rhyme-same_different","[{""page_index"":0,""viewing_time"":54090.40000009537}]","54091","","","","","","","","","","","","","","","","","","","","","","","","","","","","","","","","","","","","","",""
"","","","","","html-keyboard-response","11","662353","0.0-6.0-0.0","A3FNC8ELMK8YJA","2022-05-19T13:39:04.935Z","phon_sim-task_switching-rhyme-same_different","","null","phon_sim","<div style=""display:grid""><h1 id=""word_1"" style=""grid-column:1; grid-row:1"">row</h1><h1 id=""word_2"" style=""visibility:hidden;grid-column:1; grid-row:1"">board</h1><h1 id=""word_3"" style=""visibility:hidden;grid-column:1; grid-row:1"">plea</h1><h1 id=""word_4"" style=""visibility:hidden;grid-column:1; grid-row:1"">sleigh</h1><h1 id=""word_5"" style=""visibility:hidden;grid-column:1; grid-row:1"">friend</h1></div>","null","experiment","row","board","plea","sleigh","friend","controlSet","","","","","","","","","","","","","","","","","","","","","","","","","","","",""
"","","","","","survey-text","12","686614","0.0-6.0-1.0","A3FNC8ELMK8YJA","2022-05-19T13:39:04.935Z","phon_sim-task_switching-rhyme-same_different","","24246.200000047684","phon_sim","","{""position_1"":""row"",""position_2"":""board"",""position_3"":""plea"",""position_4"":""sleigh"",""position_5"":""friend""}","experiment","","","","","","","row","board","plea","sleigh","friend","","","","","","","","","","","","","","","","","","","","","","",""
"","","","","","html-keyboard-response","13","699624","0.0-6.0-0.1","A3FNC8ELMK8YJA","2022-05-19T13:39:04.935Z","phon_sim-task_switching-rhyme-same_different","","null","phon_sim","<div style=""display:grid""><h1 id=""word_1"" style=""grid-column:1; grid-row:1"">bought</h1><h1 id=""word_2"" style=""visibility:hidden;grid-column:1; grid-row:1"">taut</h1><h1 id=""word_3"" style=""visibility:hidden;grid-column:1; grid-row:1"">caught</h1><h1 id=""word_4"" style=""visibility:hidden;grid-column:1; grid-row:1"">wart</h1><h1 id=""word_5"" style=""visibility:hidden;grid-column:1; grid-row:1"">sort</h1></div>","null","experiment","bought","taut","caught","wart","sort","phonSet","","","","","","","","","","","","","","","","","","","","","","","","","","","",""
"","","","","","survey-text","14","720933","0.0-6.0-1.1","A3FNC8ELMK8YJA","2022-05-19T13:39:04.935Z","phon_sim-task_switching-rhyme-same_different","","21296.600000023842","phon_sim","","{""position_1"":""bought"",""position_2"":""taut"",""position_3"":""caught"",""position_4"":""wart"",""position_5"":""sort""}","experiment","","","","","","","bought","taut","caught","wart","sort","","","","","","","","","","","","","","","","","","","","","","",""
"","","","","","html-keyboard-response","15","733949","0.0-6.0-0.2","A3FNC8ELMK8YJA","2022-05-19T13:39:04.935Z","phon_sim-task_switching-rhyme-same_different","","null","phon_sim","<div style=""display:grid""><h1 id=""word_1"" style=""grid-column:1; grid-row:1"">dough</h1><h1 id=""word_2"" style=""visibility:hidden;grid-column:1; grid-row:1"">through</h1><h1 id=""word_3"" style=""visibility:hidden;grid-column:1; grid-row:1"">cough</h1><h1 id=""word_4"" style=""visibility:hidden;grid-column:1; grid-row:1"">rough</h1><h1 id=""word_5"" style=""visibility:hidden;grid-column:1; grid-row:1"">bough</h1></div>","null","experiment","dough","through","cough","rough","bough","orthoSet","","","","","","","","","","","","","","","","","","","","","","","","","","","",""
"","","","","","survey-text","16","763179","0.0-6.0-1.2","A3FNC8ELMK8YJA","2022-05-19T13:39:04.935Z","phon_sim-task_switching-rhyme-same_different","","29216.899999976158","phon_sim","","{""position_1"":""dough"",""position_2"":""through"",""position_3"":""cough"",""position_4"":""rough"",""position_5"":""bough""}","experiment","","","","","","","dough","through","cough","rough","bough","","","","","","","","","","","","","","","","","","","","","","",""
"","","","","","html-keyboard-response","17","776189","0.0-6.0-0.3","A3FNC8ELMK8YJA","2022-05-19T13:39:04.935Z","phon_sim-task_switching-rhyme-same_different","","null","phon_sim","<div style=""display:grid""><h1 id=""word_1"" style=""grid-column:1; grid-row:1"">board</h1><h1 id=""word_2"" style=""visibility:hidden;grid-column:1; grid-row:1"">row</h1><h1 id=""word_3"" style=""visibility:hidden;grid-column:1; grid-row:1"">plea</h1><h1 id=""word_4"" style=""visibility:hidden;grid-column:1; grid-row:1"">friend</h1><h1 id=""word_5"" style=""visibility:hidden;grid-column:1; grid-row:1"">sleigh</h1></div>","null","experiment","board","row","plea","friend","sleigh","controlSet","","","","","","","","","","","","","","","","","","","","","","","","","","","",""
"","","","","","survey-text","18","798923","0.0-6.0-1.3","A3FNC8ELMK8YJA","2022-05-19T13:39:04.935Z","phon_sim-task_switching-rhyme-same_different","","22718.600000023842","phon_sim","","{""position_1"":""board"",""position_2"":""row"",""position_3"":""plea"",""position_4"":""friend"",""position_5"":""sleigh""}","experiment","","","","","","","board","row","plea","friend","sleigh","","","","","","","","","","","","","","","","","","","","","","",""
"","","","","","html-keyboard-response","19","811935","0.0-6.0-0.4","A3FNC8ELMK8YJA","2022-05-19T13:39:04.935Z","phon_sim-task_switching-rhyme-same_different","","null","phon_sim","<div style=""display:grid""><h1 id=""word_1"" style=""grid-column:1; grid-row:1"">dough</h1><h1 id=""word_2"" style=""visibility:hidden;grid-column:1; grid-row:1"">cough</h1><h1 id=""word_3"" style=""visibility:hidden;grid-column:1; grid-row:1"">through</h1><h1 id=""word_4"" style=""visibility:hidden;grid-column:1; grid-row:1"">bough</h1><h1 id=""word_5"" style=""visibility:hidden;grid-column:1; grid-row:1"">rough</h1></div>","null","experiment","dough","cough","through","bough","rough","orthoSet","","","","","","","","","","","","","","","","","","","","","","","","","","","",""
"","","","","","survey-text","20","849823","0.0-6.0-1.4","A3FNC8ELMK8YJA","2022-05-19T13:39:04.935Z","phon_sim-task_switching-rhyme-same_different","","37874.89999997616","phon_sim","","{""position_1"":""cough"",""position_2"":""through"",""position_3"":""bought"",""position_4"":""rough"",""position_5"":""clough""}","experiment","","","","","","","cough","through","bought","rough","clough","","","","","","","","","","","","","","","","","","","","","","",""
"","","","","","html-keyboard-response","21","862829","0.0-6.0-0.5","A3FNC8ELMK8YJA","2022-05-19T13:39:04.935Z","phon_sim-task_switching-rhyme-same_different","","null","phon_sim","<div style=""display:grid""><h1 id=""word_1"" style=""grid-column:1; grid-row:1"">through</h1><h1 id=""word_2"" style=""visibility:hidden;grid-column:1; grid-row:1"">cough</h1><h1 id=""word_3"" style=""visibility:hidden;grid-column:1; grid-row:1"">rough</h1><h1 id=""word_4"" style=""visibility:hidden;grid-column:1; grid-row:1"">bough</h1><h1 id=""word_5"" style=""visibility:hidden;grid-column:1; grid-row:1"">dough</h1></div>","null","experiment","through","cough","rough","bough","dough","orthoSet","","","","","","","","","","","","","","","","","","","","","","","","","","","",""
"","","","","","survey-text","22","895185","0.0-6.0-1.5","A3FNC8ELMK8YJA","2022-05-19T13:39:04.935Z","phon_sim-task_switching-rhyme-same_different","","32342.299999952316","phon_sim","","{""position_1"":""through"",""position_2"":""cough"",""position_3"":""rough"",""position_4"":""bough"",""position_5"":""dough""}","experiment","","","","","","","through","cough","rough","bough","dough","","","","","","","","","","","","","","","","","","","","","","",""
"","","","","","html-keyboard-response","23","908199","0.0-6.0-0.6","A3FNC8ELMK8YJA","2022-05-19T13:39:04.935Z","phon_sim-task_switching-rhyme-same_different","","null","phon_sim","<div style=""display:grid""><h1 id=""word_1"" style=""grid-column:1; grid-row:1"">cough</h1><h1 id=""word_2"" style=""visibility:hidden;grid-column:1; grid-row:1"">rough</h1><h1 id=""word_3"" style=""visibility:hidden;grid-column:1; grid-row:1"">bough</h1><h1 id=""word_4"" style=""visibility:hidden;grid-column:1; grid-row:1"">dough</h1><h1 id=""word_5"" style=""visibility:hidden;grid-column:1; grid-row:1"">through</h1></div>","null","experiment","cough","rough","bough","dough","through","orthoSet","","","","","","","","","","","","","","","","","","","","","","","","","","","",""
"","","","","","survey-text","24","932378","0.0-6.0-1.6","A3FNC8ELMK8YJA","2022-05-19T13:39:04.935Z","phon_sim-task_switching-rhyme-same_different","","24163.399999976158","phon_sim","","{""position_1"":""cough"",""position_2"":""rough"",""position_3"":""bough"",""position_4"":""dough"",""position_5"":""through""}","experiment","","","","","","","cough","rough","bough","dough","through","","","","","","","","","","","","","","","","","","","","","","",""
"","","","","","html-keyboard-response","25","945394","0.0-6.0-0.7","A3FNC8ELMK8YJA","2022-05-19T13:39:04.935Z","phon_sim-task_switching-rhyme-same_different","","null","phon_sim","<div style=""display:grid""><h1 id=""word_1"" style=""grid-column:1; grid-row:1"">sleigh</h1><h1 id=""word_2"" style=""visibility:hidden;grid-column:1; grid-row:1"">row</h1><h1 id=""word_3"" style=""visibility:hidden;grid-column:1; grid-row:1"">board</h1><h1 id=""word_4"" style=""visibility:hidden;grid-column:1; grid-row:1"">friend</h1><h1 id=""word_5"" style=""visibility:hidden;grid-column:1; grid-row:1"">plea</h1></div>","null","experiment","sleigh","row","board","friend","plea","controlSet","","","","","","","","","","","","","","","","","","","","","","","","","","","",""
"","","","","","survey-text","26","970506","0.0-6.0-1.7","A3FNC8ELMK8YJA","2022-05-19T13:39:04.935Z","phon_sim-task_switching-rhyme-same_different","","25090.899999976158","phon_sim","","{""position_1"":""sleigh"",""position_2"":""row"",""position_3"":""board"",""position_4"":""friend"",""position_5"":""plea""}","experiment","","","","","","","sleigh","row","board","friend","plea","","","","","","","","","","","","","","","","","","","","","","",""
"","","","","","html-keyboard-response","27","983514","0.0-6.0-0.8","A3FNC8ELMK8YJA","2022-05-19T13:39:04.935Z","phon_sim-task_switching-rhyme-same_different","","null","phon_sim","<div style=""display:grid""><h1 id=""word_1"" style=""grid-column:1; grid-row:1"">sleigh</h1><h1 id=""word_2"" style=""visibility:hidden;grid-column:1; grid-row:1"">board</h1><h1 id=""word_3"" style=""visibility:hidden;grid-column:1; grid-row:1"">friend</h1><h1 id=""word_4"" style=""visibility:hidden;grid-column:1; grid-row:1"">row</h1><h1 id=""word_5"" style=""visibility:hidden;grid-column:1; grid-row:1"">plea</h1></div>","null","experiment","sleigh","board","friend","row","plea","controlSet","","","","","","","","","","","","","","","","","","","","","","","","","","","",""
"","","","","","survey-text","28","1019952","0.0-6.0-1.8","A3FNC8ELMK8YJA","2022-05-19T13:39:04.935Z","phon_sim-task_switching-rhyme-same_different","","36422.299999952316","phon_sim","","{""position_1"":""sleigh"",""position_2"":""board"",""position_3"":""friend"",""position_4"":""row"",""position_5"":""plea""}","experiment","","","","","","","sleigh","board","friend","row","plea","","","","","","","","","","","","","","","","","","","","","","",""
"","","","","","html-keyboard-response","29","1032961","0.0-6.0-0.9","A3FNC8ELMK8YJA","2022-05-19T13:39:04.935Z","phon_sim-task_switching-rhyme-same_different","","null","phon_sim","<div style=""display:grid""><h1 id=""word_1"" style=""grid-column:1; grid-row:1"">plea</h1><h1 id=""word_2"" style=""visibility:hidden;grid-column:1; grid-row:1"">board</h1><h1 id=""word_3"" style=""visibility:hidden;grid-column:1; grid-row:1"">row</h1><h1 id=""word_4"" style=""visibility:hidden;grid-column:1; grid-row:1"">friend</h1><h1 id=""word_5"" style=""visibility:hidden;grid-column:1; grid-row:1"">sleigh</h1></div>","null","experiment","plea","board","row","friend","sleigh","controlSet","","","","","","","","","","","","","","","","","","","","","","","","","","","",""
"","","","","","survey-text","30","1056116","0.0-6.0-1.9","A3FNC8ELMK8YJA","2022-05-19T13:39:04.935Z","phon_sim-task_switching-rhyme-same_different","","23141.800000071526","phon_sim","","{""position_1"":""plea"",""position_2"":""board"",""position_3"":""row"",""position_4"":""friend"",""position_5"":""plea""}","experiment","","","","","","","plea","board","row","friend","plea","","","","","","","","","","","","","","","","","","","","","","",""
"","","","","","html-keyboard-response","31","1069130","0.0-6.0-0.10","A3FNC8ELMK8YJA","2022-05-19T13:39:04.935Z","phon_sim-task_switching-rhyme-same_different","","null","phon_sim","<div style=""display:grid""><h1 id=""word_1"" style=""grid-column:1; grid-row:1"">through</h1><h1 id=""word_2"" style=""visibility:hidden;grid-column:1; grid-row:1"">cough</h1><h1 id=""word_3"" style=""visibility:hidden;grid-column:1; grid-row:1"">bough</h1><h1 id=""word_4"" style=""visibility:hidden;grid-column:1; grid-row:1"">rough</h1><h1 id=""word_5"" style=""visibility:hidden;grid-column:1; grid-row:1"">dough</h1></div>","null","experiment","through","cough","bough","rough","dough","orthoSet","","","","","","","","","","","","","","","","","","","","","","","","","","","",""
"","","","","","survey-text","32","1091426","0.0-6.0-1.10","A3FNC8ELMK8YJA","2022-05-19T13:39:04.935Z","phon_sim-task_switching-rhyme-same_different","","22283.600000023842","phon_sim","","{""position_1"":""through"",""position_2"":""cough"",""position_3"":""bough"",""position_4"":""rough"",""position_5"":""dough""}","experiment","","","","","","","through","cough","bough","rough","dough","","","","","","","","","","","","","","","","","","","","","","",""
"","","","","","html-keyboard-response","33","1104430","0.0-6.0-0.11","A3FNC8ELMK8YJA","2022-05-19T13:39:04.935Z","phon_sim-task_switching-rhyme-same_different","","null","phon_sim","<div style=""display:grid""><h1 id=""word_1"" style=""grid-column:1; grid-row:1"">friend</h1><h1 id=""word_2"" style=""visibility:hidden;grid-column:1; grid-row:1"">sleigh</h1><h1 id=""word_3"" style=""visibility:hidden;grid-column:1; grid-row:1"">plea</h1><h1 id=""word_4"" style=""visibility:hidden;grid-column:1; grid-row:1"">row</h1><h1 id=""word_5"" style=""visibility:hidden;grid-column:1; grid-row:1"">board</h1></div>","null","experiment","friend","sleigh","plea","row","board","controlSet","","","","","","","","","","","","","","","","","","","","","","","","","","","",""
"","","","","","survey-text","34","1127088","0.0-6.0-1.11","A3FNC8ELMK8YJA","2022-05-19T13:39:04.935Z","phon_sim-task_switching-rhyme-same_different","","22642.600000023842","phon_sim","","{""position_1"":""friend"",""position_2"":""sleigh"",""position_3"":""plea"",""position_4"":""row"",""position_5"":""board""}","experiment","","","","","","","friend","sleigh","plea","row","board","","","","","","","","","","","","","","","","","","","","","","",""
"","","","","","html-keyboard-response","35","1140105","0.0-6.0-0.12","A3FNC8ELMK8YJA","2022-05-19T13:39:04.935Z","phon_sim-task_switching-rhyme-same_different","","null","phon_sim","<div style=""display:grid""><h1 id=""word_1"" style=""grid-column:1; grid-row:1"">wart</h1><h1 id=""word_2"" style=""visibility:hidden;grid-column:1; grid-row:1"">sort</h1><h1 id=""word_3"" style=""visibility:hidden;grid-column:1; grid-row:1"">caught</h1><h1 id=""word_4"" style=""visibility:hidden;grid-column:1; grid-row:1"">bought</h1><h1 id=""word_5"" style=""visibility:hidden;grid-column:1; grid-row:1"">taut</h1></div>","null","experiment","wart","sort","caught","bought","taut","phonSet","","","","","","","","","","","","","","","","","","","","","","","","","","","",""
"","","","","","survey-text","36","1584984","0.0-6.0-1.12","A3FNC8ELMK8YJA","2022-05-19T13:39:04.935Z","phon_sim-task_switching-rhyme-same_different","","444838.59999990463","phon_sim","","{""position_1"":""wart"",""position_2"":""sort"",""position_3"":""caught"",""position_4"":""bought"",""position_5"":""taut""}","experiment","","","","","","","wart","sort","caught","bought","taut","","","","","","","","","","","","","","","","","","","","","","",""
"","","","","","html-keyboard-response","37","1597993","0.0-6.0-0.13","A3FNC8ELMK8YJA","2022-05-19T13:39:04.935Z","phon_sim-task_switching-rhyme-same_different","","null","phon_sim","<div style=""display:grid""><h1 id=""word_1"" style=""grid-column:1; grid-row:1"">rough</h1><h1 id=""word_2"" style=""visibility:hidden;grid-column:1; grid-row:1"">dough</h1><h1 id=""word_3"" style=""visibility:hidden;grid-column:1; grid-row:1"">through</h1><h1 id=""word_4"" style=""visibility:hidden;grid-column:1; grid-row:1"">bough</h1><h1 id=""word_5"" style=""visibility:hidden;grid-column:1; grid-row:1"">cough</h1></div>","null","experiment","rough","dough","through","bough","cough","orthoSet","","","","","","","","","","","","","","","","","","","","","","","","","","","",""
"","","","","","survey-text","38","1618547","0.0-6.0-1.13","A3FNC8ELMK8YJA","2022-05-19T13:39:04.935Z","phon_sim-task_switching-rhyme-same_different","","20541.600000023842","phon_sim","","{""position_1"":""rough"",""position_2"":""dough"",""position_3"":""through"",""position_4"":""bough"",""position_5"":""cough""}","experiment","","","","","","","rough","dough","through","bough","cough","","","","","","","","","","","","","","","","","","","","","","",""
"","","","","","html-keyboard-response","39","1631561","0.0-6.0-0.14","A3FNC8ELMK8YJA","2022-05-19T13:39:04.935Z","phon_sim-task_switching-rhyme-same_different","","null","phon_sim","<div style=""display:grid""><h1 id=""word_1"" style=""grid-column:1; grid-row:1"">caught</h1><h1 id=""word_2"" style=""visibility:hidden;grid-column:1; grid-row:1"">taut</h1><h1 id=""word_3"" style=""visibility:hidden;grid-column:1; grid-row:1"">sort</h1><h1 id=""word_4"" style=""visibility:hidden;grid-column:1; grid-row:1"">wart</h1><h1 id=""word_5"" style=""visibility:hidden;grid-column:1; grid-row:1"">bought</h1></div>","null","experiment","caught","taut","sort","wart","bought","phonSet","","","","","","","","","","","","","","","","","","","","","","","","","","","",""
"","","","","","survey-text","40","1702620","0.0-6.0-1.14","A3FNC8ELMK8YJA","2022-05-19T13:39:04.935Z","phon_sim-task_switching-rhyme-same_different","","71045.79999995232","phon_sim","","{""position_1"":""caught"",""position_2"":""taut"",""position_3"":""sort"",""position_4"":""wart"",""position_5"":""bough""}","experiment","","","","","","","caught","taut","sort","wart","bough","","","","","","","","","","","","","","","","","","","","","","",""
"","","","","","html-keyboard-response","41","1715630","0.0-6.0-0.15","A3FNC8ELMK8YJA","2022-05-19T13:39:04.935Z","phon_sim-task_switching-rhyme-same_different","","null","phon_sim","<div style=""display:grid""><h1 id=""word_1"" style=""grid-column:1; grid-row:1"">taut</h1><h1 id=""word_2"" style=""visibility:hidden;grid-column:1; grid-row:1"">bought</h1><h1 id=""word_3"" style=""visibility:hidden;grid-column:1; grid-row:1"">sort</h1><h1 id=""word_4"" style=""visibility:hidden;grid-column:1; grid-row:1"">wart</h1><h1 id=""word_5"" style=""visibility:hidden;grid-column:1; grid-row:1"">caught</h1></div>","null","experiment","taut","bought","sort","wart","caught","phonSet","","","","","","","","","","","","","","","","","","","","","","","","","","","",""
"","","","","","survey-text","42","1735106","0.0-6.0-1.15","A3FNC8ELMK8YJA","2022-05-19T13:39:04.935Z","phon_sim-task_switching-rhyme-same_different","","19462.5","phon_sim","","{""position_1"":""taut"",""position_2"":""bought"",""position_3"":""sort"",""position_4"":""wart"",""position_5"":""caught""}","experiment","","","","","","","taut","bought","sort","wart","caught","","","","","","","","","","","","","","","","","","","","","","",""
"","","","","","html-keyboard-response","43","1748121","0.0-6.0-0.16","A3FNC8ELMK8YJA","2022-05-19T13:39:04.935Z","phon_sim-task_switching-rhyme-same_different","","null","phon_sim","<div style=""display:grid""><h1 id=""word_1"" style=""grid-column:1; grid-row:1"">cough</h1><h1 id=""word_2"" style=""visibility:hidden;grid-column:1; grid-row:1"">bough</h1><h1 id=""word_3"" style=""visibility:hidden;grid-column:1; grid-row:1"">rough</h1><h1 id=""word_4"" style=""visibility:hidden;grid-column:1; grid-row:1"">dough</h1><h1 id=""word_5"" style=""visibility:hidden;grid-column:1; grid-row:1"">through</h1></div>","null","experiment","cough","bough","rough","dough","through","orthoSet","","","","","","","","","","","","","","","","","","","","","","","","","","","",""
"","","","","","survey-text","44","1779375","0.0-6.0-1.16","A3FNC8ELMK8YJA","2022-05-19T13:39:04.935Z","phon_sim-task_switching-rhyme-same_different","","31247.700000047684","phon_sim","","{""position_1"":""cough"",""position_2"":""bough"",""position_3"":""rough"",""position_4"":""dough"",""position_5"":""through""}","experiment","","","","","","","cough","bough","rough","dough","through","","","","","","","","","","","","","","","","","","","","","","",""
"","","","","","html-keyboard-response","45","1792393","0.0-6.0-0.17","A3FNC8ELMK8YJA","2022-05-19T13:39:04.935Z","phon_sim-task_switching-rhyme-same_different","","null","phon_sim","<div style=""display:grid""><h1 id=""word_1"" style=""grid-column:1; grid-row:1"">plea</h1><h1 id=""word_2"" style=""visibility:hidden;grid-column:1; grid-row:1"">sleigh</h1><h1 id=""word_3"" style=""visibility:hidden;grid-column:1; grid-row:1"">row</h1><h1 id=""word_4"" style=""visibility:hidden;grid-column:1; grid-row:1"">friend</h1><h1 id=""word_5"" style=""visibility:hidden;grid-column:1; grid-row:1"">board</h1></div>","null","experiment","plea","sleigh","row","friend","board","controlSet","","","","","","","","","","","","","","","","","","","","","","","","","","","",""
"","","","","","survey-text","46","1818097","0.0-6.0-1.17","A3FNC8ELMK8YJA","2022-05-19T13:39:04.935Z","phon_sim-task_switching-rhyme-same_different","","25689.5","phon_sim","","{""position_1"":""plea"",""position_2"":""sleigh"",""position_3"":""row"",""position_4"":""friend"",""position_5"":""board""}","experiment","","","","","","","plea","sleigh","row","friend","board","","","","","","","","","","","","","","","","","","","","","","",""
"","","","","","html-keyboard-response","47","1831111","0.0-6.0-0.18","A3FNC8ELMK8YJA","2022-05-19T13:39:04.935Z","phon_sim-task_switching-rhyme-same_different","","null","phon_sim","<div style=""display:grid""><h1 id=""word_1"" style=""grid-column:1; grid-row:1"">wart</h1><h1 id=""word_2"" style=""visibility:hidden;grid-column:1; grid-row:1"">taut</h1><h1 id=""word_3"" style=""visibility:hidden;grid-column:1; grid-row:1"">sort</h1><h1 id=""word_4"" style=""visibility:hidden;grid-column:1; grid-row:1"">caught</h1><h1 id=""word_5"" style=""visibility:hidden;grid-column:1; grid-row:1"">bought</h1></div>","null","experiment","wart","taut","sort","caught","bought","phonSet","","","","","","","","","","","","","","","","","","","","","","","","","","","",""
"","","","","","survey-text","48","1856371","0.0-6.0-1.18","A3FNC8ELMK8YJA","2022-05-19T13:39:04.935Z","phon_sim-task_switching-rhyme-same_different","","25245.399999976158","phon_sim","","{""position_1"":""wart"",""position_2"":""taut"",""position_3"":""sort"",""position_4"":""caught"",""position_5"":""bought""}","experiment","","","","","","","wart","taut","sort","caught","bought","","","","","","","","","","","","","","","","","","","","","","",""
"","","","","","html-keyboard-response","49","1869387","0.0-6.0-0.19","A3FNC8ELMK8YJA","2022-05-19T13:39:04.935Z","phon_sim-task_switching-rhyme-same_different","","null","phon_sim","<div style=""display:grid""><h1 id=""word_1"" style=""grid-column:1; grid-row:1"">sleigh</h1><h1 id=""word_2"" style=""visibility:hidden;grid-column:1; grid-row:1"">friend</h1><h1 id=""word_3"" style=""visibility:hidden;grid-column:1; grid-row:1"">plea</h1><h1 id=""word_4"" style=""visibility:hidden;grid-column:1; grid-row:1"">board</h1><h1 id=""word_5"" style=""visibility:hidden;grid-column:1; grid-row:1"">row</h1></div>","null","experiment","sleigh","friend","plea","board","row","controlSet","","","","","","","","","","","","","","","","","","","","","","","","","","","",""
"","","","","","survey-text","50","1892483","0.0-6.0-1.19","A3FNC8ELMK8YJA","2022-05-19T13:39:04.935Z","phon_sim-task_switching-rhyme-same_different","","23089.099999904633","phon_sim","","{""position_1"":""sleigh"",""position_2"":""friend"",""position_3"":""plea"",""position_4"":""board"",""position_5"":""row""}","experiment","","","","","","","sleigh","friend","plea","board","row","","","","","","","","","","","","","","","","","","","","","","",""
"","","","","","html-keyboard-response","51","1905499","0.0-6.0-0.20","A3FNC8ELMK8YJA","2022-05-19T13:39:04.935Z","phon_sim-task_switching-rhyme-same_different","","null","phon_sim","<div style=""display:grid""><h1 id=""word_1"" style=""grid-column:1; grid-row:1"">bought</h1><h1 id=""word_2"" style=""visibility:hidden;grid-column:1; grid-row:1"">sort</h1><h1 id=""word_3"" style=""visibility:hidden;grid-column:1; grid-row:1"">taut</h1><h1 id=""word_4"" style=""visibility:hidden;grid-column:1; grid-row:1"">wart</h1><h1 id=""word_5"" style=""visibility:hidden;grid-column:1; grid-row:1"">caught</h1></div>","null","experiment","bought","sort","taut","wart","caught","phonSet","","","","","","","","","","","","","","","","","","","","","","","","","","","",""
"","","","","","survey-text","52","1929245","0.0-6.0-1.20","A3FNC8ELMK8YJA","2022-05-19T13:39:04.935Z","phon_sim-task_switching-rhyme-same_different","","23735.399999976158","phon_sim","","{""position_1"":""bought"",""position_2"":""sort"",""position_3"":""taut"",""position_4"":""wart"",""position_5"":""caught""}","experiment","","","","","","","bought","sort","taut","wart","caught","","","","","","","","","","","","","","","","","","","","","","",""
"","","","","","html-keyboard-response","53","1942256","0.0-6.0-0.21","A3FNC8ELMK8YJA","2022-05-19T13:39:04.935Z","phon_sim-task_switching-rhyme-same_different","","null","phon_sim","<div style=""display:grid""><h1 id=""word_1"" style=""grid-column:1; grid-row:1"">through</h1><h1 id=""word_2"" style=""visibility:hidden;grid-column:1; grid-row:1"">dough</h1><h1 id=""word_3"" style=""visibility:hidden;grid-column:1; grid-row:1"">cough</h1><h1 id=""word_4"" style=""visibility:hidden;grid-column:1; grid-row:1"">bough</h1><h1 id=""word_5"" style=""visibility:hidden;grid-column:1; grid-row:1"">rough</h1></div>","null","experiment","through","dough","cough","bough","rough","orthoSet","","","","","","","","","","","","","","","","","","","","","","","","","","","",""
"","","","","","survey-text","54","2094224","0.0-6.0-1.21","A3FNC8ELMK8YJA","2022-05-19T13:39:04.935Z","phon_sim-task_switching-rhyme-same_different","","151954.10000002384","phon_sim","","{""position_1"":""through"",""position_2"":""dough"",""position_3"":""cough"",""position_4"":""bought"",""position_5"":""rough""}","experiment","","","","","","","through","dough","cough","bought","rough","","","","","","","","","","","","","","","","","","","","","","",""
"","","","","","html-keyboard-response","55","2107239","0.0-6.0-0.22","A3FNC8ELMK8YJA","2022-05-19T13:39:04.935Z","phon_sim-task_switching-rhyme-same_different","","null","phon_sim","<div style=""display:grid""><h1 id=""word_1"" style=""grid-column:1; grid-row:1"">sort</h1><h1 id=""word_2"" style=""visibility:hidden;grid-column:1; grid-row:1"">taut</h1><h1 id=""word_3"" style=""visibility:hidden;grid-column:1; grid-row:1"">bought</h1><h1 id=""word_4"" style=""visibility:hidden;grid-column:1; grid-row:1"">wart</h1><h1 id=""word_5"" style=""visibility:hidden;grid-column:1; grid-row:1"">caught</h1></div>","null","experiment","sort","taut","bought","wart","caught","phonSet","","","","","","","","","","","","","","","","","","","","","","","","","","","",""
"","","","","","survey-text","56","2139782","0.0-6.0-1.22","A3FNC8ELMK8YJA","2022-05-19T13:39:04.935Z","phon_sim-task_switching-rhyme-same_different","","32528.799999952316","phon_sim","","{""position_1"":""sort"",""position_2"":""taut"",""position_3"":""bought"",""position_4"":""wart"",""position_5"":""caught""}","experiment","","","","","","","sort","taut","bought","wart","caught","","","","","","","","","","","","","","","","","","","","","","",""
"","","","","","html-keyboard-response","57","2152799","0.0-6.0-0.23","A3FNC8ELMK8YJA","2022-05-19T13:39:04.935Z","phon_sim-task_switching-rhyme-same_different","","null","phon_sim","<div style=""display:grid""><h1 id=""word_1"" style=""grid-column:1; grid-row:1"">bought</h1><h1 id=""word_2"" style=""visibility:hidden;grid-column:1; grid-row:1"">sort</h1><h1 id=""word_3"" style=""visibility:hidden;grid-column:1; grid-row:1"">caught</h1><h1 id=""word_4"" style=""visibility:hidden;grid-column:1; grid-row:1"">wart</h1><h1 id=""word_5"" style=""visibility:hidden;grid-column:1; grid-row:1"">taut</h1></div>","null","experiment","bought","sort","caught","wart","taut","phonSet","","","","","","","","","","","","","","","","","","","","","","","","","","","",""
"","","","","","survey-text","58","2172255","0.0-6.0-1.23","A3FNC8ELMK8YJA","2022-05-19T13:39:04.935Z","phon_sim-task_switching-rhyme-same_different","","19443.600000023842","phon_sim","","{""position_1"":""bought"",""position_2"":""thought"",""position_3"":""sort"",""position_4"":""wart"",""position_5"":""taut""}","experiment","","","","","","","bought","thought","sort","wart","taut","","","","","","","","","","","","","","","","","","","","","","",""
"","","","","","survey-multi-choice","59","2177277","0.0-7.0","A3FNC8ELMK8YJA","2022-05-19T13:39:04.935Z","phon_sim-task_switching-rhyme-same_different","","5016.299999952316","phon_sim","","{""Q0"":""No""}","","","","","","","","","","","","","[0]","No","","","","","","","","","","","","","","","","","","","","",""
"","","","","","survey-text","60","2180757","0.0-8.0","A3FNC8ELMK8YJA","2022-05-19T13:39:04.935Z","phon_sim-task_switching-rhyme-same_different","","3454.100000023842","phon_sim","","{""Q0"":""""}","","","","","","","","","","","","","","","","","","","","","","","","","","","","","","","","","","",""
"","","","","","instructions","61","2182621","0.0-9.0","A3FNC8ELMK8YJA","2022-05-19T13:39:04.935Z","phon_sim-task_switching-rhyme-same_different","[{""page_index"":0,""viewing_time"":1860.6000000238419}]","1861.1000000238419","phon_sim","","","","","","","","","","","","","","","","","","","","","","","","","","","","","","","","","","","","",""
"","","","","","instructions","62","2207358","0.0-10.0","A3FNC8ELMK8YJA","2022-05-19T13:39:04.935Z","phon_sim-task_switching-rhyme-same_different","[{""page_index"":0,""viewing_time"":24735.899999976158}]","24736.5","task_switching","","","","","","","","","","","","","","","","","","","","","","","","","","","","","","","","","","","","",""
"","","","","","instructions","63","2213425","0.0-11.0","A3FNC8ELMK8YJA","2022-05-19T13:39:04.935Z","phon_sim-task_switching-rhyme-same_different","[{""page_index"":0,""viewing_time"":6064.100000023842}]","6064.400000095367","task_switching","","","","","","","","","","","","","","","","","","","","","","","","","","","","","","","","","","","","",""
"","","","","","survey-text","64","2217459","0.0-12.0","A3FNC8ELMK8YJA","2022-05-19T13:39:04.935Z","phon_sim-task_switching-rhyme-same_different","","4018.399999976158","task_switching","21","{""subtraction_ans"":""18""}","training","","","","","","","","","","","","","","","subtraction","18","true","subtract","","","","","","","","","","","","","","","",""
"","","","","","html-keyboard-response","65","2218474","0.0-13.0","A3FNC8ELMK8YJA","2022-05-19T13:39:04.935Z","phon_sim-task_switching-rhyme-same_different","","null","task_switching","<div style=""color:darkgreen; font-size:60px"">Well done!</div>","null","training","","","","","","","","","","","","","","","subtraction","","","","","","","","","","","","","","","","","","",""
"","","","","","survey-text","66","2220915","0.0-14.0","A3FNC8ELMK8YJA","2022-05-19T13:39:04.935Z","phon_sim-task_switching-rhyme-same_different","","2426.100000023842","task_switching","37","{""subtraction_ans"":""34""}","training","","","","","","","","","","","","","","","subtraction","34","true","subtract","","","","","","","","","","","","","","","",""
"","","","","","html-keyboard-response","67","2221931","0.0-15.0","A3FNC8ELMK8YJA","2022-05-19T13:39:04.935Z","phon_sim-task_switching-rhyme-same_different","","null","task_switching","<div style=""color:darkgreen; font-size:60px"">Well done!</div>","null","training","","","","","","","","","","","","","","","subtraction","","","","","","","","","","","","","","","","","","",""
"","","","","","survey-text","68","2226070","0.0-16.0","A3FNC8ELMK8YJA","2022-05-19T13:39:04.935Z","phon_sim-task_switching-rhyme-same_different","","4125.300000071526","task_switching","81","{""subtraction_ans"":""78""}","training","","","","","","","","","","","","","","","subtraction","78","true","subtract","","","","","","","","","","","","","","","",""
"","","","","","html-keyboard-response","69","2227082","0.0-17.0","A3FNC8ELMK8YJA","2022-05-19T13:39:04.935Z","phon_sim-task_switching-rhyme-same_different","","null","task_switching","<div style=""color:darkgreen; font-size:60px"">Well done!</div>","null","training","","","","","","","","","","","","","","","subtraction","","","","","","","","","","","","","","","","","","",""
"","","","","","survey-text","70","2230780","0.0-18.0","A3FNC8ELMK8YJA","2022-05-19T13:39:04.935Z","phon_sim-task_switching-rhyme-same_different","","3689.7999999523163","task_switching","98","{""subtraction_ans"":""95""}","training","","","","","","","","","","","","","","","subtraction","95","true","subtract","","","","","","","","","","","","","","","",""
"","","","","","html-keyboard-response","71","2231784","0.0-19.0","A3FNC8ELMK8YJA","2022-05-19T13:39:04.935Z","phon_sim-task_switching-rhyme-same_different","","null","task_switching","<div style=""color:darkgreen; font-size:60px"">Well done!</div>","null","training","","","","","","","","","","","","","","","subtraction","","","","","","","","","","","","","","","","","","",""
"","","","","","survey-text","72","2236547","0.0-20.0","A3FNC8ELMK8YJA","2022-05-19T13:39:04.935Z","phon_sim-task_switching-rhyme-same_different","","4755.900000095367","task_switching","95","{""subtraction_ans"":""92""}","training","","","","","","","","","","","","","","","subtraction","92","true","subtract","","","","","","","","","","","","","","","",""
"","","","","","html-keyboard-response","73","2237566","0.0-21.0","A3FNC8ELMK8YJA","2022-05-19T13:39:04.935Z","phon_sim-task_switching-rhyme-same_different","","null","task_switching","<div style=""color:darkgreen; font-size:60px"">Well done!</div>","null","training","","","","","","","","","","","","","","","subtraction","","","","","","","","","","","","","","","","","","",""
"","","","","","survey-text","74","2241837","0.0-22.0","A3FNC8ELMK8YJA","2022-05-19T13:39:04.935Z","phon_sim-task_switching-rhyme-same_different","","4263.899999976158","task_switching","42","{""subtraction_ans"":""39""}","training","","","","","","","","","","","","","","","subtraction","39","true","subtract","","","","","","","","","","","","","","","",""
"","","","","","html-keyboard-response","75","2242853","0.0-23.0","A3FNC8ELMK8YJA","2022-05-19T13:39:04.935Z","phon_sim-task_switching-rhyme-same_different","","null","task_switching","<div style=""color:darkgreen; font-size:60px"">Well done!</div>","null","training","","","","","","","","","","","","","","","subtraction","","","","","","","","","","","","","","","","","","",""
"","","","","","survey-text","76","2245765","0.0-24.0","A3FNC8ELMK8YJA","2022-05-19T13:39:04.935Z","phon_sim-task_switching-rhyme-same_different","","2899.2999999523163","task_switching","83","{""subtraction_ans"":""80""}","training","","","","","","","","","","","","","","","subtraction","80","true","subtract","","","","","","","","","","","","","","","",""
"","","","","","html-keyboard-response","77","2246780","0.0-25.0","A3FNC8ELMK8YJA","2022-05-19T13:39:04.935Z","phon_sim-task_switching-rhyme-same_different","","null","task_switching","<div style=""color:darkgreen; font-size:60px"">Well done!</div>","null","training","","","","","","","","","","","","","","","subtraction","","","","","","","","","","","","","","","","","","",""
"","","","","","survey-text","78","2250083","0.0-26.0","A3FNC8ELMK8YJA","2022-05-19T13:39:04.935Z","phon_sim-task_switching-rhyme-same_different","","3295.7000000476837","task_switching","99","{""subtraction_ans"":""96""}","training","","","","","","","","","","","","","","","subtraction","96","true","subtract","","","","","","","","","","","","","","","",""
"","","","","","html-keyboard-response","79","2251087","0.0-27.0","A3FNC8ELMK8YJA","2022-05-19T13:39:04.935Z","phon_sim-task_switching-rhyme-same_different","","null","task_switching","<div style=""color:darkgreen; font-size:60px"">Well done!</div>","null","training","","","","","","","","","","","","","","","subtraction","","","","","","","","","","","","","","","","","","",""
"","","","","","survey-text","80","2253901","0.0-28.0","A3FNC8ELMK8YJA","2022-05-19T13:39:04.935Z","phon_sim-task_switching-rhyme-same_different","","2801.7000000476837","task_switching","44","{""subtraction_ans"":""41""}","training","","","","","","","","","","","","","","","subtraction","41","true","subtract","","","","","","","","","","","","","","","",""
"","","","","","html-keyboard-response","81","2254905","0.0-29.0","A3FNC8ELMK8YJA","2022-05-19T13:39:04.935Z","phon_sim-task_switching-rhyme-same_different","","null","task_switching","<div style=""color:darkgreen; font-size:60px"">Well done!</div>","null","training","","","","","","","","","","","","","","","subtraction","","","","","","","","","","","","","","","","","","",""
"","","","","","survey-text","82","2258609","0.0-30.0","A3FNC8ELMK8YJA","2022-05-19T13:39:04.935Z","phon_sim-task_switching-rhyme-same_different","","3699.7999999523163","task_switching","50","{""subtraction_ans"":""47""}","training","","","","","","","","","","","","","","","subtraction","47","true","subtract","","","","","","","","","","","","","","","",""
"","","","","","html-keyboard-response","83","2259628","0.0-31.0","A3FNC8ELMK8YJA","2022-05-19T13:39:04.935Z","phon_sim-task_switching-rhyme-same_different","","null","task_switching","<div style=""color:darkgreen; font-size:60px"">Well done!</div>","null","training","","","","","","","","","","","","","","","subtraction","","","","","","","","","","","","","","","","","","",""
"","","","","","instructions","84","2263418","0.0-32.0","A3FNC8ELMK8YJA","2022-05-19T13:39:04.935Z","phon_sim-task_switching-rhyme-same_different","[{""page_index"":0,""viewing_time"":3788.9000000953674}]","3789.8000000715256","task_switching","","","","","","","","","","","","","","","","","","","","","","","","","","","","","","","","","","","","",""
"","","","","","survey-text","85","2267070","0.0-33.0","A3FNC8ELMK8YJA","2022-05-19T13:39:04.935Z","phon_sim-task_switching-rhyme-same_different","","3640.399999976158","task_switching","42","{""subtraction_ans"":""39""}","experiment","","","","","","","","","","","","","","","subtraction","39","true","subtract","","","","","","","","","","","","","","","",""
"","","","","","survey-text","86","2270205","0.0-34.0","A3FNC8ELMK8YJA","2022-05-19T13:39:04.935Z","phon_sim-task_switching-rhyme-same_different","","3120.2999999523163","task_switching","23","{""subtraction_ans"":""20""}","experiment","","","","","","","","","","","","","","","subtraction","20","true","subtract","","","","","","","","","","","","","","","",""
"","","","","","survey-text","87","2273361","0.0-35.0","A3FNC8ELMK8YJA","2022-05-19T13:39:04.935Z","phon_sim-task_switching-rhyme-same_different","","3146.3000000715256","task_switching","83","{""subtraction_ans"":""80""}","experiment","","","","","","","","","","","","","","","subtraction","80","true","subtract","","","","","","","","","","","","","","","",""
"","","","","","survey-text","88","2276667","0.0-36.0","A3FNC8ELMK8YJA","2022-05-19T13:39:04.935Z","phon_sim-task_switching-rhyme-same_different","","3295.2999999523163","task_switching","96","{""subtraction_ans"":""93""}","experiment","","","","","","","","","","","","","","","subtraction","93","true","subtract","","","","","","","","","","","","","","","",""
"","","","","","survey-text","89","2279525","0.0-37.0","A3FNC8ELMK8YJA","2022-05-19T13:39:04.935Z","phon_sim-task_switching-rhyme-same_different","","2848.7999999523163","task_switching","35","{""subtraction_ans"":""32""}","experiment","","","","","","","","","","","","","","","subtraction","32","true","subtract","","","","","","","","","","","","","","","",""
"","","","","","survey-text","90","2282351","0.0-38.0","A3FNC8ELMK8YJA","2022-05-19T13:39:04.935Z","phon_sim-task_switching-rhyme-same_different","","2815.7999999523163","task_switching","48","{""subtraction_ans"":""45""}","experiment","","","","","","","","","","","","","","","subtraction","45","true","subtract","","","","","","","","","","","","","","","",""
"","","","","","survey-text","91","2285719","0.0-39.0","A3FNC8ELMK8YJA","2022-05-19T13:39:04.935Z","phon_sim-task_switching-rhyme-same_different","","3355.7000000476837","task_switching","81","{""subtraction_ans"":""78""}","experiment","","","","","","","","","","","","","","","subtraction","78","true","subtract","","","","","","","","","","","","","","","",""
"","","","","","survey-text","92","2288805","0.0-40.0","A3FNC8ELMK8YJA","2022-05-19T13:39:04.935Z","phon_sim-task_switching-rhyme-same_different","","3074.5","task_switching","55","{""subtraction_ans"":""52""}","experiment","","","","","","","","","","","","","","","subtraction","52","true","subtract","","","","","","","","","","","","","","","",""
"","","","","","survey-text","93","2292166","0.0-41.0","A3FNC8ELMK8YJA","2022-05-19T13:39:04.935Z","phon_sim-task_switching-rhyme-same_different","","3351.1999999284744","task_switching","32","{""subtraction_ans"":""29""}","experiment","","","","","","","","","","","","","","","subtraction","29","true","subtract","","","","","","","","","","","","","","","",""
"","","","","","survey-text","94","2295779","0.0-42.0","A3FNC8ELMK8YJA","2022-05-19T13:39:04.935Z","phon_sim-task_switching-rhyme-same_different","","3601.2000000476837","task_switching","87","{""subtraction_ans"":""84""}","experiment","","","","","","","","","","","","","","","subtraction","84","true","subtract","","","","","","","","","","","","","","","",""
"","","","","","survey-text","95","2298722","0.0-43.0","A3FNC8ELMK8YJA","2022-05-19T13:39:04.935Z","phon_sim-task_switching-rhyme-same_different","","2933.6999999284744","task_switching","17","{""subtraction_ans"":""14""}","experiment","","","","","","","","","","","","","","","subtraction","14","true","subtract","","","","","","","","","","","","","","","",""
"","","","","","survey-text","96","2301493","0.0-44.0","A3FNC8ELMK8YJA","2022-05-19T13:39:04.935Z","phon_sim-task_switching-rhyme-same_different","","2766.899999976158","task_switching","46","{""subtraction_ans"":""43""}","experiment","","","","","","","","","","","","","","","subtraction","43","true","subtract","","","","","","","","","","","","","","","",""
"","","","","","survey-text","97","2304857","0.0-45.0","A3FNC8ELMK8YJA","2022-05-19T13:39:04.935Z","phon_sim-task_switching-rhyme-same_different","","3357.6999999284744","task_switching","15","{""subtraction_ans"":""12""}","experiment","","","","","","","","","","","","","","","subtraction","12","true","subtract","","","","","","","","","","","","","","","",""
"","","","","","survey-text","98","2308185","0.0-46.0","A3FNC8ELMK8YJA","2022-05-19T13:39:04.935Z","phon_sim-task_switching-rhyme-same_different","","3318.2999999523163","task_switching","76","{""subtraction_ans"":""73""}","experiment","","","","","","","","","","","","","","","subtraction","73","true","subtract","","","","","","","","","","","","","","","",""
"","","","","","survey-text","99","2311233","0.0-47.0","A3FNC8ELMK8YJA","2022-05-19T13:39:04.935Z","phon_sim-task_switching-rhyme-same_different","","3041.5999999046326","task_switching","52","{""subtraction_ans"":""49""}","experiment","","","","","","","","","","","","","","","subtraction","49","true","subtract","","","","","","","","","","","","","","","",""
"","","","","","survey-text","100","2314785","0.0-48.0","A3FNC8ELMK8YJA","2022-05-19T13:39:04.935Z","phon_sim-task_switching-rhyme-same_different","","3546.399999976158","task_switching","94","{""subtraction_ans"":""91""}","experiment","","","","","","","","","","","","","","","subtraction","91","true","subtract","","","","","","","","","","","","","","","",""
"","","","","","survey-text","101","2318485","0.0-49.0","A3FNC8ELMK8YJA","2022-05-19T13:39:04.935Z","phon_sim-task_switching-rhyme-same_different","","3688.2999999523163","task_switching","99","{""subtraction_ans"":""96""}","experiment","","","","","","","","","","","","","","","subtraction","96","true","subtract","","","","","","","","","","","","","","","",""
"","","","","","survey-text","102","2322847","0.0-50.0","A3FNC8ELMK8YJA","2022-05-19T13:39:04.935Z","phon_sim-task_switching-rhyme-same_different","","4350.599999904633","task_switching","79","{""subtraction_ans"":""76""}","experiment","","","","","","","","","","","","","","","subtraction","76","true","subtract","","","","","","","","","","","","","","","",""
"","","","","","survey-text","103","2327443","0.0-51.0","A3FNC8ELMK8YJA","2022-05-19T13:39:04.935Z","phon_sim-task_switching-rhyme-same_different","","4587.099999904633","task_switching","16","{""subtraction_ans"":""13""}","experiment","","","","","","","","","","","","","","","subtraction","13","true","subtract","","","","","","","","","","","","","","","",""
"","","","","","survey-text","104","2330025","0.0-52.0","A3FNC8ELMK8YJA","2022-05-19T13:39:04.935Z","phon_sim-task_switching-rhyme-same_different","","2577.2999999523163","task_switching","26","{""subtraction_ans"":""23""}","experiment","","","","","","","","","","","","","","","subtraction","23","true","subtract","","","","","","","","","","","","","","","",""
"","","","","","survey-text","105","2332821","0.0-53.0","A3FNC8ELMK8YJA","2022-05-19T13:39:04.935Z","phon_sim-task_switching-rhyme-same_different","","2790.2000000476837","task_switching","64","{""subtraction_ans"":""61""}","experiment","","","","","","","","","","","","","","","subtraction","61","true","subtract","","","","","","","","","","","","","","","",""
"","","","","","survey-text","106","2336626","0.0-54.0","A3FNC8ELMK8YJA","2022-05-19T13:39:04.935Z","phon_sim-task_switching-rhyme-same_different","","3797","task_switching","20","{""subtraction_ans"":""17""}","experiment","","","","","","","","","","","","","","","subtraction","17","true","subtract","","","","","","","","","","","","","","","",""
"","","","","","survey-text","107","2340949","0.0-55.0","A3FNC8ELMK8YJA","2022-05-19T13:39:04.935Z","phon_sim-task_switching-rhyme-same_different","","4313.700000047684","task_switching","75","{""subtraction_ans"":""72""}","experiment","","","","","","","","","","","","","","","subtraction","72","true","subtract","","","","","","","","","","","","","","","",""
"","","","","","survey-text","108","2343727","0.0-56.0","A3FNC8ELMK8YJA","2022-05-19T13:39:04.935Z","phon_sim-task_switching-rhyme-same_different","","2770.2000000476837","task_switching","70","{""subtraction_ans"":""67""}","experiment","","","","","","","","","","","","","","","subtraction","67","true","subtract","","","","","","","","","","","","","","","",""
"","","","","","survey-text","109","2347002","0.0-57.0","A3FNC8ELMK8YJA","2022-05-19T13:39:04.935Z","phon_sim-task_switching-rhyme-same_different","","3265.399999976158","task_switching","82","{""subtraction_ans"":""79""}","experiment","","","","","","","","","","","","","","","subtraction","79","true","subtract","","","","","","","","","","","","","","","",""
"","","","","","survey-text","110","2349795","0.0-58.0","A3FNC8ELMK8YJA","2022-05-19T13:39:04.935Z","phon_sim-task_switching-rhyme-same_different","","2789.5999999046326","task_switching","86","{""subtraction_ans"":""83""}","experiment","","","","","","","","","","","","","","","subtraction","83","true","subtract","","","","","","","","","","","","","","","",""
"","","","","","survey-text","111","2352727","0.0-59.0","A3FNC8ELMK8YJA","2022-05-19T13:39:04.935Z","phon_sim-task_switching-rhyme-same_different","","2926.7999999523163","task_switching","45","{""subtraction_ans"":""42""}","experiment","","","","","","","","","","","","","","","subtraction","42","true","subtract","","","","","","","","","","","","","","","",""
"","","","","","survey-text","112","2355875","0.0-60.0","A3FNC8ELMK8YJA","2022-05-19T13:39:04.935Z","phon_sim-task_switching-rhyme-same_different","","3138.399999976158","task_switching","62","{""subtraction_ans"":""59""}","experiment","","","","","","","","","","","","","","","subtraction","59","true","subtract","","","","","","","","","","","","","","","",""
"","","","","","survey-text","113","2358774","0.0-61.0","A3FNC8ELMK8YJA","2022-05-19T13:39:04.935Z","phon_sim-task_switching-rhyme-same_different","","2889.6999999284744","task_switching","92","{""subtraction_ans"":""89""}","experiment","","","","","","","","","","","","","","","subtraction","89","true","subtract","","","","","","","","","","","","","","","",""
"","","","","","survey-text","114","2361331","0.0-62.0","A3FNC8ELMK8YJA","2022-05-19T13:39:04.935Z","phon_sim-task_switching-rhyme-same_different","","2547.399999976158","task_switching","24","{""subtraction_ans"":""21""}","experiment","","","","","","","","","","","","","","","subtraction","21","true","subtract","","","","","","","","","","","","","","","",""
"","","","","","instructions","115","2366928","0.0-63.0","A3FNC8ELMK8YJA","2022-05-19T13:39:04.935Z","phon_sim-task_switching-rhyme-same_different","[{""page_index"":0,""viewing_time"":5593.899999976158}]","5594.399999976158","task_switching","","","","","","","","","","","","","","","","","","","","","","","","","","","","","","","","","","","","",""
"","","","","","survey-text","116","2370527","0.0-64.0","A3FNC8ELMK8YJA","2022-05-19T13:39:04.935Z","phon_sim-task_switching-rhyme-same_different","","3589.7000000476837","task_switching","69","{""addition_ans"":""72""}","training","","","","","","","","","","","","","","","addition","72","true","add","","","","","","","","","","","","","","","",""
"","","","","","html-keyboard-response","117","2371539","0.0-65.0","A3FNC8ELMK8YJA","2022-05-19T13:39:04.935Z","phon_sim-task_switching-rhyme-same_different","","null","task_switching","<div style=""color:darkgreen; font-size:60px"">Well done!</div>","null","training","","","","","","","","","","","","","","","addition","","","","","","","","","","","","","","","","","","",""
"","","","","","survey-text","118","2374865","0.0-66.0","A3FNC8ELMK8YJA","2022-05-19T13:39:04.935Z","phon_sim-task_switching-rhyme-same_different","","3318.9000000953674","task_switching","24","{""addition_ans"":""27""}","training","","","","","","","","","","","","","","","addition","27","true","add","","","","","","","","","","","","","","","",""
"","","","","","html-keyboard-response","119","2375880","0.0-67.0","A3FNC8ELMK8YJA","2022-05-19T13:39:04.935Z","phon_sim-task_switching-rhyme-same_different","","null","task_switching","<div style=""color:darkgreen; font-size:60px"">Well done!</div>","null","training","","","","","","","","","","","","","","","addition","","","","","","","","","","","","","","","","","","",""
"","","","","","survey-text","120","2378919","0.0-68.0","A3FNC8ELMK8YJA","2022-05-19T13:39:04.935Z","phon_sim-task_switching-rhyme-same_different","","3031.399999976158","task_switching","86","{""addition_ans"":""89""}","training","","","","","","","","","","","","","","","addition","89","true","add","","","","","","","","","","","","","","","",""
"","","","","","html-keyboard-response","121","2379934","0.0-69.0","A3FNC8ELMK8YJA","2022-05-19T13:39:04.935Z","phon_sim-task_switching-rhyme-same_different","","null","task_switching","<div style=""color:darkgreen; font-size:60px"">Well done!</div>","null","training","","","","","","","","","","","","","","","addition","","","","","","","","","","","","","","","","","","",""
"","","","","","survey-text","122","2385579","0.0-70.0","A3FNC8ELMK8YJA","2022-05-19T13:39:04.935Z","phon_sim-task_switching-rhyme-same_different","","5637.200000047684","task_switching","39","{""addition_ans"":""42""}","training","","","","","","","","","","","","","","","addition","42","true","add","","","","","","","","","","","","","","","",""
"","","","","","html-keyboard-response","123","2386582","0.0-71.0","A3FNC8ELMK8YJA","2022-05-19T13:39:04.935Z","phon_sim-task_switching-rhyme-same_different","","null","task_switching","<div style=""color:darkgreen; font-size:60px"">Well done!</div>","null","training","","","","","","","","","","","","","","","addition","","","","","","","","","","","","","","","","","","",""
"","","","","","survey-text","124","2389134","0.0-72.0","A3FNC8ELMK8YJA","2022-05-19T13:39:04.935Z","phon_sim-task_switching-rhyme-same_different","","2549","task_switching","19","{""addition_ans"":""22""}","training","","","","","","","","","","","","","","","addition","22","true","add","","","","","","","","","","","","","","","",""
"","","","","","html-keyboard-response","125","2390141","0.0-73.0","A3FNC8ELMK8YJA","2022-05-19T13:39:04.935Z","phon_sim-task_switching-rhyme-same_different","","null","task_switching","<div style=""color:darkgreen; font-size:60px"">Well done!</div>","null","training","","","","","","","","","","","","","","","addition","","","","","","","","","","","","","","","","","","",""
"","","","","","survey-text","126","2393064","0.0-74.0","A3FNC8ELMK8YJA","2022-05-19T13:39:04.935Z","phon_sim-task_switching-rhyme-same_different","","2915.399999976158","task_switching","53","{""addition_ans"":""56""}","training","","","","","","","","","","","","","","","addition","56","true","add","","","","","","","","","","","","","","","",""
"","","","","","html-keyboard-response","127","2394072","0.0-75.0","A3FNC8ELMK8YJA","2022-05-19T13:39:04.935Z","phon_sim-task_switching-rhyme-same_different","","null","task_switching","<div style=""color:darkgreen; font-size:60px"">Well done!</div>","null","training","","","","","","","","","","","","","","","addition","","","","","","","","","","","","","","","","","","",""
"","","","","","survey-text","128","2397772","0.0-76.0","A3FNC8ELMK8YJA","2022-05-19T13:39:04.935Z","phon_sim-task_switching-rhyme-same_different","","3692.2000000476837","task_switching","62","{""addition_ans"":""65""}","training","","","","","","","","","","","","","","","addition","65","true","add","","","","","","","","","","","","","","","",""
"","","","","","html-keyboard-response","129","2398783","0.0-77.0","A3FNC8ELMK8YJA","2022-05-19T13:39:04.935Z","phon_sim-task_switching-rhyme-same_different","","null","task_switching","<div style=""color:darkgreen; font-size:60px"">Well done!</div>","null","training","","","","","","","","","","","","","","","addition","","","","","","","","","","","","","","","","","","",""
"","","","","","survey-text","130","2402393","0.0-78.0","A3FNC8ELMK8YJA","2022-05-19T13:39:04.935Z","phon_sim-task_switching-rhyme-same_different","","3600.100000023842","task_switching","88","{""addition_ans"":""91""}","training","","","","","","","","","","","","","","","addition","91","true","add","","","","","","","","","","","","","","","",""
"","","","","","html-keyboard-response","131","2403410","0.0-79.0","A3FNC8ELMK8YJA","2022-05-19T13:39:04.935Z","phon_sim-task_switching-rhyme-same_different","","null","task_switching","<div style=""color:darkgreen; font-size:60px"">Well done!</div>","null","training","","","","","","","","","","","","","","","addition","","","","","","","","","","","","","","","","","","",""
"","","","","","survey-text","132","2407268","0.0-80.0","A3FNC8ELMK8YJA","2022-05-19T13:39:04.935Z","phon_sim-task_switching-rhyme-same_different","","3845.7999999523163","task_switching","92","{""addition_ans"":""95""}","training","","","","","","","","","","","","","","","addition","95","true","add","","","","","","","","","","","","","","","",""
"","","","","","html-keyboard-response","133","2408279","0.0-81.0","A3FNC8ELMK8YJA","2022-05-19T13:39:04.935Z","phon_sim-task_switching-rhyme-same_different","","null","task_switching","<div style=""color:darkgreen; font-size:60px"">Well done!</div>","null","training","","","","","","","","","","","","","","","addition","","","","","","","","","","","","","","","","","","",""
"","","","","","survey-text","134","2411517","0.0-82.0","A3FNC8ELMK8YJA","2022-05-19T13:39:04.935Z","phon_sim-task_switching-rhyme-same_different","","3231.8000000715256","task_switching","60","{""addition_ans"":""63""}","training","","","","","","","","","","","","","","","addition","63","true","add","","","","","","","","","","","","","","","",""
"","","","","","html-keyboard-response","135","2412525","0.0-83.0","A3FNC8ELMK8YJA","2022-05-19T13:39:04.935Z","phon_sim-task_switching-rhyme-same_different","","null","task_switching","<div style=""color:darkgreen; font-size:60px"">Well done!</div>","null","training","","","","","","","","","","","","","","","addition","","","","","","","","","","","","","","","","","","",""
"","","","","","instructions","136","2593711","0.0-84.0","A3FNC8ELMK8YJA","2022-05-19T13:39:04.935Z","phon_sim-task_switching-rhyme-same_different","[{""page_index"":0,""viewing_time"":181182.10000002384}]","181183","task_switching","","","","","","","","","","","","","","","","","","","","","","","","","","","","","","","","","","","","",""
"","","","","","survey-text","137","2597120","0.0-85.0","A3FNC8ELMK8YJA","2022-05-19T13:39:04.935Z","phon_sim-task_switching-rhyme-same_different","","3399.100000023842","task_switching","14","{""addition_ans"":""17""}","experiment","","","","","","","","","","","","","","","addition","17","true","add","","","","","","","","","","","","","","","",""
"","","","","","survey-text","138","2600168","0.0-86.0","A3FNC8ELMK8YJA","2022-05-19T13:39:04.935Z","phon_sim-task_switching-rhyme-same_different","","3041.899999976158","task_switching","89","{""addition_ans"":""92""}","experiment","","","","","","","","","","","","","","","addition","92","true","add","","","","","","","","","","","","","","","",""
"","","","","","survey-text","139","2602893","0.0-87.0","A3FNC8ELMK8YJA","2022-05-19T13:39:04.935Z","phon_sim-task_switching-rhyme-same_different","","2715.600000023842","task_switching","37","{""addition_ans"":""40""}","experiment","","","","","","","","","","","","","","","addition","40","true","add","","","","","","","","","","","","","","","",""
"","","","","","survey-text","140","2605278","0.0-88.0","A3FNC8ELMK8YJA","2022-05-19T13:39:04.935Z","phon_sim-task_switching-rhyme-same_different","","2372","task_switching","53","{""addition_ans"":""56""}","experiment","","","","","","","","","","","","","","","addition","56","true","add","","","","","","","","","","","","","","","",""
"","","","","","survey-text","141","2607687","0.0-89.0","A3FNC8ELMK8YJA","2022-05-19T13:39:04.935Z","phon_sim-task_switching-rhyme-same_different","","2401.5","task_switching","29","{""addition_ans"":""32""}","experiment","","","","","","","","","","","","","","","addition","32","true","add","","","","","","","","","","","","","","","",""
"","","","","","survey-text","142","2610118","0.0-90.0","A3FNC8ELMK8YJA","2022-05-19T13:39:04.935Z","phon_sim-task_switching-rhyme-same_different","","2419.8000000715256","task_switching","34","{""addition_ans"":""37""}","experiment","","","","","","","","","","","","","","","addition","37","true","add","","","","","","","","","","","","","","","",""
"","","","","","survey-text","143","2613976","0.0-91.0","A3FNC8ELMK8YJA","2022-05-19T13:39:04.935Z","phon_sim-task_switching-rhyme-same_different","","3851","task_switching","82","{""addition_ans"":""85""}","experiment","","","","","","","","","","","","","","","addition","85","true","add","","","","","","","","","","","","","","","",""
"","","","","","survey-text","144","2617663","0.0-92.0","A3FNC8ELMK8YJA","2022-05-19T13:39:04.935Z","phon_sim-task_switching-rhyme-same_different","","3672.2999999523163","task_switching","84","{""addition_ans"":""87""}","experiment","","","","","","","","","","","","","","","addition","87","true","add","","","","","","","","","","","","","","","",""
"","","","","","survey-text","145","2621105","0.0-93.0","A3FNC8ELMK8YJA","2022-05-19T13:39:04.935Z","phon_sim-task_switching-rhyme-same_different","","3432.9000000953674","task_switching","71","{""addition_ans"":""74""}","experiment","","","","","","","","","","","","","","","addition","74","true","add","","","","","","","","","","","","","","","",""
"","","","","","survey-text","146","2623678","0.0-94.0","A3FNC8ELMK8YJA","2022-05-19T13:39:04.935Z","phon_sim-task_switching-rhyme-same_different","","2568","task_switching","62","{""addition_ans"":""65""}","experiment","","","","","","","","","","","","","","","addition","65","true","add","","","","","","","","","","","","","","","",""
"","","","","","survey-text","147","2625907","0.0-95.0","A3FNC8ELMK8YJA","2022-05-19T13:39:04.935Z","phon_sim-task_switching-rhyme-same_different","","2224.2000000476837","task_switching","63","{""addition_ans"":""66""}","experiment","","","","","","","","","","","","","","","addition","66","true","add","","","","","","","","","","","","","","","",""
"","","","","","survey-text","148","2628914","0.0-96.0","A3FNC8ELMK8YJA","2022-05-19T13:39:04.935Z","phon_sim-task_switching-rhyme-same_different","","2996","task_switching","55","{""addition_ans"":""58""}","experiment","","","","","","","","","","","","","","","addition","58","true","add","","","","","","","","","","","","","","","",""
"","","","","","survey-text","149","2631725","0.0-97.0","A3FNC8ELMK8YJA","2022-05-19T13:39:04.935Z","phon_sim-task_switching-rhyme-same_different","","2806.9000000953674","task_switching","69","{""addition_ans"":""72""}","experiment","","","","","","","","","","","","","","","addition","72","true","add","","","","","","","","","","","","","","","",""
"","","","","","survey-text","150","2634073","0.0-98.0","A3FNC8ELMK8YJA","2022-05-19T13:39:04.935Z","phon_sim-task_switching-rhyme-same_different","","2342.100000023842","task_switching","28","{""addition_ans"":""31""}","experiment","","","","","","","","","","","","","","","addition","31","true","add","","","","","","","","","","","","","","","",""
"","","","","","survey-text","151","2636523","0.0-99.0","A3FNC8ELMK8YJA","2022-05-19T13:39:04.935Z","phon_sim-task_switching-rhyme-same_different","","2438.2000000476837","task_switching","11","{""addition_ans"":""14""}","experiment","","","","","","","","","","","","","","","addition","14","true","add","","","","","","","","","","","","","","","",""
"","","","","","survey-text","152","2638735","0.0-100.0","A3FNC8ELMK8YJA","2022-05-19T13:39:04.935Z","phon_sim-task_switching-rhyme-same_different","","2194.5999999046326","task_switching","18","{""addition_ans"":""21""}","experiment","","","","","","","","","","","","","","","addition","21","true","add","","","","","","","","","","","","","","","",""
"","","","","","survey-text","153","2640752","0.0-101.0","A3FNC8ELMK8YJA","2022-05-19T13:39:04.935Z","phon_sim-task_switching-rhyme-same_different","","2005","task_switching","10","{""addition_ans"":""13""}","experiment","","","","","","","","","","","","","","","addition","13","true","add","","","","","","","","","","","","","","","",""
"","","","","","survey-text","154","2644097","0.0-102.0","A3FNC8ELMK8YJA","2022-05-19T13:39:04.935Z","phon_sim-task_switching-rhyme-same_different","","3333.7000000476837","task_switching","92","{""addition_ans"":""95""}","experiment","","","","","","","","","","","","","","","addition","95","true","add","","","","","","","","","","","","","","","",""
"","","","","","survey-text","155","2646626","0.0-103.0","A3FNC8ELMK8YJA","2022-05-19T13:39:04.935Z","phon_sim-task_switching-rhyme-same_different","","2518.5","task_switching","23","{""addition_ans"":""26""}","experiment","","","","","","","","","","","","","","","addition","26","true","add","","","","","","","","","","","","","","","",""
"","","","","","survey-text","156","2649114","0.0-104.0","A3FNC8ELMK8YJA","2022-05-19T13:39:04.935Z","phon_sim-task_switching-rhyme-same_different","","2477.7999999523163","task_switching","86","{""addition_ans"":""89""}","experiment","","","","","","","","","","","","","","","addition","89","true","add","","","","","","","","","","","","","","","",""
"","","","","","survey-text","157","2651310","0.0-105.0","A3FNC8ELMK8YJA","2022-05-19T13:39:04.935Z","phon_sim-task_switching-rhyme-same_different","","2187","task_switching","41","{""addition_ans"":""44""}","experiment","","","","","","","","","","","","","","","addition","44","true","add","","","","","","","","","","","","","","","",""
"","","","","","survey-text","158","2653446","0.0-106.0","A3FNC8ELMK8YJA","2022-05-19T13:39:04.935Z","phon_sim-task_switching-rhyme-same_different","","2122.6999999284744","task_switching","19","{""addition_ans"":""22""}","experiment","","","","","","","","","","","","","","","addition","22","true","add","","","","","","","","","","","","","","","",""
"","","","","","survey-text","159","2656353","0.0-107.0","A3FNC8ELMK8YJA","2022-05-19T13:39:04.935Z","phon_sim-task_switching-rhyme-same_different","","2901.7000000476837","task_switching","56","{""addition_ans"":""59""}","experiment","","","","","","","","","","","","","","","addition","59","true","add","","","","","","","","","","","","","","","",""
"","","","","","survey-text","160","2658684","0.0-108.0","A3FNC8ELMK8YJA","2022-05-19T13:39:04.935Z","phon_sim-task_switching-rhyme-same_different","","2320.5","task_switching","50","{""addition_ans"":""53""}","experiment","","","","","","","","","","","","","","","addition","53","true","add","","","","","","","","","","","","","","","",""
"","","","","","survey-text","161","2661243","0.0-109.0","A3FNC8ELMK8YJA","2022-05-19T13:39:04.935Z","phon_sim-task_switching-rhyme-same_different","","2548.7999999523163","task_switching","57","{""addition_ans"":""60""}","experiment","","","","","","","","","","","","","","","addition","60","true","add","","","","","","","","","","","","","","","",""
"","","","","","survey-text","162","2663865","0.0-110.0","A3FNC8ELMK8YJA","2022-05-19T13:39:04.935Z","phon_sim-task_switching-rhyme-same_different","","2612.3000000715256","task_switching","70","{""addition_ans"":""73""}","experiment","","","","","","","","","","","","","","","addition","73","true","add","","","","","","","","","","","","","","","",""
"","","","","","survey-text","163","2666549","0.0-111.0","A3FNC8ELMK8YJA","2022-05-19T13:39:04.935Z","phon_sim-task_switching-rhyme-same_different","","2675.1999999284744","task_switching","58","{""addition_ans"":""61""}","experiment","","","","","","","","","","","","","","","addition","61","true","add","","","","","","","","","","","","","","","",""
"","","","","","survey-text","164","2669171","0.0-112.0","A3FNC8ELMK8YJA","2022-05-19T13:39:04.935Z","phon_sim-task_switching-rhyme-same_different","","2613.600000023842","task_switching","17","{""addition_ans"":""20""}","experiment","","","","","","","","","","","","","","","addition","20","true","add","","","","","","","","","","","","","","","",""
"","","","","","survey-text","165","2671943","0.0-113.0","A3FNC8ELMK8YJA","2022-05-19T13:39:04.935Z","phon_sim-task_switching-rhyme-same_different","","2766.7000000476837","task_switching","48","{""addition_ans"":""51""}","experiment","","","","","","","","","","","","","","","addition","51","true","add","","","","","","","","","","","","","","","",""
"","","","","","survey-text","166","2674251","0.0-114.0","A3FNC8ELMK8YJA","2022-05-19T13:39:04.935Z","phon_sim-task_switching-rhyme-same_different","","2296.7000000476837","task_switching","66","{""addition_ans"":""69""}","experiment","","","","","","","","","","","","","","","addition","69","true","add","","","","","","","","","","","","","","","",""
"","","","","","instructions","167","2693775","0.0-115.0","A3FNC8ELMK8YJA","2022-05-19T13:39:04.935Z","phon_sim-task_switching-rhyme-same_different","[{""page_index"":0,""viewing_time"":19520.800000071526}]","19521.700000047684","task_switching","","","","","","","","","","","","","","","","","","","","","","","","","","","","","","","","","","","","",""
"","","","","","survey-text","168","2698293","0.0-116.0","A3FNC8ELMK8YJA","2022-05-19T13:39:04.935Z","phon_sim-task_switching-rhyme-same_different","","4507.699999928474","task_switching","82","{""colorcue_switch_ans"":""85""}","training","","","","","","","","","","","","","","","colorcue_switch","85","true","add","red","0","","","","","","","","","","","","","",""
"","","","","","html-keyboard-response","169","2699306","0.0-117.0","A3FNC8ELMK8YJA","2022-05-19T13:39:04.935Z","phon_sim-task_switching-rhyme-same_different","","null","task_switching","<div style=""color:darkgreen; font-size:60px"">Well done!</div>","null","training","","","","","","","","","","","","","","","colorcue_switch","","","","","","","","","","","","","","","","","","",""
"","","","","","survey-text","170","2703090","0.0-118.0","A3FNC8ELMK8YJA","2022-05-19T13:39:04.935Z","phon_sim-task_switching-rhyme-same_different","","3773.2999999523163","task_switching","64","{""colorcue_switch_ans"":""61""}","training","","","","","","","","","","","","","","","colorcue_switch","61","true","subtract","blue","1","","","","","","","","","","","","","",""
"","","","","","html-keyboard-response","171","2704094","0.0-119.0","A3FNC8ELMK8YJA","2022-05-19T13:39:04.935Z","phon_sim-task_switching-rhyme-same_different","","null","task_switching","<div style=""color:darkgreen; font-size:60px"">Well done!</div>","null","training","","","","","","","","","","","","","","","colorcue_switch","","","","","","","","","","","","","","","","","","",""
"","","","","","survey-text","172","2708757","0.0-120.0","A3FNC8ELMK8YJA","2022-05-19T13:39:04.935Z","phon_sim-task_switching-rhyme-same_different","","4658.700000047684","task_switching","84","{""colorcue_switch_ans"":""87""}","training","","","","","","","","","","","","","","","colorcue_switch","87","true","add","red","2","","","","","","","","","","","","","",""
"","","","","","html-keyboard-response","173","2709764","0.0-121.0","A3FNC8ELMK8YJA","2022-05-19T13:39:04.935Z","phon_sim-task_switching-rhyme-same_different","","null","task_switching","<div style=""color:darkgreen; font-size:60px"">Well done!</div>","null","training","","","","","","","","","","","","","","","colorcue_switch","","","","","","","","","","","","","","","","","","",""
"","","","","","survey-text","174","2712729","0.0-122.0","A3FNC8ELMK8YJA","2022-05-19T13:39:04.935Z","phon_sim-task_switching-rhyme-same_different","","2951.7999999523163","task_switching","93","{""colorcue_switch_ans"":""90""}","training","","","","","","","","","","","","","","","colorcue_switch","90","true","subtract","blue","3","","","","","","","","","","","","","",""
"","","","","","html-keyboard-response","175","2713735","0.0-123.0","A3FNC8ELMK8YJA","2022-05-19T13:39:04.935Z","phon_sim-task_switching-rhyme-same_different","","null","task_switching","<div style=""color:darkgreen; font-size:60px"">Well done!</div>","null","training","","","","","","","","","","","","","","","colorcue_switch","","","","","","","","","","","","","","","","","","",""
"","","","","","survey-text","176","2717901","0.0-124.0","A3FNC8ELMK8YJA","2022-05-19T13:39:04.935Z","phon_sim-task_switching-rhyme-same_different","","4158.700000047684","task_switching","14","{""colorcue_switch_ans"":""17""}","training","","","","","","","","","","","","","","","colorcue_switch","17","true","add","red","4","","","","","","","","","","","","","",""
"","","","","","html-keyboard-response","177","2718906","0.0-125.0","A3FNC8ELMK8YJA","2022-05-19T13:39:04.935Z","phon_sim-task_switching-rhyme-same_different","","null","task_switching","<div style=""color:darkgreen; font-size:60px"">Well done!</div>","null","training","","","","","","","","","","","","","","","colorcue_switch","","","","","","","","","","","","","","","","","","",""
"","","","","","survey-text","178","2722948","0.0-126.0","A3FNC8ELMK8YJA","2022-05-19T13:39:04.935Z","phon_sim-task_switching-rhyme-same_different","","4034.2999999523163","task_switching","52","{""colorcue_switch_ans"":""49""}","training","","","","","","","","","","","","","","","colorcue_switch","49","true","subtract","blue","5","","","","","","","","","","","","","",""
"","","","","","html-keyboard-response","179","2723967","0.0-127.0","A3FNC8ELMK8YJA","2022-05-19T13:39:04.935Z","phon_sim-task_switching-rhyme-same_different","","null","task_switching","<div style=""color:darkgreen; font-size:60px"">Well done!</div>","null","training","","","","","","","","","","","","","","","colorcue_switch","","","","","","","","","","","","","","","","","","",""
"","","","","","survey-text","180","2731687","0.0-128.0","A3FNC8ELMK8YJA","2022-05-19T13:39:04.935Z","phon_sim-task_switching-rhyme-same_different","","7701.600000023842","task_switching","27","{""colorcue_switch_ans"":""30""}","training","","","","","","","","","","","","","","","colorcue_switch","30","true","add","red","6","","","","","","","","","","","","","",""
"","","","","","html-keyboard-response","181","2732690","0.0-129.0","A3FNC8ELMK8YJA","2022-05-19T13:39:04.935Z","phon_sim-task_switching-rhyme-same_different","","null","task_switching","<div style=""color:darkgreen; font-size:60px"">Well done!</div>","null","training","","","","","","","","","","","","","","","colorcue_switch","","","","","","","","","","","","","","","","","","",""
"","","","","","survey-text","182","2736134","0.0-130.0","A3FNC8ELMK8YJA","2022-05-19T13:39:04.935Z","phon_sim-task_switching-rhyme-same_different","","3432.5","task_switching","15","{""colorcue_switch_ans"":""12""}","training","","","","","","","","","","","","","","","colorcue_switch","12","true","subtract","blue","7","","","","","","","","","","","","","",""
"","","","","","html-keyboard-response","183","2737149","0.0-131.0","A3FNC8ELMK8YJA","2022-05-19T13:39:04.935Z","phon_sim-task_switching-rhyme-same_different","","null","task_switching","<div style=""color:darkgreen; font-size:60px"">Well done!</div>","null","training","","","","","","","","","","","","","","","colorcue_switch","","","","","","","","","","","","","","","","","","",""
"","","","","","survey-text","184","2742865","0.0-132.0","A3FNC8ELMK8YJA","2022-05-19T13:39:04.935Z","phon_sim-task_switching-rhyme-same_different","","5708.299999952316","task_switching","49","{""colorcue_switch_ans"":""52""}","training","","","","","","","","","","","","","","","colorcue_switch","52","true","add","red","8","","","","","","","","","","","","","",""
"","","","","","html-keyboard-response","185","2743870","0.0-133.0","A3FNC8ELMK8YJA","2022-05-19T13:39:04.935Z","phon_sim-task_switching-rhyme-same_different","","null","task_switching","<div style=""color:darkgreen; font-size:60px"">Well done!</div>","null","training","","","","","","","","","","","","","","","colorcue_switch","","","","","","","","","","","","","","","","","","",""
"","","","","","survey-text","186","2747159","0.0-134.0","A3FNC8ELMK8YJA","2022-05-19T13:39:04.935Z","phon_sim-task_switching-rhyme-same_different","","3281.899999976158","task_switching","21","{""colorcue_switch_ans"":""18""}","training","","","","","","","","","","","","","","","colorcue_switch","18","true","subtract","blue","9","","","","","","","","","","","","","",""
"","","","","","html-keyboard-response","187","2748169","0.0-135.0","A3FNC8ELMK8YJA","2022-05-19T13:39:04.935Z","phon_sim-task_switching-rhyme-same_different","","null","task_switching","<div style=""color:darkgreen; font-size:60px"">Well done!</div>","null","training","","","","","","","","","","","","","","","colorcue_switch","","","","","","","","","","","","","","","","","","",""
"","","","","","instructions","188","2757440","0.0-136.0","A3FNC8ELMK8YJA","2022-05-19T13:39:04.935Z","phon_sim-task_switching-rhyme-same_different","[{""page_index"":0,""viewing_time"":9269.700000047684}]","9270.300000071526","task_switching","","","","","","","","","","","","","","","","","","","","","","","","","","","","","","","","","","","","",""
"","","","","","survey-text","189","2762519","0.0-137.0","A3FNC8ELMK8YJA","2022-05-19T13:39:04.935Z","phon_sim-task_switching-rhyme-same_different","","5068.299999952316","task_switching","45","{""colorcue_switch_ans"":""48""}","experiment","","","","","","","","","","","","","","","colorcue_switch","48","true","add","red","0","","","","","","","","","","","","","",""
"","","","","","survey-text","190","2766401","0.0-138.0","A3FNC8ELMK8YJA","2022-05-19T13:39:04.935Z","phon_sim-task_switching-rhyme-same_different","","3869.7999999523163","task_switching","95","{""colorcue_switch_ans"":""92""}","experiment","","","","","","","","","","","","","","","colorcue_switch","92","true","subtract","blue","1","","","","","","","","","","","","","",""
"","","","","","survey-text","191","2770219","0.0-139.0","A3FNC8ELMK8YJA","2022-05-19T13:39:04.935Z","phon_sim-task_switching-rhyme-same_different","","3808.100000023842","task_switching","24","{""colorcue_switch_ans"":""27""}","experiment","","","","","","","","","","","","","","","colorcue_switch","27","true","add","red","2","","","","","","","","","","","","","",""
"","","","","","survey-text","192","2773869","0.0-140.0","A3FNC8ELMK8YJA","2022-05-19T13:39:04.935Z","phon_sim-task_switching-rhyme-same_different","","3634.2000000476837","task_switching","17","{""colorcue_switch_ans"":""14""}","experiment","","","","","","","","","","","","","","","colorcue_switch","14","true","subtract","blue","3","","","","","","","","","","","","","",""
"","","","","","survey-text","193","2777939","0.0-141.0","A3FNC8ELMK8YJA","2022-05-19T13:39:04.935Z","phon_sim-task_switching-rhyme-same_different","","4060.5","task_switching","44","{""colorcue_switch_ans"":""47""}","experiment","","","","","","","","","","","","","","","colorcue_switch","47","true","add","red","4","","","","","","","","","","","","","",""
"","","","","","survey-text","194","2781245","0.0-142.0","A3FNC8ELMK8YJA","2022-05-19T13:39:04.935Z","phon_sim-task_switching-rhyme-same_different","","3294.100000023842","task_switching","67","{""colorcue_switch_ans"":""64""}","experiment","","","","","","","","","","","","","","","colorcue_switch","64","true","subtract","blue","5","","","","","","","","","","","","","",""
"","","","","","survey-text","195","2784741","0.0-143.0","A3FNC8ELMK8YJA","2022-05-19T13:39:04.935Z","phon_sim-task_switching-rhyme-same_different","","3485.8000000715256","task_switching","86","{""colorcue_switch_ans"":""89""}","experiment","","","","","","","","","","","","","","","colorcue_switch","89","true","add","red","6","","","","","","","","","","","","","",""
"","","","","","survey-text","196","2788505","0.0-144.0","A3FNC8ELMK8YJA","2022-05-19T13:39:04.935Z","phon_sim-task_switching-rhyme-same_different","","3751.8000000715256","task_switching","48","{""colorcue_switch_ans"":""45""}","experiment","","","","","","","","","","","","","","","colorcue_switch","45","true","subtract","blue","7","","","","","","","","","","","","","",""
"","","","","","survey-text","197","2791725","0.0-145.0","A3FNC8ELMK8YJA","2022-05-19T13:39:04.935Z","phon_sim-task_switching-rhyme-same_different","","3210.899999976158","task_switching","23","{""colorcue_switch_ans"":""26""}","experiment","","","","","","","","","","","","","","","colorcue_switch","26","true","add","red","8","","","","","","","","","","","","","",""
"","","","","","survey-text","198","2796047","0.0-146.0","A3FNC8ELMK8YJA","2022-05-19T13:39:04.935Z","phon_sim-task_switching-rhyme-same_different","","4310.399999976158","task_switching","41","{""colorcue_switch_ans"":""38""}","experiment","","","","","","","","","","","","","","","colorcue_switch","38","true","subtract","blue","9","","","","","","","","","","","","","",""
"","","","","","survey-text","199","2800267","0.0-147.0","A3FNC8ELMK8YJA","2022-05-19T13:39:04.935Z","phon_sim-task_switching-rhyme-same_different","","4209.300000071526","task_switching","84","{""colorcue_switch_ans"":""87""}","experiment","","","","","","","","","","","","","","","colorcue_switch","87","true","add","red","10","","","","","","","","","","","","","",""
"","","","","","survey-text","200","2805691","0.0-148.0","A3FNC8ELMK8YJA","2022-05-19T13:39:04.935Z","phon_sim-task_switching-rhyme-same_different","","5414.100000023842","task_switching","33","{""colorcue_switch_ans"":""30""}","experiment","","","","","","","","","","","","","","","colorcue_switch","30","true","subtract","blue","11","","","","","","","","","","","","","",""
"","","","","","survey-text","201","2810069","0.0-149.0","A3FNC8ELMK8YJA","2022-05-19T13:39:04.935Z","phon_sim-task_switching-rhyme-same_different","","4366.399999976158","task_switching","51","{""colorcue_switch_ans"":""54""}","experiment","","","","","","","","","","","","","","","colorcue_switch","54","true","add","red","12","","","","","","","","","","","","","",""
"","","","","","survey-text","202","2812793","0.0-150.0","A3FNC8ELMK8YJA","2022-05-19T13:39:04.935Z","phon_sim-task_switching-rhyme-same_different","","2714.399999976158","task_switching","43","{""colorcue_switch_ans"":""40""}","experiment","","","","","","","","","","","","","","","colorcue_switch","40","true","subtract","blue","13","","","","","","","","","","","","","",""
"","","","","","survey-text","203","2815903","0.0-151.0","A3FNC8ELMK8YJA","2022-05-19T13:39:04.935Z","phon_sim-task_switching-rhyme-same_different","","3099.899999976158","task_switching","21","{""colorcue_switch_ans"":""24""}","experiment","","","","","","","","","","","","","","","colorcue_switch","24","true","add","red","14","","","","","","","","","","","","","",""
"","","","","","survey-text","204","2820737","0.0-152.0","A3FNC8ELMK8YJA","2022-05-19T13:39:04.935Z","phon_sim-task_switching-rhyme-same_different","","4824.5","task_switching","93","{""colorcue_switch_ans"":""90""}","experiment","","","","","","","","","","","","","","","colorcue_switch","90","true","subtract","blue","15","","","","","","","","","","","","","",""
"","","","","","survey-text","205","2824957","0.0-153.0","A3FNC8ELMK8YJA","2022-05-19T13:39:04.935Z","phon_sim-task_switching-rhyme-same_different","","4210.299999952316","task_switching","89","{""colorcue_switch_ans"":""92""}","experiment","","","","","","","","","","","","","","","colorcue_switch","92","true","add","red","16","","","","","","","","","","","","","",""
"","","","","","survey-text","206","2829287","0.0-154.0","A3FNC8ELMK8YJA","2022-05-19T13:39:04.935Z","phon_sim-task_switching-rhyme-same_different","","4319","task_switching","66","{""colorcue_switch_ans"":""63""}","experiment","","","","","","","","","","","","","","","colorcue_switch","63","true","subtract","blue","17","","","","","","","","","","","","","",""
"","","","","","survey-text","207","2832590","0.0-155.0","A3FNC8ELMK8YJA","2022-05-19T13:39:04.935Z","phon_sim-task_switching-rhyme-same_different","","3293.1999999284744","task_switching","46","{""colorcue_switch_ans"":""49""}","experiment","","","","","","","","","","","","","","","colorcue_switch","49","true","add","red","18","","","","","","","","","","","","","",""
"","","","","","survey-text","208","2835717","0.0-156.0","A3FNC8ELMK8YJA","2022-05-19T13:39:04.935Z","phon_sim-task_switching-rhyme-same_different","","3115.5","task_switching","94","{""colorcue_switch_ans"":""91""}","experiment","","","","","","","","","","","","","","","colorcue_switch","91","true","subtract","blue","19","","","","","","","","","","","","","",""
"","","","","","survey-text","209","2839046","0.0-157.0","A3FNC8ELMK8YJA","2022-05-19T13:39:04.935Z","phon_sim-task_switching-rhyme-same_different","","3319.2999999523163","task_switching","50","{""colorcue_switch_ans"":""53""}","experiment","","","","","","","","","","","","","","","colorcue_switch","53","true","add","red","20","","","","","","","","","","","","","",""
"","","","","","survey-text","210","2841810","0.0-158.0","A3FNC8ELMK8YJA","2022-05-19T13:39:04.935Z","phon_sim-task_switching-rhyme-same_different","","2753.2999999523163","task_switching","36","{""colorcue_switch_ans"":""33""}","experiment","","","","","","","","","","","","","","","colorcue_switch","33","true","subtract","blue","21","","","","","","","","","","","","","",""
"","","","","","survey-text","211","2846494","0.0-159.0","A3FNC8ELMK8YJA","2022-05-19T13:39:04.935Z","phon_sim-task_switching-rhyme-same_different","","4672.799999952316","task_switching","59","{""colorcue_switch_ans"":""62""}","experiment","","","","","","","","","","","","","","","colorcue_switch","62","true","add","red","22","","","","","","","","","","","","","",""
"","","","","","survey-text","212","2850812","0.0-160.0","A3FNC8ELMK8YJA","2022-05-19T13:39:04.935Z","phon_sim-task_switching-rhyme-same_different","","4305.100000023842","task_switching","27","{""colorcue_switch_ans"":""24""}","experiment","","","","","","","","","","","","","","","colorcue_switch","24","true","subtract","blue","23","","","","","","","","","","","","","",""
"","","","","","survey-text","213","2853760","0.0-161.0","A3FNC8ELMK8YJA","2022-05-19T13:39:04.935Z","phon_sim-task_switching-rhyme-same_different","","2939.3000000715256","task_switching","53","{""colorcue_switch_ans"":""56""}","experiment","","","","","","","","","","","","","","","colorcue_switch","56","true","add","red","24","","","","","","","","","","","","","",""
"","","","","","survey-text","214","2857281","0.0-162.0","A3FNC8ELMK8YJA","2022-05-19T13:39:04.935Z","phon_sim-task_switching-rhyme-same_different","","3512.5","task_switching","96","{""colorcue_switch_ans"":""93""}","experiment","","","","","","","","","","","","","","","colorcue_switch","93","true","subtract","blue","25","","","","","","","","","","","","","",""
"","","","","","survey-text","215","2860502","0.0-163.0","A3FNC8ELMK8YJA","2022-05-19T13:39:04.935Z","phon_sim-task_switching-rhyme-same_different","","3212.399999976158","task_switching","76","{""colorcue_switch_ans"":""79""}","experiment","","","","","","","","","","","","","","","colorcue_switch","79","true","add","red","26","","","","","","","","","","","","","",""
"","","","","","survey-text","216","2864649","0.0-164.0","A3FNC8ELMK8YJA","2022-05-19T13:39:04.935Z","phon_sim-task_switching-rhyme-same_different","","4136.099999904633","task_switching","90","{""colorcue_switch_ans"":""87""}","experiment","","","","","","","","","","","","","","","colorcue_switch","87","true","subtract","blue","27","","","","","","","","","","","","","",""
"","","","","","survey-text","217","2867940","0.0-165.0","A3FNC8ELMK8YJA","2022-05-19T13:39:04.935Z","phon_sim-task_switching-rhyme-same_different","","3284.7999999523163","task_switching","64","{""colorcue_switch_ans"":""67""}","experiment","","","","","","","","","","","","","","","colorcue_switch","67","true","add","red","28","","","","","","","","","","","","","",""
"","","","","","survey-text","218","2871656","0.0-166.0","A3FNC8ELMK8YJA","2022-05-19T13:39:04.935Z","phon_sim-task_switching-rhyme-same_different","","3704","task_switching","42","{""colorcue_switch_ans"":""39""}","experiment","","","","","","","","","","","","","","","colorcue_switch","39","true","subtract","blue","29","","","","","","","","","","","","","",""
"","","","","","instructions","219","2881486","0.0-167.0","A3FNC8ELMK8YJA","2022-05-19T13:39:04.935Z","phon_sim-task_switching-rhyme-same_different","[{""page_index"":0,""viewing_time"":9827.599999904633}]","9828","task_switching","","","","","","","","","","","","","","","","","","","","","","","","","","","","","","","","","","","","",""
"","","","","","survey-text","220","2884644","0.0-168.0","A3FNC8ELMK8YJA","2022-05-19T13:39:04.935Z","phon_sim-task_switching-rhyme-same_different","","3152.100000023842","task_switching","48","{""uncued_switch_ans"":""51""}","training","","","","","","","","","","","","","","","uncued_switch","51","true","add","","0","","","","","","","","","","","","","",""
"","","","","","html-keyboard-response","221","2885662","0.0-169.0","A3FNC8ELMK8YJA","2022-05-19T13:39:04.935Z","phon_sim-task_switching-rhyme-same_different","","null","task_switching","<div style=""color:darkgreen; font-size:60px"">Well done!</div>","null","training","","","","","","","","","","","","","","","uncued_switch","","","","","","","","","","","","","","","","","","",""
"","","","","","survey-text","222","2890716","0.0-170.0","A3FNC8ELMK8YJA","2022-05-19T13:39:04.935Z","phon_sim-task_switching-rhyme-same_different","","5047.899999976158","task_switching","82","{""uncued_switch_ans"":""79""}","training","","","","","","","","","","","","","","","uncued_switch","79","true","subtract","","1","","","","","","","","","","","","","",""
"","","","","","html-keyboard-response","223","2891726","0.0-171.0","A3FNC8ELMK8YJA","2022-05-19T13:39:04.935Z","phon_sim-task_switching-rhyme-same_different","","null","task_switching","<div style=""color:darkgreen; font-size:60px"">Well done!</div>","null","training","","","","","","","","","","","","","","","uncued_switch","","","","","","","","","","","","","","","","","","",""
"","","","","","survey-text","224","2894939","0.0-172.0","A3FNC8ELMK8YJA","2022-05-19T13:39:04.935Z","phon_sim-task_switching-rhyme-same_different","","3206.7000000476837","task_switching","66","{""uncued_switch_ans"":""69""}","training","","","","","","","","","","","","","","","uncued_switch","69","true","add","","2","","","","","","","","","","","","","",""
"","","","","","html-keyboard-response","225","2895945","0.0-173.0","A3FNC8ELMK8YJA","2022-05-19T13:39:04.935Z","phon_sim-task_switching-rhyme-same_different","","null","task_switching","<div style=""color:darkgreen; font-size:60px"">Well done!</div>","null","training","","","","","","","","","","","","","","","uncued_switch","","","","","","","","","","","","","","","","","","",""
"","","","","","survey-text","226","2899039","0.0-174.0","A3FNC8ELMK8YJA","2022-05-19T13:39:04.935Z","phon_sim-task_switching-rhyme-same_different","","3087","task_switching","72","{""uncued_switch_ans"":""69""}","training","","","","","","","","","","","","","","","uncued_switch","69","true","subtract","","3","","","","","","","","","","","","","",""
"","","","","","html-keyboard-response","227","2900042","0.0-175.0","A3FNC8ELMK8YJA","2022-05-19T13:39:04.935Z","phon_sim-task_switching-rhyme-same_different","","null","task_switching","<div style=""color:darkgreen; font-size:60px"">Well done!</div>","null","training","","","","","","","","","","","","","","","uncued_switch","","","","","","","","","","","","","","","","","","",""
"","","","","","survey-text","228","2903770","0.0-176.0","A3FNC8ELMK8YJA","2022-05-19T13:39:04.935Z","phon_sim-task_switching-rhyme-same_different","","3724.399999976158","task_switching","79","{""uncued_switch_ans"":""82""}","training","","","","","","","","","","","","","","","uncued_switch","82","true","add","","4","","","","","","","","","","","","","",""
"","","","","","html-keyboard-response","229","2904779","0.0-177.0","A3FNC8ELMK8YJA","2022-05-19T13:39:04.935Z","phon_sim-task_switching-rhyme-same_different","","null","task_switching","<div style=""color:darkgreen; font-size:60px"">Well done!</div>","null","training","","","","","","","","","","","","","","","uncued_switch","","","","","","","","","","","","","","","","","","",""
"","","","","","survey-text","230","2907377","0.0-178.0","A3FNC8ELMK8YJA","2022-05-19T13:39:04.935Z","phon_sim-task_switching-rhyme-same_different","","2590.7999999523163","task_switching","26","{""uncued_switch_ans"":""23""}","training","","","","","","","","","","","","","","","uncued_switch","23","true","subtract","","5","","","","","","","","","","","","","",""
"","","","","","html-keyboard-response","231","2908396","0.0-179.0","A3FNC8ELMK8YJA","2022-05-19T13:39:04.935Z","phon_sim-task_switching-rhyme-same_different","","null","task_switching","<div style=""color:darkgreen; font-size:60px"">Well done!</div>","null","training","","","","","","","","","","","","","","","uncued_switch","","","","","","","","","","","","","","","","","","",""
"","","","","","survey-text","232","2911069","0.0-180.0","A3FNC8ELMK8YJA","2022-05-19T13:39:04.935Z","phon_sim-task_switching-rhyme-same_different","","2665.399999976158","task_switching","52","{""uncued_switch_ans"":""55""}","training","","","","","","","","","","","","","","","uncued_switch","55","true","add","","6","","","","","","","","","","","","","",""
"","","","","","html-keyboard-response","233","2912085","0.0-181.0","A3FNC8ELMK8YJA","2022-05-19T13:39:04.935Z","phon_sim-task_switching-rhyme-same_different","","null","task_switching","<div style=""color:darkgreen; font-size:60px"">Well done!</div>","null","training","","","","","","","","","","","","","","","uncued_switch","","","","","","","","","","","","","","","","","","",""
"","","","","","survey-text","234","2914667","0.0-182.0","A3FNC8ELMK8YJA","2022-05-19T13:39:04.935Z","phon_sim-task_switching-rhyme-same_different","","2578.2000000476837","task_switching","56","{""uncued_switch_ans"":""53""}","training","","","","","","","","","","","","","","","uncued_switch","53","true","subtract","","7","","","","","","","","","","","","","",""
"","","","","","html-keyboard-response","235","2915685","0.0-183.0","A3FNC8ELMK8YJA","2022-05-19T13:39:04.935Z","phon_sim-task_switching-rhyme-same_different","","null","task_switching","<div style=""color:darkgreen; font-size:60px"">Well done!</div>","null","training","","","","","","","","","","","","","","","uncued_switch","","","","","","","","","","","","","","","","","","",""
"","","","","","survey-text","236","2919045","0.0-184.0","A3FNC8ELMK8YJA","2022-05-19T13:39:04.935Z","phon_sim-task_switching-rhyme-same_different","","3352.899999976158","task_switching","14","{""uncued_switch_ans"":""17""}","training","","","","","","","","","","","","","","","uncued_switch","17","true","add","","8","","","","","","","","","","","","","",""
