"success","timeout","failed_images","failed_audio","failed_video","trial_type","trial_index","time_elapsed","internal_node_id","worker_id","start_time","experiment_order","view_history","rt","experiment","stimulus","response","wait_time","correct","phase","image_1","image_2","cor_key","type","question_order","talk_out_loud","strategy_free_ans","judgment_type","stim_1","stim_2","inverted","answer","true_pos","true_neg","false_neg","false_pos","word_1","word_2","word_3","word_4","word_5","original_word_set","response_1","response_2","response_3","response_4","response_5","condition","operation","trial_no","symbol_cue","color_cue"
"true","false","[]","[]","[]","preload","0","544","0.0-0.0","A1JJYY622DGE5L","2022-05-18T16:04:26.948Z","rhyme-same_different-phon_sim-task_switching","","","","","","","","","","","","","","","","","","","","","","","","","","","","","","","","","","","","","","","",""
"","","","","","instructions","1","4431","0.0-1.0","A1JJYY622DGE5L","2022-05-18T16:04:26.948Z","rhyme-same_different-phon_sim-task_switching","[{""page_index"":0,""viewing_time"":3882.8999999910593}]","3885.0999999940395","","","","","","","","","","","","","","","","","","","","","","","","","","","","","","","","","","","","","",""
"true","","","","","fullscreen","2","7221","0.0-2.0","A1JJYY622DGE5L","2022-05-18T16:04:26.948Z","rhyme-same_different-phon_sim-task_switching","","","","","","","","","","","","","","","","","","","","","","","","","","","","","","","","","","","","","","","",""
"","","","","","instructions","3","24522","0.0-3.0","A1JJYY622DGE5L","2022-05-18T16:04:26.948Z","rhyme-same_different-phon_sim-task_switching","[{""page_index"":0,""viewing_time"":17295.29999999702}]","17296.70000000298","rhyme","","","","","","","","","","","","","","","","","","","","","","","","","","","","","","","","","","","","",""
"","","","","","html-keyboard-response","4","25298","0.0-4.0-0.0","A1JJYY622DGE5L","2022-05-18T16:04:26.948Z","rhyme-same_different-phon_sim-task_switching","","null","rhyme","<div style=""font-size:60px;"">+</div>","null","750","","","","","","","","","","","","","","","","","","","","","","","","","","","","","","","","","",""
"","","","","","html-keyboard-response","5","25825","0.0-4.0-1.0","A1JJYY622DGE5L","2022-05-18T16:04:26.948Z","rhyme-same_different-phon_sim-task_switching","","null","rhyme","<img src=""square.png"" width=""306"" height=""306"" style=""position: fixed;left:14%;top:30%""><img src=""square.png"" width=""306"" height=""306"" style=""position: fixed;left:64%;top:30%"">","null","","","","","","","","","","","","","","","","","","","","","","","","","","","","","","","","","","",""
"","","","","","categorize-html","6","28298","0.0-4.0-2.0","A1JJYY622DGE5L","2022-05-18T16:04:26.948Z","rhyme-same_different-phon_sim-task_switching","","1455.7000000029802","rhyme","<div style=""border: 3px solid #000000; position: fixed;left:14%;top:30%""><img src=""visual/chess.png"" width=""300""></div><div style=""border: 3px solid #000000; position: fixed;left:64%;top:30%""><img src=""visual/suit.png"" width=""300""></div>","arrowdown","","true","training","visual/chess.png","visual/suit.png","ArrowDown","NA","","","","","","","","","","","","","","","","","","","","","","","","","","","",""
"","","","","","html-keyboard-response","7","29316","0.0-4.0-0.1","A1JJYY622DGE5L","2022-05-18T16:04:26.948Z","rhyme-same_different-phon_sim-task_switching","","null","rhyme","<div style=""font-size:60px;"">+</div>","null","1000","","","","","","","","","","","","","","","","","","","","","","","","","","","","","","","","","",""
"","","","","","html-keyboard-response","8","29832","0.0-4.0-1.1","A1JJYY622DGE5L","2022-05-18T16:04:26.948Z","rhyme-same_different-phon_sim-task_switching","","null","rhyme","<img src=""square.png"" width=""306"" height=""306"" style=""position: fixed;left:14%;top:30%""><img src=""square.png"" width=""306"" height=""306"" style=""position: fixed;left:64%;top:30%"">","null","","","","","","","","","","","","","","","","","","","","","","","","","","","","","","","","","","",""
"","","","","","categorize-html","9","32083","0.0-4.0-2.1","A1JJYY622DGE5L","2022-05-18T16:04:26.948Z","rhyme-same_different-phon_sim-task_switching","","1230.5","rhyme","<div style=""border: 3px solid #000000; position: fixed;left:14%;top:30%""><img src=""visual/mouse.png"" width=""300""></div><div style=""border: 3px solid #000000; position: fixed;left:64%;top:30%""><img src=""visual/dress.png"" width=""300""></div>","arrowdown","","true","training","visual/mouse.png","visual/dress.png","ArrowDown","NA","","","","","","","","","","","","","","","","","","","","","","","","","","","",""
"","","","","","html-keyboard-response","10","33096","0.0-4.0-0.2","A1JJYY622DGE5L","2022-05-18T16:04:26.948Z","rhyme-same_different-phon_sim-task_switching","","null","rhyme","<div style=""font-size:60px;"">+</div>","null","1000","","","","","","","","","","","","","","","","","","","","","","","","","","","","","","","","","",""
"","","","","","html-keyboard-response","11","33614","0.0-4.0-1.2","A1JJYY622DGE5L","2022-05-18T16:04:26.948Z","rhyme-same_different-phon_sim-task_switching","","null","rhyme","<img src=""square.png"" width=""306"" height=""306"" style=""position: fixed;left:14%;top:30%""><img src=""square.png"" width=""306"" height=""306"" style=""position: fixed;left:64%;top:30%"">","null","","","","","","","","","","","","","","","","","","","","","","","","","","","","","","","","","","",""
"","","","","","categorize-html","12","35848","0.0-4.0-2.2","A1JJYY622DGE5L","2022-05-18T16:04:26.948Z","rhyme-same_different-phon_sim-task_switching","","1218.7000000029802","rhyme","<div style=""border: 3px solid #000000; position: fixed;left:14%;top:30%""><img src=""visual/house.png"" width=""300""></div><div style=""border: 3px solid #000000; position: fixed;left:64%;top:30%""><img src=""visual/mouse.png"" width=""300""></div>","arrowup","","true","training","visual/house.png","visual/mouse.png","ArrowUp","NA","","","","","","","","","","","","","","","","","","","","","","","","","","","",""
"","","","","","html-keyboard-response","13","36363","0.0-4.0-0.3","A1JJYY622DGE5L","2022-05-18T16:04:26.948Z","rhyme-same_different-phon_sim-task_switching","","null","rhyme","<div style=""font-size:60px;"">+</div>","null","500","","","","","","","","","","","","","","","","","","","","","","","","","","","","","","","","","",""
"","","","","","html-keyboard-response","14","36880","0.0-4.0-1.3","A1JJYY622DGE5L","2022-05-18T16:04:26.948Z","rhyme-same_different-phon_sim-task_switching","","null","rhyme","<img src=""square.png"" width=""306"" height=""306"" style=""position: fixed;left:14%;top:30%""><img src=""square.png"" width=""306"" height=""306"" style=""position: fixed;left:64%;top:30%"">","null","","","","","","","","","","","","","","","","","","","","","","","","","","","","","","","","","","",""
"","","","","","categorize-html","15","39297","0.0-4.0-2.3","A1JJYY622DGE5L","2022-05-18T16:04:26.948Z","rhyme-same_different-phon_sim-task_switching","","1403.2000000029802","rhyme","<div style=""border: 3px solid #000000; position: fixed;left:14%;top:30%""><img src=""visual/dress.png"" width=""300""></div><div style=""border: 3px solid #000000; position: fixed;left:64%;top:30%""><img src=""visual/chess.png"" width=""300""></div>","arrowup","","true","training","visual/dress.png","visual/chess.png","ArrowUp","NA","","","","","","","","","","","","","","","","","","","","","","","","","","","",""
"","","","","","instructions","16","42537","0.0-5.0","A1JJYY622DGE5L","2022-05-18T16:04:26.948Z","rhyme-same_different-phon_sim-task_switching","[{""page_index"":0,""viewing_time"":3237.7999999970198}]","3239","","","","","","","","","","","","","","","","","","","","","","","","","","","","","","","","","","","","","",""
"","","","","","html-keyboard-response","17","43042","0.0-6.0-0.0","A1JJYY622DGE5L","2022-05-18T16:04:26.948Z","rhyme-same_different-phon_sim-task_switching","","null","rhyme","<div style=""font-size:60px;"">+</div>","null","500","","","","","","","","","","","","","","","","","","","","","","","","","","","","","","","","","",""
"","","","","","html-keyboard-response","18","43562","0.0-6.0-1.0","A1JJYY622DGE5L","2022-05-18T16:04:26.948Z","rhyme-same_different-phon_sim-task_switching","","null","rhyme","<img src=""square.png"" width=""306"" height=""306"" style=""position: fixed;left:14%;top:30%""><img src=""square.png"" width=""306"" height=""306"" style=""position: fixed;left:64%;top:30%"">","null","","","","","","","","","","","","","","","","","","","","","","","","","","","","","","","","","","",""
"","","","","","html-keyboard-response","19","44800","0.0-6.0-2.0","A1JJYY622DGE5L","2022-05-18T16:04:26.948Z","rhyme-same_different-phon_sim-task_switching","","1231.5","rhyme","<div style=""border: 3px solid #000000; position: fixed;left:14%;top:30%""><img src=""visual/bone.png"" width=""300""></div><div style=""border: 3px solid #000000; position: fixed;left:64%;top:30%""><img src=""visual/cone.png"" width=""300""></div>","arrowup","","true","experiment","visual/bone.png","visual/cone.png","ArrowUp","ortho","","","","","","","","","","","","","","","","","","","","","","","","","","","",""
"","","","","","html-keyboard-response","20","45065","0.0-6.0-0.1","A1JJYY622DGE5L","2022-05-18T16:04:26.948Z","rhyme-same_different-phon_sim-task_switching","","null","rhyme","<div style=""font-size:60px;"">+</div>","null","250","","","","","","","","","","","","","","","","","","","","","","","","","","","","","","","","","",""
"","","","","","html-keyboard-response","21","45580","0.0-6.0-1.1","A1JJYY622DGE5L","2022-05-18T16:04:26.948Z","rhyme-same_different-phon_sim-task_switching","","null","rhyme","<img src=""square.png"" width=""306"" height=""306"" style=""position: fixed;left:14%;top:30%""><img src=""square.png"" width=""306"" height=""306"" style=""position: fixed;left:64%;top:30%"">","null","","","","","","","","","","","","","","","","","","","","","","","","","","","","","","","","","","",""
"","","","","","html-keyboard-response","22","46963","0.0-6.0-2.1","A1JJYY622DGE5L","2022-05-18T16:04:26.948Z","rhyme-same_different-phon_sim-task_switching","","1378.1000000089407","rhyme","<div style=""border: 3px solid #000000; position: fixed;left:14%;top:30%""><img src=""visual/screw.png"" width=""300""></div><div style=""border: 3px solid #000000; position: fixed;left:64%;top:30%""><img src=""visual/shoe.png"" width=""300""></div>","arrowup","","true","experiment","visual/screw.png","visual/shoe.png","ArrowUp","non-ortho","","","","","","","","","","","","","","","","","","","","","","","","","","","",""
"","","","","","html-keyboard-response","23","47229","0.0-6.0-0.2","A1JJYY622DGE5L","2022-05-18T16:04:26.948Z","rhyme-same_different-phon_sim-task_switching","","null","rhyme","<div style=""font-size:60px;"">+</div>","null","250","","","","","","","","","","","","","","","","","","","","","","","","","","","","","","","","","",""
"","","","","","html-keyboard-response","24","47746","0.0-6.0-1.2","A1JJYY622DGE5L","2022-05-18T16:04:26.948Z","rhyme-same_different-phon_sim-task_switching","","null","rhyme","<img src=""square.png"" width=""306"" height=""306"" style=""position: fixed;left:14%;top:30%""><img src=""square.png"" width=""306"" height=""306"" style=""position: fixed;left:64%;top:30%"">","null","","","","","","","","","","","","","","","","","","","","","","","","","","","","","","","","","","",""
"","","","","","html-keyboard-response","25","50748","0.0-6.0-2.2","A1JJYY622DGE5L","2022-05-18T16:04:26.948Z","rhyme-same_different-phon_sim-task_switching","","2997.4000000059605","rhyme","<div style=""border: 3px solid #000000; position: fixed;left:14%;top:30%""><img src=""visual/bear.png"" width=""300""></div><div style=""border: 3px solid #000000; position: fixed;left:64%;top:30%""><img src=""visual/crane.png"" width=""300""></div>","arrowdown","","true","experiment","visual/bear.png","visual/crane.png","ArrowDown","NR","","","","","","","","","","","","","","","","","","","","","","","","","","","",""
"","","","","","html-keyboard-response","26","51015","0.0-6.0-0.3","A1JJYY622DGE5L","2022-05-18T16:04:26.948Z","rhyme-same_different-phon_sim-task_switching","","null","rhyme","<div style=""font-size:60px;"">+</div>","null","250","","","","","","","","","","","","","","","","","","","","","","","","","","","","","","","","","",""
"","","","","","html-keyboard-response","27","51529","0.0-6.0-1.3","A1JJYY622DGE5L","2022-05-18T16:04:26.948Z","rhyme-same_different-phon_sim-task_switching","","null","rhyme","<img src=""square.png"" width=""306"" height=""306"" style=""position: fixed;left:14%;top:30%""><img src=""square.png"" width=""306"" height=""306"" style=""position: fixed;left:64%;top:30%"">","null","","","","","","","","","","","","","","","","","","","","","","","","","","","","","","","","","","",""
"","","","","","html-keyboard-response","28","53183","0.0-6.0-2.3","A1JJYY622DGE5L","2022-05-18T16:04:26.948Z","rhyme-same_different-phon_sim-task_switching","","1648.2999999970198","rhyme","<div style=""border: 3px solid #000000; position: fixed;left:14%;top:30%""><img src=""visual/pear.png"" width=""300""></div><div style=""border: 3px solid #000000; position: fixed;left:64%;top:30%""><img src=""visual/rope.png"" width=""300""></div>","arrowdown","","true","experiment","visual/pear.png","visual/rope.png","ArrowDown","NR","","","","","","","","","","","","","","","","","","","","","","","","","","","",""
"","","","","","html-keyboard-response","29","53697","0.0-6.0-0.4","A1JJYY622DGE5L","2022-05-18T16:04:26.948Z","rhyme-same_different-phon_sim-task_switching","","null","rhyme","<div style=""font-size:60px;"">+</div>","null","500","","","","","","","","","","","","","","","","","","","","","","","","","","","","","","","","","",""
"","","","","","html-keyboard-response","30","54213","0.0-6.0-1.4","A1JJYY622DGE5L","2022-05-18T16:04:26.948Z","rhyme-same_different-phon_sim-task_switching","","null","rhyme","<img src=""square.png"" width=""306"" height=""306"" style=""position: fixed;left:14%;top:30%""><img src=""square.png"" width=""306"" height=""306"" style=""position: fixed;left:64%;top:30%"">","null","","","","","","","","","","","","","","","","","","","","","","","","","","","","","","","","","","",""
"","","","","","html-keyboard-response","31","56099","0.0-6.0-2.4","A1JJYY622DGE5L","2022-05-18T16:04:26.948Z","rhyme-same_different-phon_sim-task_switching","","1881.1000000089407","rhyme","<div style=""border: 3px solid #000000; position: fixed;left:14%;top:30%""><img src=""visual/rake.png"" width=""300""></div><div style=""border: 3px solid #000000; position: fixed;left:64%;top:30%""><img src=""visual/park.png"" width=""300""></div>","arrowdown","","true","experiment","visual/rake.png","visual/park.png","ArrowDown","NR","","","","","","","","","","","","","","","","","","","","","","","","","","","",""
"","","","","","html-keyboard-response","32","57113","0.0-6.0-0.5","A1JJYY622DGE5L","2022-05-18T16:04:26.948Z","rhyme-same_different-phon_sim-task_switching","","null","rhyme","<div style=""font-size:60px;"">+</div>","null","1000","","","","","","","","","","","","","","","","","","","","","","","","","","","","","","","","","",""
"","","","","","html-keyboard-response","33","57629","0.0-6.0-1.5","A1JJYY622DGE5L","2022-05-18T16:04:26.948Z","rhyme-same_different-phon_sim-task_switching","","null","rhyme","<img src=""square.png"" width=""306"" height=""306"" style=""position: fixed;left:14%;top:30%""><img src=""square.png"" width=""306"" height=""306"" style=""position: fixed;left:64%;top:30%"">","null","","","","","","","","","","","","","","","","","","","","","","","","","","","","","","","","","","",""
"","","","","","html-keyboard-response","34","59097","0.0-6.0-2.5","A1JJYY622DGE5L","2022-05-18T16:04:26.948Z","rhyme-same_different-phon_sim-task_switching","","1461.7000000029802","rhyme","<div style=""border: 3px solid #000000; position: fixed;left:14%;top:30%""><img src=""visual/king.png"" width=""300""></div><div style=""border: 3px solid #000000; position: fixed;left:64%;top:30%""><img src=""visual/cab.png"" width=""300""></div>","arrowdown","","true","experiment","visual/king.png","visual/cab.png","ArrowDown","NR","","","","","","","","","","","","","","","","","","","","","","","","","","","",""
"","","","","","html-keyboard-response","35","60112","0.0-6.0-0.6","A1JJYY622DGE5L","2022-05-18T16:04:26.948Z","rhyme-same_different-phon_sim-task_switching","","null","rhyme","<div style=""font-size:60px;"">+</div>","null","1000","","","","","","","","","","","","","","","","","","","","","","","","","","","","","","","","","",""
"","","","","","html-keyboard-response","36","60630","0.0-6.0-1.6","A1JJYY622DGE5L","2022-05-18T16:04:26.948Z","rhyme-same_different-phon_sim-task_switching","","null","rhyme","<img src=""square.png"" width=""306"" height=""306"" style=""position: fixed;left:14%;top:30%""><img src=""square.png"" width=""306"" height=""306"" style=""position: fixed;left:64%;top:30%"">","null","","","","","","","","","","","","","","","","","","","","","","","","","","","","","","","","","","",""
"","","","","","html-keyboard-response","37","63032","0.0-6.0-2.6","A1JJYY622DGE5L","2022-05-18T16:04:26.948Z","rhyme-same_different-phon_sim-task_switching","","2397.7000000029802","rhyme","<div style=""border: 3px solid #000000; position: fixed;left:14%;top:30%""><img src=""visual/train.png"" width=""300""></div><div style=""border: 3px solid #000000; position: fixed;left:64%;top:30%""><img src=""visual/screw.png"" width=""300""></div>","arrowdown","","true","experiment","visual/train.png","visual/screw.png","ArrowDown","NR","","","","","","","","","","","","","","","","","","","","","","","","","","","",""
"","","","","","html-keyboard-response","38","63797","0.0-6.0-0.7","A1JJYY622DGE5L","2022-05-18T16:04:26.948Z","rhyme-same_different-phon_sim-task_switching","","null","rhyme","<div style=""font-size:60px;"">+</div>","null","750","","","","","","","","","","","","","","","","","","","","","","","","","","","","","","","","","",""
"","","","","","html-keyboard-response","39","64313","0.0-6.0-1.7","A1JJYY622DGE5L","2022-05-18T16:04:26.948Z","rhyme-same_different-phon_sim-task_switching","","null","rhyme","<img src=""square.png"" width=""306"" height=""306"" style=""position: fixed;left:14%;top:30%""><img src=""square.png"" width=""306"" height=""306"" style=""position: fixed;left:64%;top:30%"">","null","","","","","","","","","","","","","","","","","","","","","","","","","","","","","","","","","","",""
"","","","","","html-keyboard-response","40","65896","0.0-6.0-2.7","A1JJYY622DGE5L","2022-05-18T16:04:26.948Z","rhyme-same_different-phon_sim-task_switching","","1576.8999999910593","rhyme","<div style=""border: 3px solid #000000; position: fixed;left:14%;top:30%""><img src=""visual/eye.png"" width=""300""></div><div style=""border: 3px solid #000000; position: fixed;left:64%;top:30%""><img src=""visual/tie.png"" width=""300""></div>","arrowup","","true","experiment","visual/eye.png","visual/tie.png","ArrowUp","non-ortho","","","","","","","","","","","","","","","","","","","","","","","","","","","",""
"","","","","","html-keyboard-response","41","66656","0.0-6.0-0.8","A1JJYY622DGE5L","2022-05-18T16:04:26.948Z","rhyme-same_different-phon_sim-task_switching","","null","rhyme","<div style=""font-size:60px;"">+</div>","null","750","","","","","","","","","","","","","","","","","","","","","","","","","","","","","","","","","",""
"","","","","","html-keyboard-response","42","67172","0.0-6.0-1.8","A1JJYY622DGE5L","2022-05-18T16:04:26.948Z","rhyme-same_different-phon_sim-task_switching","","null","rhyme","<img src=""square.png"" width=""306"" height=""306"" style=""position: fixed;left:14%;top:30%""><img src=""square.png"" width=""306"" height=""306"" style=""position: fixed;left:64%;top:30%"">","null","","","","","","","","","","","","","","","","","","","","","","","","","","","","","","","","","","",""
"","","","","","html-keyboard-response","43","68335","0.0-6.0-2.8","A1JJYY622DGE5L","2022-05-18T16:04:26.948Z","rhyme-same_different-phon_sim-task_switching","","1156.7999999970198","rhyme","<div style=""border: 3px solid #000000; position: fixed;left:14%;top:30%""><img src=""visual/deer.png"" width=""300""></div><div style=""border: 3px solid #000000; position: fixed;left:64%;top:30%""><img src=""visual/beer.png"" width=""300""></div>","arrowup","","true","experiment","visual/deer.png","visual/beer.png","ArrowUp","ortho","","","","","","","","","","","","","","","","","","","","","","","","","","","",""
"","","","","","html-keyboard-response","44","69347","0.0-6.0-0.9","A1JJYY622DGE5L","2022-05-18T16:04:26.948Z","rhyme-same_different-phon_sim-task_switching","","null","rhyme","<div style=""font-size:60px;"">+</div>","null","1000","","","","","","","","","","","","","","","","","","","","","","","","","","","","","","","","","",""
"","","","","","html-keyboard-response","45","69874","0.0-6.0-1.9","A1JJYY622DGE5L","2022-05-18T16:04:26.948Z","rhyme-same_different-phon_sim-task_switching","","null","rhyme","<img src=""square.png"" width=""306"" height=""306"" style=""position: fixed;left:14%;top:30%""><img src=""square.png"" width=""306"" height=""306"" style=""position: fixed;left:64%;top:30%"">","null","","","","","","","","","","","","","","","","","","","","","","","","","","","","","","","","","","",""
"","","","","","html-keyboard-response","46","72398","0.0-6.0-2.9","A1JJYY622DGE5L","2022-05-18T16:04:26.948Z","rhyme-same_different-phon_sim-task_switching","","2518.5999999940395","rhyme","<div style=""border: 3px solid #000000; position: fixed;left:14%;top:30%""><img src=""visual/egg.png"" width=""300""></div><div style=""border: 3px solid #000000; position: fixed;left:64%;top:30%""><img src=""visual/ring.png"" width=""300""></div>","arrowdown","","true","experiment","visual/egg.png","visual/ring.png","ArrowDown","NR","","","","","","","","","","","","","","","","","","","","","","","","","","","",""
"","","","","","html-keyboard-response","47","73412","0.0-6.0-0.10","A1JJYY622DGE5L","2022-05-18T16:04:26.948Z","rhyme-same_different-phon_sim-task_switching","","null","rhyme","<div style=""font-size:60px;"">+</div>","null","1000","","","","","","","","","","","","","","","","","","","","","","","","","","","","","","","","","",""
"","","","","","html-keyboard-response","48","73929","0.0-6.0-1.10","A1JJYY622DGE5L","2022-05-18T16:04:26.948Z","rhyme-same_different-phon_sim-task_switching","","null","rhyme","<img src=""square.png"" width=""306"" height=""306"" style=""position: fixed;left:14%;top:30%""><img src=""square.png"" width=""306"" height=""306"" style=""position: fixed;left:64%;top:30%"">","null","","","","","","","","","","","","","","","","","","","","","","","","","","","","","","","","","","",""
"","","","","","html-keyboard-response","49","74914","0.0-6.0-2.10","A1JJYY622DGE5L","2022-05-18T16:04:26.948Z","rhyme-same_different-phon_sim-task_switching","","979.1000000089407","rhyme","<div style=""border: 3px solid #000000; position: fixed;left:14%;top:30%""><img src=""visual/cat.png"" width=""300""></div><div style=""border: 3px solid #000000; position: fixed;left:64%;top:30%""><img src=""visual/hat.png"" width=""300""></div>","arrowup","","true","experiment","visual/cat.png","visual/hat.png","ArrowUp","ortho","","","","","","","","","","","","","","","","","","","","","","","","","","","",""
"","","","","","html-keyboard-response","50","75931","0.0-6.0-0.11","A1JJYY622DGE5L","2022-05-18T16:04:26.948Z","rhyme-same_different-phon_sim-task_switching","","null","rhyme","<div style=""font-size:60px;"">+</div>","null","1000","","","","","","","","","","","","","","","","","","","","","","","","","","","","","","","","","",""
"","","","","","html-keyboard-response","51","76446","0.0-6.0-1.11","A1JJYY622DGE5L","2022-05-18T16:04:26.948Z","rhyme-same_different-phon_sim-task_switching","","null","rhyme","<img src=""square.png"" width=""306"" height=""306"" style=""position: fixed;left:14%;top:30%""><img src=""square.png"" width=""306"" height=""306"" style=""position: fixed;left:64%;top:30%"">","null","","","","","","","","","","","","","","","","","","","","","","","","","","","","","","","","","","",""
"","","","","","html-keyboard-response","52","78021","0.0-6.0-2.11","A1JJYY622DGE5L","2022-05-18T16:04:26.948Z","rhyme-same_different-phon_sim-task_switching","","1570.5","rhyme","<div style=""border: 3px solid #000000; position: fixed;left:14%;top:30%""><img src=""visual/shark.png"" width=""300""></div><div style=""border: 3px solid #000000; position: fixed;left:64%;top:30%""><img src=""visual/park.png"" width=""300""></div>","arrowup","","true","experiment","visual/shark.png","visual/park.png","ArrowUp","ortho","","","","","","","","","","","","","","","","","","","","","","","","","","","",""
"","","","","","html-keyboard-response","53","79031","0.0-6.0-0.12","A1JJYY622DGE5L","2022-05-18T16:04:26.948Z","rhyme-same_different-phon_sim-task_switching","","null","rhyme","<div style=""font-size:60px;"">+</div>","null","1000","","","","","","","","","","","","","","","","","","","","","","","","","","","","","","","","","",""
"","","","","","html-keyboard-response","54","79549","0.0-6.0-1.12","A1JJYY622DGE5L","2022-05-18T16:04:26.948Z","rhyme-same_different-phon_sim-task_switching","","null","rhyme","<img src=""square.png"" width=""306"" height=""306"" style=""position: fixed;left:14%;top:30%""><img src=""square.png"" width=""306"" height=""306"" style=""position: fixed;left:64%;top:30%"">","null","","","","","","","","","","","","","","","","","","","","","","","","","","","","","","","","","","",""
"","","","","","html-keyboard-response","55","81353","0.0-6.0-2.12","A1JJYY622DGE5L","2022-05-18T16:04:26.948Z","rhyme-same_different-phon_sim-task_switching","","1797.5999999940395","rhyme","<div style=""border: 3px solid #000000; position: fixed;left:14%;top:30%""><img src=""visual/claw.png"" width=""300""></div><div style=""border: 3px solid #000000; position: fixed;left:64%;top:30%""><img src=""visual/beer.png"" width=""300""></div>","arrowdown","","true","experiment","visual/claw.png","visual/beer.png","ArrowDown","NR","","","","","","","","","","","","","","","","","","","","","","","","","","","",""
"","","","","","html-keyboard-response","56","82114","0.0-6.0-0.13","A1JJYY622DGE5L","2022-05-18T16:04:26.948Z","rhyme-same_different-phon_sim-task_switching","","null","rhyme","<div style=""font-size:60px;"">+</div>","null","750","","","","","","","","","","","","","","","","","","","","","","","","","","","","","","","","","",""
"","","","","","html-keyboard-response","57","82628","0.0-6.0-1.13","A1JJYY622DGE5L","2022-05-18T16:04:26.948Z","rhyme-same_different-phon_sim-task_switching","","null","rhyme","<img src=""square.png"" width=""306"" height=""306"" style=""position: fixed;left:14%;top:30%""><img src=""square.png"" width=""306"" height=""306"" style=""position: fixed;left:64%;top:30%"">","null","","","","","","","","","","","","","","","","","","","","","","","","","","","","","","","","","","",""
"","","","","","html-keyboard-response","58","85573","0.0-6.0-2.13","A1JJYY622DGE5L","2022-05-18T16:04:26.948Z","rhyme-same_different-phon_sim-task_switching","","2940.2999999970198","rhyme","<div style=""border: 3px solid #000000; position: fixed;left:14%;top:30%""><img src=""visual/train.png"" width=""300""></div><div style=""border: 3px solid #000000; position: fixed;left:64%;top:30%""><img src=""visual/crane.png"" width=""300""></div>","arrowdown","","false","experiment","visual/train.png","visual/crane.png","ArrowUp","non-ortho","","","","","","","","","","","","","","","","","","","","","","","","","","","",""
"","","","","","html-keyboard-response","59","86329","0.0-6.0-0.14","A1JJYY622DGE5L","2022-05-18T16:04:26.948Z","rhyme-same_different-phon_sim-task_switching","","null","rhyme","<div style=""font-size:60px;"">+</div>","null","750","","","","","","","","","","","","","","","","","","","","","","","","","","","","","","","","","",""
"","","","","","html-keyboard-response","60","86846","0.0-6.0-1.14","A1JJYY622DGE5L","2022-05-18T16:04:26.948Z","rhyme-same_different-phon_sim-task_switching","","null","rhyme","<img src=""square.png"" width=""306"" height=""306"" style=""position: fixed;left:14%;top:30%""><img src=""square.png"" width=""306"" height=""306"" style=""position: fixed;left:64%;top:30%"">","null","","","","","","","","","","","","","","","","","","","","","","","","","","","","","","","","","","",""
"","","","","","html-keyboard-response","61","88812","0.0-6.0-2.14","A1JJYY622DGE5L","2022-05-18T16:04:26.948Z","rhyme-same_different-phon_sim-task_switching","","1960.2999999970198","rhyme","<div style=""border: 3px solid #000000; position: fixed;left:14%;top:30%""><img src=""visual/bear.png"" width=""300""></div><div style=""border: 3px solid #000000; position: fixed;left:64%;top:30%""><img src=""visual/square_rhyme.png"" width=""300""></div>","arrowup","","true","experiment","visual/bear.png","visual/square_rhyme.png","ArrowUp","non-ortho","","","","","","","","","","","","","","","","","","","","","","","","","","","",""
"","","","","","html-keyboard-response","62","89830","0.0-6.0-0.15","A1JJYY622DGE5L","2022-05-18T16:04:26.948Z","rhyme-same_different-phon_sim-task_switching","","null","rhyme","<div style=""font-size:60px;"">+</div>","null","1000","","","","","","","","","","","","","","","","","","","","","","","","","","","","","","","","","",""
"","","","","","html-keyboard-response","63","90346","0.0-6.0-1.15","A1JJYY622DGE5L","2022-05-18T16:04:26.948Z","rhyme-same_different-phon_sim-task_switching","","null","rhyme","<img src=""square.png"" width=""306"" height=""306"" style=""position: fixed;left:14%;top:30%""><img src=""square.png"" width=""306"" height=""306"" style=""position: fixed;left:64%;top:30%"">","null","","","","","","","","","","","","","","","","","","","","","","","","","","","","","","","","","","",""
"","","","","","html-keyboard-response","64","92712","0.0-6.0-2.15","A1JJYY622DGE5L","2022-05-18T16:04:26.948Z","rhyme-same_different-phon_sim-task_switching","","2361.7999999970198","rhyme","<div style=""border: 3px solid #000000; position: fixed;left:14%;top:30%""><img src=""visual/nail.png"" width=""300""></div><div style=""border: 3px solid #000000; position: fixed;left:64%;top:30%""><img src=""visual/whale.png"" width=""300""></div>","arrowup","","true","experiment","visual/nail.png","visual/whale.png","ArrowUp","non-orthoh","","","","","","","","","","","","","","","","","","","","","","","","","","","",""
"","","","","","html-keyboard-response","65","93731","0.0-6.0-0.16","A1JJYY622DGE5L","2022-05-18T16:04:26.948Z","rhyme-same_different-phon_sim-task_switching","","null","rhyme","<div style=""font-size:60px;"">+</div>","null","1000","","","","","","","","","","","","","","","","","","","","","","","","","","","","","","","","","",""
"","","","","","html-keyboard-response","66","94247","0.0-6.0-1.16","A1JJYY622DGE5L","2022-05-18T16:04:26.948Z","rhyme-same_different-phon_sim-task_switching","","null","rhyme","<img src=""square.png"" width=""306"" height=""306"" style=""position: fixed;left:14%;top:30%""><img src=""square.png"" width=""306"" height=""306"" style=""position: fixed;left:64%;top:30%"">","null","","","","","","","","","","","","","","","","","","","","","","","","","","","","","","","","","","",""
"","","","","","html-keyboard-response","67","96136","0.0-6.0-2.16","A1JJYY622DGE5L","2022-05-18T16:04:26.948Z","rhyme-same_different-phon_sim-task_switching","","1883.0999999940395","rhyme","<div style=""border: 3px solid #000000; position: fixed;left:14%;top:30%""><img src=""visual/spoon.png"" width=""300""></div><div style=""border: 3px solid #000000; position: fixed;left:64%;top:30%""><img src=""visual/crab.png"" width=""300""></div>","arrowdown","","true","experiment","visual/spoon.png","visual/crab.png","ArrowDown","NR","","","","","","","","","","","","","","","","","","","","","","","","","","","",""
"","","","","","html-keyboard-response","68","96649","0.0-6.0-0.17","A1JJYY622DGE5L","2022-05-18T16:04:26.948Z","rhyme-same_different-phon_sim-task_switching","","null","rhyme","<div style=""font-size:60px;"">+</div>","null","500","","","","","","","","","","","","","","","","","","","","","","","","","","","","","","","","","",""
"","","","","","html-keyboard-response","69","97172","0.0-6.0-1.17","A1JJYY622DGE5L","2022-05-18T16:04:26.948Z","rhyme-same_different-phon_sim-task_switching","","null","rhyme","<img src=""square.png"" width=""306"" height=""306"" style=""position: fixed;left:14%;top:30%""><img src=""square.png"" width=""306"" height=""306"" style=""position: fixed;left:64%;top:30%"">","null","","","","","","","","","","","","","","","","","","","","","","","","","","","","","","","","","","",""
"","","","","","html-keyboard-response","70","98521","0.0-6.0-2.17","A1JJYY622DGE5L","2022-05-18T16:04:26.948Z","rhyme-same_different-phon_sim-task_switching","","1341.5","rhyme","<div style=""border: 3px solid #000000; position: fixed;left:14%;top:30%""><img src=""visual/spoon.png"" width=""300""></div><div style=""border: 3px solid #000000; position: fixed;left:64%;top:30%""><img src=""visual/moon.png"" width=""300""></div>","arrowup","","true","experiment","visual/spoon.png","visual/moon.png","ArrowUp","ortho","","","","","","","","","","","","","","","","","","","","","","","","","","","",""
"","","","","","html-keyboard-response","71","99530","0.0-6.0-0.18","A1JJYY622DGE5L","2022-05-18T16:04:26.948Z","rhyme-same_different-phon_sim-task_switching","","null","rhyme","<div style=""font-size:60px;"">+</div>","null","1000","","","","","","","","","","","","","","","","","","","","","","","","","","","","","","","","","",""
"","","","","","html-keyboard-response","72","100046","0.0-6.0-1.18","A1JJYY622DGE5L","2022-05-18T16:04:26.948Z","rhyme-same_different-phon_sim-task_switching","","null","rhyme","<img src=""square.png"" width=""306"" height=""306"" style=""position: fixed;left:14%;top:30%""><img src=""square.png"" width=""306"" height=""306"" style=""position: fixed;left:64%;top:30%"">","null","","","","","","","","","","","","","","","","","","","","","","","","","","","","","","","","","","",""
"","","","","","html-keyboard-response","73","101146","0.0-6.0-2.18","A1JJYY622DGE5L","2022-05-18T16:04:26.948Z","rhyme-same_different-phon_sim-task_switching","","1095.7000000029802","rhyme","<div style=""border: 3px solid #000000; position: fixed;left:14%;top:30%""><img src=""visual/star.png"" width=""300""></div><div style=""border: 3px solid #000000; position: fixed;left:64%;top:30%""><img src=""visual/jar.png"" width=""300""></div>","arrowup","","true","experiment","visual/star.png","visual/jar.png","ArrowUp","ortho","","","","","","","","","","","","","","","","","","","","","","","","","","","",""
"","","","","","html-keyboard-response","74","101912","0.0-6.0-0.19","A1JJYY622DGE5L","2022-05-18T16:04:26.948Z","rhyme-same_different-phon_sim-task_switching","","null","rhyme","<div style=""font-size:60px;"">+</div>","null","750","","","","","","","","","","","","","","","","","","","","","","","","","","","","","","","","","",""
"","","","","","html-keyboard-response","75","102429","0.0-6.0-1.19","A1JJYY622DGE5L","2022-05-18T16:04:26.948Z","rhyme-same_different-phon_sim-task_switching","","null","rhyme","<img src=""square.png"" width=""306"" height=""306"" style=""position: fixed;left:14%;top:30%""><img src=""square.png"" width=""306"" height=""306"" style=""position: fixed;left:64%;top:30%"">","null","","","","","","","","","","","","","","","","","","","","","","","","","","","","","","","","","","",""
"","","","","","html-keyboard-response","76","103569","0.0-6.0-2.19","A1JJYY622DGE5L","2022-05-18T16:04:26.948Z","rhyme-same_different-phon_sim-task_switching","","1135.5","rhyme","<div style=""border: 3px solid #000000; position: fixed;left:14%;top:30%""><img src=""visual/jar.png"" width=""300""></div><div style=""border: 3px solid #000000; position: fixed;left:64%;top:30%""><img src=""visual/whale.png"" width=""300""></div>","arrowdown","","true","experiment","visual/jar.png","visual/whale.png","ArrowDown","NR","","","","","","","","","","","","","","","","","","","","","","","","","","","",""
"","","","","","html-keyboard-response","77","103830","0.0-6.0-0.20","A1JJYY622DGE5L","2022-05-18T16:04:26.948Z","rhyme-same_different-phon_sim-task_switching","","null","rhyme","<div style=""font-size:60px;"">+</div>","null","250","","","","","","","","","","","","","","","","","","","","","","","","","","","","","","","","","",""
"","","","","","html-keyboard-response","78","104346","0.0-6.0-1.20","A1JJYY622DGE5L","2022-05-18T16:04:26.948Z","rhyme-same_different-phon_sim-task_switching","","null","rhyme","<img src=""square.png"" width=""306"" height=""306"" style=""position: fixed;left:14%;top:30%""><img src=""square.png"" width=""306"" height=""306"" style=""position: fixed;left:64%;top:30%"">","null","","","","","","","","","","","","","","","","","","","","","","","","","","","","","","","","","","",""
"","","","","","html-keyboard-response","79","105614","0.0-6.0-2.20","A1JJYY622DGE5L","2022-05-18T16:04:26.948Z","rhyme-same_different-phon_sim-task_switching","","1263.9000000059605","rhyme","<div style=""border: 3px solid #000000; position: fixed;left:14%;top:30%""><img src=""visual/fan.png"" width=""300""></div><div style=""border: 3px solid #000000; position: fixed;left:64%;top:30%""><img src=""visual/man.png"" width=""300""></div>","arrowup","","true","experiment","visual/fan.png","visual/man.png","ArrowUp","ortho","","","","","","","","","","","","","","","","","","","","","","","","","","","",""
"","","","","","html-keyboard-response","80","105879","0.0-6.0-0.21","A1JJYY622DGE5L","2022-05-18T16:04:26.948Z","rhyme-same_different-phon_sim-task_switching","","null","rhyme","<div style=""font-size:60px;"">+</div>","null","250","","","","","","","","","","","","","","","","","","","","","","","","","","","","","","","","","",""
"","","","","","html-keyboard-response","81","106395","0.0-6.0-1.21","A1JJYY622DGE5L","2022-05-18T16:04:26.948Z","rhyme-same_different-phon_sim-task_switching","","null","rhyme","<img src=""square.png"" width=""306"" height=""306"" style=""position: fixed;left:14%;top:30%""><img src=""square.png"" width=""306"" height=""306"" style=""position: fixed;left:64%;top:30%"">","null","","","","","","","","","","","","","","","","","","","","","","","","","","","","","","","","","","",""
"","","","","","html-keyboard-response","82","107714","0.0-6.0-2.21","A1JJYY622DGE5L","2022-05-18T16:04:26.948Z","rhyme-same_different-phon_sim-task_switching","","1314","rhyme","<div style=""border: 3px solid #000000; position: fixed;left:14%;top:30%""><img src=""visual/cat.png"" width=""300""></div><div style=""border: 3px solid #000000; position: fixed;left:64%;top:30%""><img src=""visual/sock.png"" width=""300""></div>","arrowdown","","true","experiment","visual/cat.png","visual/sock.png","ArrowDown","NR","","","","","","","","","","","","","","","","","","","","","","","","","","","",""
"","","","","","html-keyboard-response","83","108228","0.0-6.0-0.22","A1JJYY622DGE5L","2022-05-18T16:04:26.948Z","rhyme-same_different-phon_sim-task_switching","","null","rhyme","<div style=""font-size:60px;"">+</div>","null","500","","","","","","","","","","","","","","","","","","","","","","","","","","","","","","","","","",""
"","","","","","html-keyboard-response","84","108747","0.0-6.0-1.22","A1JJYY622DGE5L","2022-05-18T16:04:26.948Z","rhyme-same_different-phon_sim-task_switching","","null","rhyme","<img src=""square.png"" width=""306"" height=""306"" style=""position: fixed;left:14%;top:30%""><img src=""square.png"" width=""306"" height=""306"" style=""position: fixed;left:64%;top:30%"">","null","","","","","","","","","","","","","","","","","","","","","","","","","","","","","","","","","","",""
"","","","","","html-keyboard-response","85","111723","0.0-6.0-2.22","A1JJYY622DGE5L","2022-05-18T16:04:26.948Z","rhyme-same_different-phon_sim-task_switching","","2972.2000000029802","rhyme","<div style=""border: 3px solid #000000; position: fixed;left:14%;top:30%""><img src=""visual/bed.png"" width=""300""></div><div style=""border: 3px solid #000000; position: fixed;left:64%;top:30%""><img src=""visual/bread.png"" width=""300""></div>","arrowup","","true","experiment","visual/bed.png","visual/bread.png","ArrowUp","non-ortho","","","","","","","","","","","","","","","","","","","","","","","","","","","",""
"","","","","","html-keyboard-response","86","112229","0.0-6.0-0.23","A1JJYY622DGE5L","2022-05-18T16:04:26.948Z","rhyme-same_different-phon_sim-task_switching","","null","rhyme","<div style=""font-size:60px;"">+</div>","null","500","","","","","","","","","","","","","","","","","","","","","","","","","","","","","","","","","",""
"","","","","","html-keyboard-response","87","112745","0.0-6.0-1.23","A1JJYY622DGE5L","2022-05-18T16:04:26.948Z","rhyme-same_different-phon_sim-task_switching","","null","rhyme","<img src=""square.png"" width=""306"" height=""306"" style=""position: fixed;left:14%;top:30%""><img src=""square.png"" width=""306"" height=""306"" style=""position: fixed;left:64%;top:30%"">","null","","","","","","","","","","","","","","","","","","","","","","","","","","","","","","","","","","",""
"","","","","","html-keyboard-response","88","114099","0.0-6.0-2.23","A1JJYY622DGE5L","2022-05-18T16:04:26.948Z","rhyme-same_different-phon_sim-task_switching","","1348","rhyme","<div style=""border: 3px solid #000000; position: fixed;left:14%;top:30%""><img src=""visual/soap.png"" width=""300""></div><div style=""border: 3px solid #000000; position: fixed;left:64%;top:30%""><img src=""visual/rope.png"" width=""300""></div>","arrowup","","true","experiment","visual/soap.png","visual/rope.png","ArrowUp","non-ortho","","","","","","","","","","","","","","","","","","","","","","","","","","","",""
"","","","","","html-keyboard-response","89","114614","0.0-6.0-0.24","A1JJYY622DGE5L","2022-05-18T16:04:26.948Z","rhyme-same_different-phon_sim-task_switching","","null","rhyme","<div style=""font-size:60px;"">+</div>","null","500","","","","","","","","","","","","","","","","","","","","","","","","","","","","","","","","","",""
"","","","","","html-keyboard-response","90","115128","0.0-6.0-1.24","A1JJYY622DGE5L","2022-05-18T16:04:26.948Z","rhyme-same_different-phon_sim-task_switching","","null","rhyme","<img src=""square.png"" width=""306"" height=""306"" style=""position: fixed;left:14%;top:30%""><img src=""square.png"" width=""306"" height=""306"" style=""position: fixed;left:64%;top:30%"">","null","","","","","","","","","","","","","","","","","","","","","","","","","","","","","","","","","","",""
"","","","","","html-keyboard-response","91","116273","0.0-6.0-2.24","A1JJYY622DGE5L","2022-05-18T16:04:26.948Z","rhyme-same_different-phon_sim-task_switching","","1139.0999999940395","rhyme","<div style=""border: 3px solid #000000; position: fixed;left:14%;top:30%""><img src=""visual/key.png"" width=""300""></div><div style=""border: 3px solid #000000; position: fixed;left:64%;top:30%""><img src=""visual/tree.png"" width=""300""></div>","arrowup","","true","experiment","visual/key.png","visual/tree.png","ArrowUp","non-ortho","","","","","","","","","","","","","","","","","","","","","","","","","","","",""
"","","","","","html-keyboard-response","92","116779","0.0-6.0-0.25","A1JJYY622DGE5L","2022-05-18T16:04:26.948Z","rhyme-same_different-phon_sim-task_switching","","null","rhyme","<div style=""font-size:60px;"">+</div>","null","500","","","","","","","","","","","","","","","","","","","","","","","","","","","","","","","","","",""
"","","","","","html-keyboard-response","93","117295","0.0-6.0-1.25","A1JJYY622DGE5L","2022-05-18T16:04:26.948Z","rhyme-same_different-phon_sim-task_switching","","null","rhyme","<img src=""square.png"" width=""306"" height=""306"" style=""position: fixed;left:14%;top:30%""><img src=""square.png"" width=""306"" height=""306"" style=""position: fixed;left:64%;top:30%"">","null","","","","","","","","","","","","","","","","","","","","","","","","","","","","","","","","","","",""
"","","","","","html-keyboard-response","94","121072","0.0-6.0-2.25","A1JJYY622DGE5L","2022-05-18T16:04:26.948Z","rhyme-same_different-phon_sim-task_switching","","3772.199999988079","rhyme","<div style=""border: 3px solid #000000; position: fixed;left:14%;top:30%""><img src=""visual/chain.png"" width=""300""></div><div style=""border: 3px solid #000000; position: fixed;left:64%;top:30%""><img src=""visual/brain.png"" width=""300""></div>","arrowup","","true","experiment","visual/chain.png","visual/brain.png","ArrowUp","ortho","","","","","","","","","","","","","","","","","","","","","","","","","","","",""
"","","","","","html-keyboard-response","95","121580","0.0-6.0-0.26","A1JJYY622DGE5L","2022-05-18T16:04:26.948Z","rhyme-same_different-phon_sim-task_switching","","null","rhyme","<div style=""font-size:60px;"">+</div>","null","500","","","","","","","","","","","","","","","","","","","","","","","","","","","","","","","","","",""
"","","","","","html-keyboard-response","96","122095","0.0-6.0-1.26","A1JJYY622DGE5L","2022-05-18T16:04:26.948Z","rhyme-same_different-phon_sim-task_switching","","null","rhyme","<img src=""square.png"" width=""306"" height=""306"" style=""position: fixed;left:14%;top:30%""><img src=""square.png"" width=""306"" height=""306"" style=""position: fixed;left:64%;top:30%"">","null","","","","","","","","","","","","","","","","","","","","","","","","","","","","","","","","","","",""
"","","","","","html-keyboard-response","97","123397","0.0-6.0-2.26","A1JJYY622DGE5L","2022-05-18T16:04:26.948Z","rhyme-same_different-phon_sim-task_switching","","1295.5999999940395","rhyme","<div style=""border: 3px solid #000000; position: fixed;left:14%;top:30%""><img src=""visual/brain.png"" width=""300""></div><div style=""border: 3px solid #000000; position: fixed;left:64%;top:30%""><img src=""visual/clock.png"" width=""300""></div>","arrowdown","","true","experiment","visual/brain.png","visual/clock.png","ArrowDown","NR","","","","","","","","","","","","","","","","","","","","","","","","","","","",""
"","","","","","html-keyboard-response","98","123914","0.0-6.0-0.27","A1JJYY622DGE5L","2022-05-18T16:04:26.948Z","rhyme-same_different-phon_sim-task_switching","","null","rhyme","<div style=""font-size:60px;"">+</div>","null","500","","","","","","","","","","","","","","","","","","","","","","","","","","","","","","","","","",""
"","","","","","html-keyboard-response","99","124428","0.0-6.0-1.27","A1JJYY622DGE5L","2022-05-18T16:04:26.948Z","rhyme-same_different-phon_sim-task_switching","","null","rhyme","<img src=""square.png"" width=""306"" height=""306"" style=""position: fixed;left:14%;top:30%""><img src=""square.png"" width=""306"" height=""306"" style=""position: fixed;left:64%;top:30%"">","null","","","","","","","","","","","","","","","","","","","","","","","","","","","","","","","","","","",""
"","","","","","html-keyboard-response","100","126292","0.0-6.0-2.27","A1JJYY622DGE5L","2022-05-18T16:04:26.948Z","rhyme-same_different-phon_sim-task_switching","","1858.6000000089407","rhyme","<div style=""border: 3px solid #000000; position: fixed;left:14%;top:30%""><img src=""visual/socks.png"" width=""300""></div><div style=""border: 3px solid #000000; position: fixed;left:64%;top:30%""><img src=""visual/fox.png"" width=""300""></div>","arrowup","","true","experiment","visual/socks.png","visual/fox.png","ArrowUp","non-ortho","","","","","","","","","","","","","","","","","","","","","","","","","","","",""
"","","","","","html-keyboard-response","101","126797","0.0-6.0-0.28","A1JJYY622DGE5L","2022-05-18T16:04:26.948Z","rhyme-same_different-phon_sim-task_switching","","null","rhyme","<div style=""font-size:60px;"">+</div>","null","500","","","","","","","","","","","","","","","","","","","","","","","","","","","","","","","","","",""
"","","","","","html-keyboard-response","102","127312","0.0-6.0-1.28","A1JJYY622DGE5L","2022-05-18T16:04:26.948Z","rhyme-same_different-phon_sim-task_switching","","null","rhyme","<img src=""square.png"" width=""306"" height=""306"" style=""position: fixed;left:14%;top:30%""><img src=""square.png"" width=""306"" height=""306"" style=""position: fixed;left:64%;top:30%"">","null","","","","","","","","","","","","","","","","","","","","","","","","","","","","","","","","","","",""
"","","","","","html-keyboard-response","103","128702","0.0-6.0-2.28","A1JJYY622DGE5L","2022-05-18T16:04:26.948Z","rhyme-same_different-phon_sim-task_switching","","1383.7999999970198","rhyme","<div style=""border: 3px solid #000000; position: fixed;left:14%;top:30%""><img src=""visual/rose.png"" width=""300""></div><div style=""border: 3px solid #000000; position: fixed;left:64%;top:30%""><img src=""visual/nose.png"" width=""300""></div>","arrowup","","true","experiment","visual/rose.png","visual/nose.png","ArrowUp","ortho","","","","","","","","","","","","","","","","","","","","","","","","","","","",""
"","","","","","html-keyboard-response","104","129718","0.0-6.0-0.29","A1JJYY622DGE5L","2022-05-18T16:04:26.948Z","rhyme-same_different-phon_sim-task_switching","","null","rhyme","<div style=""font-size:60px;"">+</div>","null","1000","","","","","","","","","","","","","","","","","","","","","","","","","","","","","","","","","",""
"","","","","","html-keyboard-response","105","130229","0.0-6.0-1.29","A1JJYY622DGE5L","2022-05-18T16:04:26.948Z","rhyme-same_different-phon_sim-task_switching","","null","rhyme","<img src=""square.png"" width=""306"" height=""306"" style=""position: fixed;left:14%;top:30%""><img src=""square.png"" width=""306"" height=""306"" style=""position: fixed;left:64%;top:30%"">","null","","","","","","","","","","","","","","","","","","","","","","","","","","","","","","","","","","",""
"","","","","","html-keyboard-response","106","133168","0.0-6.0-2.29","A1JJYY622DGE5L","2022-05-18T16:04:26.948Z","rhyme-same_different-phon_sim-task_switching","","2935.2999999970198","rhyme","<div style=""border: 3px solid #000000; position: fixed;left:14%;top:30%""><img src=""visual/pope.png"" width=""300""></div><div style=""border: 3px solid #000000; position: fixed;left:64%;top:30%""><img src=""visual/soap.png"" width=""300""></div>","arrowup","","true","experiment","visual/pope.png","visual/soap.png","ArrowUp","non-ortho","","","","","","","","","","","","","","","","","","","","","","","","","","","",""
"","","","","","html-keyboard-response","107","133680","0.0-6.0-0.30","A1JJYY622DGE5L","2022-05-18T16:04:26.948Z","rhyme-same_different-phon_sim-task_switching","","null","rhyme","<div style=""font-size:60px;"">+</div>","null","500","","","","","","","","","","","","","","","","","","","","","","","","","","","","","","","","","",""
"","","","","","html-keyboard-response","108","134195","0.0-6.0-1.30","A1JJYY622DGE5L","2022-05-18T16:04:26.948Z","rhyme-same_different-phon_sim-task_switching","","null","rhyme","<img src=""square.png"" width=""306"" height=""306"" style=""position: fixed;left:14%;top:30%""><img src=""square.png"" width=""306"" height=""306"" style=""position: fixed;left:64%;top:30%"">","null","","","","","","","","","","","","","","","","","","","","","","","","","","","","","","","","","","",""
"","","","","","html-keyboard-response","109","136285","0.0-6.0-2.30","A1JJYY622DGE5L","2022-05-18T16:04:26.948Z","rhyme-same_different-phon_sim-task_switching","","2084","rhyme","<div style=""border: 3px solid #000000; position: fixed;left:14%;top:30%""><img src=""visual/wave.png"" width=""300""></div><div style=""border: 3px solid #000000; position: fixed;left:64%;top:30%""><img src=""visual/cave.png"" width=""300""></div>","arrowup","","true","experiment","visual/wave.png","visual/cave.png","ArrowUp","ortho","","","","","","","","","","","","","","","","","","","","","","","","","","","",""
"","","","","","html-keyboard-response","110","137046","0.0-6.0-0.31","A1JJYY622DGE5L","2022-05-18T16:04:26.948Z","rhyme-same_different-phon_sim-task_switching","","null","rhyme","<div style=""font-size:60px;"">+</div>","null","750","","","","","","","","","","","","","","","","","","","","","","","","","","","","","","","","","",""
"","","","","","html-keyboard-response","111","137561","0.0-6.0-1.31","A1JJYY622DGE5L","2022-05-18T16:04:26.948Z","rhyme-same_different-phon_sim-task_switching","","null","rhyme","<img src=""square.png"" width=""306"" height=""306"" style=""position: fixed;left:14%;top:30%""><img src=""square.png"" width=""306"" height=""306"" style=""position: fixed;left:64%;top:30%"">","null","","","","","","","","","","","","","","","","","","","","","","","","","","","","","","","","","","",""
"","","","","","html-keyboard-response","112","138890","0.0-6.0-2.31","A1JJYY622DGE5L","2022-05-18T16:04:26.948Z","rhyme-same_different-phon_sim-task_switching","","1326.2000000029802","rhyme","<div style=""border: 3px solid #000000; position: fixed;left:14%;top:30%""><img src=""visual/well.png"" width=""300""></div><div style=""border: 3px solid #000000; position: fixed;left:64%;top:30%""><img src=""visual/rose.png"" width=""300""></div>","arrowdown","","true","experiment","visual/well.png","visual/rose.png","ArrowDown","NR","","","","","","","","","","","","","","","","","","","","","","","","","","","",""
"","","","","","html-keyboard-response","113","139646","0.0-6.0-0.32","A1JJYY622DGE5L","2022-05-18T16:04:26.948Z","rhyme-same_different-phon_sim-task_switching","","null","rhyme","<div style=""font-size:60px;"">+</div>","null","750","","","","","","","","","","","","","","","","","","","","","","","","","","","","","","","","","",""
"","","","","","html-keyboard-response","114","140162","0.0-6.0-1.32","A1JJYY622DGE5L","2022-05-18T16:04:26.948Z","rhyme-same_different-phon_sim-task_switching","","null","rhyme","<img src=""square.png"" width=""306"" height=""306"" style=""position: fixed;left:14%;top:30%""><img src=""square.png"" width=""306"" height=""306"" style=""position: fixed;left:64%;top:30%"">","null","","","","","","","","","","","","","","","","","","","","","","","","","","","","","","","","","","",""
"","","","","","html-keyboard-response","115","141595","0.0-6.0-2.32","A1JJYY622DGE5L","2022-05-18T16:04:26.948Z","rhyme-same_different-phon_sim-task_switching","","1428.5999999940395","rhyme","<div style=""border: 3px solid #000000; position: fixed;left:14%;top:30%""><img src=""visual/snail.png"" width=""300""></div><div style=""border: 3px solid #000000; position: fixed;left:64%;top:30%""><img src=""visual/whale.png"" width=""300""></div>","arrowup","","true","experiment","visual/snail.png","visual/whale.png","ArrowUp","non-ortho","","","","","","","","","","","","","","","","","","","","","","","","","","","",""
"","","","","","html-keyboard-response","116","142611","0.0-6.0-0.33","A1JJYY622DGE5L","2022-05-18T16:04:26.948Z","rhyme-same_different-phon_sim-task_switching","","null","rhyme","<div style=""font-size:60px;"">+</div>","null","1000","","","","","","","","","","","","","","","","","","","","","","","","","","","","","","","","","",""
"","","","","","html-keyboard-response","117","143129","0.0-6.0-1.33","A1JJYY622DGE5L","2022-05-18T16:04:26.948Z","rhyme-same_different-phon_sim-task_switching","","null","rhyme","<img src=""square.png"" width=""306"" height=""306"" style=""position: fixed;left:14%;top:30%""><img src=""square.png"" width=""306"" height=""306"" style=""position: fixed;left:64%;top:30%"">","null","","","","","","","","","","","","","","","","","","","","","","","","","","","","","","","","","","",""
"","","","","","html-keyboard-response","118","144288","0.0-6.0-2.33","A1JJYY622DGE5L","2022-05-18T16:04:26.948Z","rhyme-same_different-phon_sim-task_switching","","1153.7999999970198","rhyme","<div style=""border: 3px solid #000000; position: fixed;left:14%;top:30%""><img src=""visual/dart.png"" width=""300""></div><div style=""border: 3px solid #000000; position: fixed;left:64%;top:30%""><img src=""visual/heart.png"" width=""300""></div>","arrowup","","true","experiment","visual/dart.png","visual/heart.png","ArrowUp","non-ortho","","","","","","","","","","","","","","","","","","","","","","","","","","","",""
"","","","","","html-keyboard-response","119","144547","0.0-6.0-0.34","A1JJYY622DGE5L","2022-05-18T16:04:26.948Z","rhyme-same_different-phon_sim-task_switching","","null","rhyme","<div style=""font-size:60px;"">+</div>","null","250","","","","","","","","","","","","","","","","","","","","","","","","","","","","","","","","","",""
"","","","","","html-keyboard-response","120","145062","0.0-6.0-1.34","A1JJYY622DGE5L","2022-05-18T16:04:26.948Z","rhyme-same_different-phon_sim-task_switching","","null","rhyme","<img src=""square.png"" width=""306"" height=""306"" style=""position: fixed;left:14%;top:30%""><img src=""square.png"" width=""306"" height=""306"" style=""position: fixed;left:64%;top:30%"">","null","","","","","","","","","","","","","","","","","","","","","","","","","","","","","","","","","","",""
"","","","","","html-keyboard-response","121","146323","0.0-6.0-2.34","A1JJYY622DGE5L","2022-05-18T16:04:26.948Z","rhyme-same_different-phon_sim-task_switching","","1256.7000000029802","rhyme","<div style=""border: 3px solid #000000; position: fixed;left:14%;top:30%""><img src=""visual/sock.png"" width=""300""></div><div style=""border: 3px solid #000000; position: fixed;left:64%;top:30%""><img src=""visual/clock.png"" width=""300""></div>","arrowdown","","false","experiment","visual/sock.png","visual/clock.png","ArrowUp","ortho","","","","","","","","","","","","","","","","","","","","","","","","","","","",""
"","","","","","html-keyboard-response","122","147079","0.0-6.0-0.35","A1JJYY622DGE5L","2022-05-18T16:04:26.948Z","rhyme-same_different-phon_sim-task_switching","","null","rhyme","<div style=""font-size:60px;"">+</div>","null","750","","","","","","","","","","","","","","","","","","","","","","","","","","","","","","","","","",""
"","","","","","html-keyboard-response","123","147595","0.0-6.0-1.35","A1JJYY622DGE5L","2022-05-18T16:04:26.948Z","rhyme-same_different-phon_sim-task_switching","","null","rhyme","<img src=""square.png"" width=""306"" height=""306"" style=""position: fixed;left:14%;top:30%""><img src=""square.png"" width=""306"" height=""306"" style=""position: fixed;left:64%;top:30%"">","null","","","","","","","","","","","","","","","","","","","","","","","","","","","","","","","","","","",""
"","","","","","html-keyboard-response","124","151644","0.0-6.0-2.35","A1JJYY622DGE5L","2022-05-18T16:04:26.948Z","rhyme-same_different-phon_sim-task_switching","","4045.1000000089407","rhyme","<div style=""border: 3px solid #000000; position: fixed;left:14%;top:30%""><img src=""visual/cake.png"" width=""300""></div><div style=""border: 3px solid #000000; position: fixed;left:64%;top:30%""><img src=""visual/rake.png"" width=""300""></div>","arrowdown","","false","experiment","visual/cake.png","visual/rake.png","ArrowUp","ortho","","","","","","","","","","","","","","","","","","","","","","","","","","","",""
"","","","","","html-keyboard-response","125","152412","0.0-6.0-0.36","A1JJYY622DGE5L","2022-05-18T16:04:26.948Z","rhyme-same_different-phon_sim-task_switching","","null","rhyme","<div style=""font-size:60px;"">+</div>","null","750","","","","","","","","","","","","","","","","","","","","","","","","","","","","","","","","","",""
"","","","","","html-keyboard-response","126","152928","0.0-6.0-1.36","A1JJYY622DGE5L","2022-05-18T16:04:26.948Z","rhyme-same_different-phon_sim-task_switching","","null","rhyme","<img src=""square.png"" width=""306"" height=""306"" style=""position: fixed;left:14%;top:30%""><img src=""square.png"" width=""306"" height=""306"" style=""position: fixed;left:64%;top:30%"">","null","","","","","","","","","","","","","","","","","","","","","","","","","","","","","","","","","","",""
"","","","","","html-keyboard-response","127","154462","0.0-6.0-2.36","A1JJYY622DGE5L","2022-05-18T16:04:26.948Z","rhyme-same_different-phon_sim-task_switching","","1527.9000000059605","rhyme","<div style=""border: 3px solid #000000; position: fixed;left:14%;top:30%""><img src=""visual/box.png"" width=""300""></div><div style=""border: 3px solid #000000; position: fixed;left:64%;top:30%""><img src=""visual/fox.png"" width=""300""></div>","arrowup","","true","experiment","visual/box.png","visual/fox.png","ArrowUp","ortho","","","","","","","","","","","","","","","","","","","","","","","","","","","",""
"","","","","","html-keyboard-response","128","155228","0.0-6.0-0.37","A1JJYY622DGE5L","2022-05-18T16:04:26.948Z","rhyme-same_different-phon_sim-task_switching","","null","rhyme","<div style=""font-size:60px;"">+</div>","null","750","","","","","","","","","","","","","","","","","","","","","","","","","","","","","","","","","",""
"","","","","","html-keyboard-response","129","155746","0.0-6.0-1.37","A1JJYY622DGE5L","2022-05-18T16:04:26.948Z","rhyme-same_different-phon_sim-task_switching","","null","rhyme","<img src=""square.png"" width=""306"" height=""306"" style=""position: fixed;left:14%;top:30%""><img src=""square.png"" width=""306"" height=""306"" style=""position: fixed;left:64%;top:30%"">","null","","","","","","","","","","","","","","","","","","","","","","","","","","","","","","","","","","",""
"","","","","","html-keyboard-response","130","157913","0.0-6.0-2.37","A1JJYY622DGE5L","2022-05-18T16:04:26.948Z","rhyme-same_different-phon_sim-task_switching","","2161.9000000059605","rhyme","<div style=""border: 3px solid #000000; position: fixed;left:14%;top:30%""><img src=""visual/drum.png"" width=""300""></div><div style=""border: 3px solid #000000; position: fixed;left:64%;top:30%""><img src=""visual/thumb.png"" width=""300""></div>","arrowup","","true","experiment","visual/drum.png","visual/thumb.png","ArrowUp","non-ortho","","","","","","","","","","","","","","","","","","","","","","","","","","","",""
"","","","","","html-keyboard-response","131","158179","0.0-6.0-0.38","A1JJYY622DGE5L","2022-05-18T16:04:26.948Z","rhyme-same_different-phon_sim-task_switching","","null","rhyme","<div style=""font-size:60px;"">+</div>","null","250","","","","","","","","","","","","","","","","","","","","","","","","","","","","","","","","","",""
"","","","","","html-keyboard-response","132","158695","0.0-6.0-1.38","A1JJYY622DGE5L","2022-05-18T16:04:26.948Z","rhyme-same_different-phon_sim-task_switching","","null","rhyme","<img src=""square.png"" width=""306"" height=""306"" style=""position: fixed;left:14%;top:30%""><img src=""square.png"" width=""306"" height=""306"" style=""position: fixed;left:64%;top:30%"">","null","","","","","","","","","","","","","","","","","","","","","","","","","","","","","","","","","","",""
"","","","","","html-keyboard-response","133","162157","0.0-6.0-2.38","A1JJYY622DGE5L","2022-05-18T16:04:26.948Z","rhyme-same_different-phon_sim-task_switching","","3458","rhyme","<div style=""border: 3px solid #000000; position: fixed;left:14%;top:30%""><img src=""visual/drawer.png"" width=""300""></div><div style=""border: 3px solid #000000; position: fixed;left:64%;top:30%""><img src=""visual/chair.png"" width=""300""></div>","arrowdown","","true","experiment","visual/drawer.png","visual/chair.png","ArrowDown","NR","","","","","","","","","","","","","","","","","","","","","","","","","","","",""
"","","","","","html-keyboard-response","134","162928","0.0-6.0-0.39","A1JJYY622DGE5L","2022-05-18T16:04:26.948Z","rhyme-same_different-phon_sim-task_switching","","null","rhyme","<div style=""font-size:60px;"">+</div>","null","750","","","","","","","","","","","","","","","","","","","","","","","","","","","","","","","","","",""
"","","","","","html-keyboard-response","135","163445","0.0-6.0-1.39","A1JJYY622DGE5L","2022-05-18T16:04:26.948Z","rhyme-same_different-phon_sim-task_switching","","null","rhyme","<img src=""square.png"" width=""306"" height=""306"" style=""position: fixed;left:14%;top:30%""><img src=""square.png"" width=""306"" height=""306"" style=""position: fixed;left:64%;top:30%"">","null","","","","","","","","","","","","","","","","","","","","","","","","","","","","","","","","","","",""
"","","","","","html-keyboard-response","136","164765","0.0-6.0-2.39","A1JJYY622DGE5L","2022-05-18T16:04:26.948Z","rhyme-same_different-phon_sim-task_switching","","1314.800000011921","rhyme","<div style=""border: 3px solid #000000; position: fixed;left:14%;top:30%""><img src=""visual/king.png"" width=""300""></div><div style=""border: 3px solid #000000; position: fixed;left:64%;top:30%""><img src=""visual/ring.png"" width=""300""></div>","arrowup","","true","experiment","visual/king.png","visual/ring.png","ArrowUp","ortho","","","","","","","","","","","","","","","","","","","","","","","","","","","",""
"","","","","","html-keyboard-response","137","165779","0.0-6.0-0.40","A1JJYY622DGE5L","2022-05-18T16:04:26.948Z","rhyme-same_different-phon_sim-task_switching","","null","rhyme","<div style=""font-size:60px;"">+</div>","null","1000","","","","","","","","","","","","","","","","","","","","","","","","","","","","","","","","","",""
"","","","","","html-keyboard-response","138","166296","0.0-6.0-1.40","A1JJYY622DGE5L","2022-05-18T16:04:26.948Z","rhyme-same_different-phon_sim-task_switching","","null","rhyme","<img src=""square.png"" width=""306"" height=""306"" style=""position: fixed;left:14%;top:30%""><img src=""square.png"" width=""306"" height=""306"" style=""position: fixed;left:64%;top:30%"">","null","","","","","","","","","","","","","","","","","","","","","","","","","","","","","","","","","","",""
"","","","","","html-keyboard-response","139","168595","0.0-6.0-2.40","A1JJYY622DGE5L","2022-05-18T16:04:26.948Z","rhyme-same_different-phon_sim-task_switching","","2295.5","rhyme","<div style=""border: 3px solid #000000; position: fixed;left:14%;top:30%""><img src=""visual/wheel.png"" width=""300""></div><div style=""border: 3px solid #000000; position: fixed;left:64%;top:30%""><img src=""visual/seal.png"" width=""300""></div>","arrowup","","true","experiment","visual/wheel.png","visual/seal.png","ArrowUp","non-ortho","","","","","","","","","","","","","","","","","","","","","","","","","","","",""
"","","","","","html-keyboard-response","140","168862","0.0-6.0-0.41","A1JJYY622DGE5L","2022-05-18T16:04:26.948Z","rhyme-same_different-phon_sim-task_switching","","null","rhyme","<div style=""font-size:60px;"">+</div>","null","250","","","","","","","","","","","","","","","","","","","","","","","","","","","","","","","","","",""
"","","","","","html-keyboard-response","141","169379","0.0-6.0-1.41","A1JJYY622DGE5L","2022-05-18T16:04:26.948Z","rhyme-same_different-phon_sim-task_switching","","null","rhyme","<img src=""square.png"" width=""306"" height=""306"" style=""position: fixed;left:14%;top:30%""><img src=""square.png"" width=""306"" height=""306"" style=""position: fixed;left:64%;top:30%"">","null","","","","","","","","","","","","","","","","","","","","","","","","","","","","","","","","","","",""
"","","","","","html-keyboard-response","142","170687","0.0-6.0-2.41","A1JJYY622DGE5L","2022-05-18T16:04:26.948Z","rhyme-same_different-phon_sim-task_switching","","1302.4000000059605","rhyme","<div style=""border: 3px solid #000000; position: fixed;left:14%;top:30%""><img src=""visual/chair.png"" width=""300""></div><div style=""border: 3px solid #000000; position: fixed;left:64%;top:30%""><img src=""visual/pear.png"" width=""300""></div>","arrowup","","true","experiment","visual/chair.png","visual/pear.png","ArrowUp","non-ortho","","","","","","","","","","","","","","","","","","","","","","","","","","","",""
"","","","","","html-keyboard-response","143","171696","0.0-6.0-0.42","A1JJYY622DGE5L","2022-05-18T16:04:26.948Z","rhyme-same_different-phon_sim-task_switching","","null","rhyme","<div style=""font-size:60px;"">+</div>","null","1000","","","","","","","","","","","","","","","","","","","","","","","","","","","","","","","","","",""
"","","","","","html-keyboard-response","144","172212","0.0-6.0-1.42","A1JJYY622DGE5L","2022-05-18T16:04:26.948Z","rhyme-same_different-phon_sim-task_switching","","null","rhyme","<img src=""square.png"" width=""306"" height=""306"" style=""position: fixed;left:14%;top:30%""><img src=""square.png"" width=""306"" height=""306"" style=""position: fixed;left:64%;top:30%"">","null","","","","","","","","","","","","","","","","","","","","","","","","","","","","","","","","","","",""
"","","","","","html-keyboard-response","145","174010","0.0-6.0-2.42","A1JJYY622DGE5L","2022-05-18T16:04:26.948Z","rhyme-same_different-phon_sim-task_switching","","1792.0999999940395","rhyme","<div style=""border: 3px solid #000000; position: fixed;left:14%;top:30%""><img src=""visual/nose.png"" width=""300""></div><div style=""border: 3px solid #000000; position: fixed;left:64%;top:30%""><img src=""visual/bell.png"" width=""300""></div>","arrowdown","","true","experiment","visual/nose.png","visual/bell.png","ArrowDown","NR","","","","","","","","","","","","","","","","","","","","","","","","","","","",""
"","","","","","html-keyboard-response","146","175015","0.0-6.0-0.43","A1JJYY622DGE5L","2022-05-18T16:04:26.948Z","rhyme-same_different-phon_sim-task_switching","","null","rhyme","<div style=""font-size:60px;"">+</div>","null","1000","","","","","","","","","","","","","","","","","","","","","","","","","","","","","","","","","",""
"","","","","","html-keyboard-response","147","175528","0.0-6.0-1.43","A1JJYY622DGE5L","2022-05-18T16:04:26.948Z","rhyme-same_different-phon_sim-task_switching","","null","rhyme","<img src=""square.png"" width=""306"" height=""306"" style=""position: fixed;left:14%;top:30%""><img src=""square.png"" width=""306"" height=""306"" style=""position: fixed;left:64%;top:30%"">","null","","","","","","","","","","","","","","","","","","","","","","","","","","","","","","","","","","",""
"","","","","","html-keyboard-response","148","176884","0.0-6.0-2.43","A1JJYY622DGE5L","2022-05-18T16:04:26.948Z","rhyme-same_different-phon_sim-task_switching","","1350.5999999940395","rhyme","<div style=""border: 3px solid #000000; position: fixed;left:14%;top:30%""><img src=""visual/soap.png"" width=""300""></div><div style=""border: 3px solid #000000; position: fixed;left:64%;top:30%""><img src=""visual/shoe.png"" width=""300""></div>","arrowdown","","true","experiment","visual/soap.png","visual/shoe.png","ArrowDown","NR","","","","","","","","","","","","","","","","","","","","","","","","","","","",""
"","","","","","html-keyboard-response","149","177644","0.0-6.0-0.44","A1JJYY622DGE5L","2022-05-18T16:04:26.948Z","rhyme-same_different-phon_sim-task_switching","","null","rhyme","<div style=""font-size:60px;"">+</div>","null","750","","","","","","","","","","","","","","","","","","","","","","","","","","","","","","","","","",""
"","","","","","html-keyboard-response","150","178169","0.0-6.0-1.44","A1JJYY622DGE5L","2022-05-18T16:04:26.948Z","rhyme-same_different-phon_sim-task_switching","","null","rhyme","<img src=""square.png"" width=""306"" height=""306"" style=""position: fixed;left:14%;top:30%""><img src=""square.png"" width=""306"" height=""306"" style=""position: fixed;left:64%;top:30%"">","null","","","","","","","","","","","","","","","","","","","","","","","","","","","","","","","","","","",""
"","","","","","html-keyboard-response","151","179555","0.0-6.0-2.44","A1JJYY622DGE5L","2022-05-18T16:04:26.948Z","rhyme-same_different-phon_sim-task_switching","","1382.2999999970198","rhyme","<div style=""border: 3px solid #000000; position: fixed;left:14%;top:30%""><img src=""visual/egg.png"" width=""300""></div><div style=""border: 3px solid #000000; position: fixed;left:64%;top:30%""><img src=""visual/leg.png"" width=""300""></div>","arrowup","","true","experiment","visual/egg.png","visual/leg.png","ArrowUp","ortho","","","","","","","","","","","","","","","","","","","","","","","","","","","",""
"","","","","","html-keyboard-response","152","180312","0.0-6.0-0.45","A1JJYY622DGE5L","2022-05-18T16:04:26.948Z","rhyme-same_different-phon_sim-task_switching","","null","rhyme","<div style=""font-size:60px;"">+</div>","null","750","","","","","","","","","","","","","","","","","","","","","","","","","","","","","","","","","",""
"","","","","","html-keyboard-response","153","180828","0.0-6.0-1.45","A1JJYY622DGE5L","2022-05-18T16:04:26.948Z","rhyme-same_different-phon_sim-task_switching","","null","rhyme","<img src=""square.png"" width=""306"" height=""306"" style=""position: fixed;left:14%;top:30%""><img src=""square.png"" width=""306"" height=""306"" style=""position: fixed;left:64%;top:30%"">","null","","","","","","","","","","","","","","","","","","","","","","","","","","","","","","","","","","",""
"","","","","","html-keyboard-response","154","182185","0.0-6.0-2.45","A1JJYY622DGE5L","2022-05-18T16:04:26.948Z","rhyme-same_different-phon_sim-task_switching","","1352.6000000089407","rhyme","<div style=""border: 3px solid #000000; position: fixed;left:14%;top:30%""><img src=""visual/dart.png"" width=""300""></div><div style=""border: 3px solid #000000; position: fixed;left:64%;top:30%""><img src=""visual/tie.png"" width=""300""></div>","arrowdown","","true","experiment","visual/dart.png","visual/tie.png","ArrowDown","NR","","","","","","","","","","","","","","","","","","","","","","","","","","","",""
"","","","","","html-keyboard-response","155","182947","0.0-6.0-0.46","A1JJYY622DGE5L","2022-05-18T16:04:26.948Z","rhyme-same_different-phon_sim-task_switching","","null","rhyme","<div style=""font-size:60px;"">+</div>","null","750","","","","","","","","","","","","","","","","","","","","","","","","","","","","","","","","","",""
"","","","","","html-keyboard-response","156","183461","0.0-6.0-1.46","A1JJYY622DGE5L","2022-05-18T16:04:26.948Z","rhyme-same_different-phon_sim-task_switching","","null","rhyme","<img src=""square.png"" width=""306"" height=""306"" style=""position: fixed;left:14%;top:30%""><img src=""square.png"" width=""306"" height=""306"" style=""position: fixed;left:64%;top:30%"">","null","","","","","","","","","","","","","","","","","","","","","","","","","","","","","","","","","","",""
"","","","","","html-keyboard-response","157","184749","0.0-6.0-2.46","A1JJYY622DGE5L","2022-05-18T16:04:26.948Z","rhyme-same_different-phon_sim-task_switching","","1282.9000000059605","rhyme","<div style=""border: 3px solid #000000; position: fixed;left:14%;top:30%""><img src=""visual/tree.png"" width=""300""></div><div style=""border: 3px solid #000000; position: fixed;left:64%;top:30%""><img src=""visual/door.png"" width=""300""></div>","arrowdown","","true","experiment","visual/tree.png","visual/door.png","ArrowDown","NR","","","","","","","","","","","","","","","","","","","","","","","","","","","",""
"","","","","","html-keyboard-response","158","185512","0.0-6.0-0.47","A1JJYY622DGE5L","2022-05-18T16:04:26.948Z","rhyme-same_different-phon_sim-task_switching","","null","rhyme","<div style=""font-size:60px;"">+</div>","null","750","","","","","","","","","","","","","","","","","","","","","","","","","","","","","","","","","",""
"","","","","","html-keyboard-response","159","186034","0.0-6.0-1.47","A1JJYY622DGE5L","2022-05-18T16:04:26.948Z","rhyme-same_different-phon_sim-task_switching","","null","rhyme","<img src=""square.png"" width=""306"" height=""306"" style=""position: fixed;left:14%;top:30%""><img src=""square.png"" width=""306"" height=""306"" style=""position: fixed;left:64%;top:30%"">","null","","","","","","","","","","","","","","","","","","","","","","","","","","","","","","","","","","",""
"","","","","","html-keyboard-response","160","187598","0.0-6.0-2.47","A1JJYY622DGE5L","2022-05-18T16:04:26.948Z","rhyme-same_different-phon_sim-task_switching","","1560","rhyme","<div style=""border: 3px solid #000000; position: fixed;left:14%;top:30%""><img src=""visual/bear.png"" width=""300""></div><div style=""border: 3px solid #000000; position: fixed;left:64%;top:30%""><img src=""visual/hair.png"" width=""300""></div>","arrowup","","true","experiment","visual/bear.png","visual/hair.png","ArrowUp","non-ortho","","","","","","","","","","","","","","","","","","","","","","","","","","","",""
"","","","","","html-keyboard-response","161","188362","0.0-6.0-0.48","A1JJYY622DGE5L","2022-05-18T16:04:26.948Z","rhyme-same_different-phon_sim-task_switching","","null","rhyme","<div style=""font-size:60px;"">+</div>","null","750","","","","","","","","","","","","","","","","","","","","","","","","","","","","","","","","","",""
"","","","","","html-keyboard-response","162","188878","0.0-6.0-1.48","A1JJYY622DGE5L","2022-05-18T16:04:26.948Z","rhyme-same_different-phon_sim-task_switching","","null","rhyme","<img src=""square.png"" width=""306"" height=""306"" style=""position: fixed;left:14%;top:30%""><img src=""square.png"" width=""306"" height=""306"" style=""position: fixed;left:64%;top:30%"">","null","","","","","","","","","","","","","","","","","","","","","","","","","","","","","","","","","","",""
"","","","","","html-keyboard-response","163","190719","0.0-6.0-2.48","A1JJYY622DGE5L","2022-05-18T16:04:26.948Z","rhyme-same_different-phon_sim-task_switching","","1836.2999999970198","rhyme","<div style=""border: 3px solid #000000; position: fixed;left:14%;top:30%""><img src=""visual/fly.png"" width=""300""></div><div style=""border: 3px solid #000000; position: fixed;left:64%;top:30%""><img src=""visual/plane.png"" width=""300""></div>","arrowdown","","true","experiment","visual/fly.png","visual/plane.png","ArrowDown","NR","","","","","","","","","","","","","","","","","","","","","","","","","","","",""
"","","","","","html-keyboard-response","164","191477","0.0-6.0-0.49","A1JJYY622DGE5L","2022-05-18T16:04:26.948Z","rhyme-same_different-phon_sim-task_switching","","null","rhyme","<div style=""font-size:60px;"">+</div>","null","750","","","","","","","","","","","","","","","","","","","","","","","","","","","","","","","","","",""
"","","","","","html-keyboard-response","165","191988","0.0-6.0-1.49","A1JJYY622DGE5L","2022-05-18T16:04:26.948Z","rhyme-same_different-phon_sim-task_switching","","null","rhyme","<img src=""square.png"" width=""306"" height=""306"" style=""position: fixed;left:14%;top:30%""><img src=""square.png"" width=""306"" height=""306"" style=""position: fixed;left:64%;top:30%"">","null","","","","","","","","","","","","","","","","","","","","","","","","","","","","","","","","","","",""
"","","","","","html-keyboard-response","166","193398","0.0-6.0-2.49","A1JJYY622DGE5L","2022-05-18T16:04:26.948Z","rhyme-same_different-phon_sim-task_switching","","1404.2999999970198","rhyme","<div style=""border: 3px solid #000000; position: fixed;left:14%;top:30%""><img src=""visual/shark.png"" width=""300""></div><div style=""border: 3px solid #000000; position: fixed;left:64%;top:30%""><img src=""visual/moon.png"" width=""300""></div>","arrowdown","","true","experiment","visual/shark.png","visual/moon.png","ArrowDown","NR","","","","","","","","","","","","","","","","","","","","","","","","","","","",""
"","","","","","html-keyboard-response","167","194166","0.0-6.0-0.50","A1JJYY622DGE5L","2022-05-18T16:04:26.948Z","rhyme-same_different-phon_sim-task_switching","","null","rhyme","<div style=""font-size:60px;"">+</div>","null","750","","","","","","","","","","","","","","","","","","","","","","","","","","","","","","","","","",""
"","","","","","html-keyboard-response","168","194678","0.0-6.0-1.50","A1JJYY622DGE5L","2022-05-18T16:04:26.948Z","rhyme-same_different-phon_sim-task_switching","","null","rhyme","<img src=""square.png"" width=""306"" height=""306"" style=""position: fixed;left:14%;top:30%""><img src=""square.png"" width=""306"" height=""306"" style=""position: fixed;left:64%;top:30%"">","null","","","","","","","","","","","","","","","","","","","","","","","","","","","","","","","","","","",""
"","","","","","html-keyboard-response","169","196959","0.0-6.0-2.50","A1JJYY622DGE5L","2022-05-18T16:04:26.948Z","rhyme-same_different-phon_sim-task_switching","","2276","rhyme","<div style=""border: 3px solid #000000; position: fixed;left:14%;top:30%""><img src=""visual/plane.png"" width=""300""></div><div style=""border: 3px solid #000000; position: fixed;left:64%;top:30%""><img src=""visual/chain.png"" width=""300""></div>","arrowup","","true","experiment","visual/plane.png","visual/chain.png","ArrowUp","non-ortho","","","","","","","","","","","","","","","","","","","","","","","","","","","",""
"","","","","","html-keyboard-response","170","197714","0.0-6.0-0.51","A1JJYY622DGE5L","2022-05-18T16:04:26.948Z","rhyme-same_different-phon_sim-task_switching","","null","rhyme","<div style=""font-size:60px;"">+</div>","null","750","","","","","","","","","","","","","","","","","","","","","","","","","","","","","","","","","",""
"","","","","","html-keyboard-response","171","198228","0.0-6.0-1.51","A1JJYY622DGE5L","2022-05-18T16:04:26.948Z","rhyme-same_different-phon_sim-task_switching","","null","rhyme","<img src=""square.png"" width=""306"" height=""306"" style=""position: fixed;left:14%;top:30%""><img src=""square.png"" width=""306"" height=""306"" style=""position: fixed;left:64%;top:30%"">","null","","","","","","","","","","","","","","","","","","","","","","","","","","","","","","","","","","",""
"","","","","","html-keyboard-response","172","200298","0.0-6.0-2.51","A1JJYY622DGE5L","2022-05-18T16:04:26.948Z","rhyme-same_different-phon_sim-task_switching","","2064.2000000029802","rhyme","<div style=""border: 3px solid #000000; position: fixed;left:14%;top:30%""><img src=""visual/bin.png"" width=""300""></div><div style=""border: 3px solid #000000; position: fixed;left:64%;top:30%""><img src=""visual/chin.png"" width=""300""></div>","arrowdown","","false","experiment","visual/bin.png","visual/chin.png","ArrowUp","ortho","","","","","","","","","","","","","","","","","","","","","","","","","","","",""
"","","","","","html-keyboard-response","173","201061","0.0-6.0-0.52","A1JJYY622DGE5L","2022-05-18T16:04:26.948Z","rhyme-same_different-phon_sim-task_switching","","null","rhyme","<div style=""font-size:60px;"">+</div>","null","750","","","","","","","","","","","","","","","","","","","","","","","","","","","","","","","","","",""
"","","","","","html-keyboard-response","174","201578","0.0-6.0-1.52","A1JJYY622DGE5L","2022-05-18T16:04:26.948Z","rhyme-same_different-phon_sim-task_switching","","null","rhyme","<img src=""square.png"" width=""306"" height=""306"" style=""position: fixed;left:14%;top:30%""><img src=""square.png"" width=""306"" height=""306"" style=""position: fixed;left:64%;top:30%"">","null","","","","","","","","","","","","","","","","","","","","","","","","","","","","","","","","","","",""
"","","","","","html-keyboard-response","175","204316","0.0-6.0-2.52","A1JJYY622DGE5L","2022-05-18T16:04:26.948Z","rhyme-same_different-phon_sim-task_switching","","2733.5","rhyme","<div style=""border: 3px solid #000000; position: fixed;left:14%;top:30%""><img src=""visual/well.png"" width=""300""></div><div style=""border: 3px solid #000000; position: fixed;left:64%;top:30%""><img src=""visual/bell.png"" width=""300""></div>","arrowup","","true","experiment","visual/well.png","visual/bell.png","ArrowUp","ortho","","","","","","","","","","","","","","","","","","","","","","","","","","","",""
"","","","","","html-keyboard-response","176","205327","0.0-6.0-0.53","A1JJYY622DGE5L","2022-05-18T16:04:26.948Z","rhyme-same_different-phon_sim-task_switching","","null","rhyme","<div style=""font-size:60px;"">+</div>","null","1000","","","","","","","","","","","","","","","","","","","","","","","","","","","","","","","","","",""
"","","","","","html-keyboard-response","177","205846","0.0-6.0-1.53","A1JJYY622DGE5L","2022-05-18T16:04:26.948Z","rhyme-same_different-phon_sim-task_switching","","null","rhyme","<img src=""square.png"" width=""306"" height=""306"" style=""position: fixed;left:14%;top:30%""><img src=""square.png"" width=""306"" height=""306"" style=""position: fixed;left:64%;top:30%"">","null","","","","","","","","","","","","","","","","","","","","","","","","","","","","","","","","","","",""
"","","","","","html-keyboard-response","178","208681","0.0-6.0-2.53","A1JJYY622DGE5L","2022-05-18T16:04:26.948Z","rhyme-same_different-phon_sim-task_switching","","2829","rhyme","<div style=""border: 3px solid #000000; position: fixed;left:14%;top:30%""><img src=""visual/drawer.png"" width=""300""></div><div style=""border: 3px solid #000000; position: fixed;left:64%;top:30%""><img src=""visual/door.png"" width=""300""></div>","arrowdown","","false","experiment","visual/drawer.png","visual/door.png","ArrowUp","non-ortho","","","","","","","","","","","","","","","","","","","","","","","","","","","",""
"","","","","","html-keyboard-response","179","209694","0.0-6.0-0.54","A1JJYY622DGE5L","2022-05-18T16:04:26.948Z","rhyme-same_different-phon_sim-task_switching","","null","rhyme","<div style=""font-size:60px;"">+</div>","null","1000","","","","","","","","","","","","","","","","","","","","","","","","","","","","","","","","","",""
"","","","","","html-keyboard-response","180","210212","0.0-6.0-1.54","A1JJYY622DGE5L","2022-05-18T16:04:26.948Z","rhyme-same_different-phon_sim-task_switching","","null","rhyme","<img src=""square.png"" width=""306"" height=""306"" style=""position: fixed;left:14%;top:30%""><img src=""square.png"" width=""306"" height=""306"" style=""position: fixed;left:64%;top:30%"">","null","","","","","","","","","","","","","","","","","","","","","","","","","","","","","","","","","","",""
"","","","","","html-keyboard-response","181","211508","0.0-6.0-2.54","A1JJYY622DGE5L","2022-05-18T16:04:26.948Z","rhyme-same_different-phon_sim-task_switching","","1287.199999988079","rhyme","<div style=""border: 3px solid #000000; position: fixed;left:14%;top:30%""><img src=""visual/key.png"" width=""300""></div><div style=""border: 3px solid #000000; position: fixed;left:64%;top:30%""><img src=""visual/snail.png"" width=""300""></div>","arrowdown","","true","experiment","visual/key.png","visual/snail.png","ArrowDown","NR","","","","","","","","","","","","","","","","","","","","","","","","","","","",""
"","","","","","html-keyboard-response","182","212012","0.0-6.0-0.55","A1JJYY622DGE5L","2022-05-18T16:04:26.948Z","rhyme-same_different-phon_sim-task_switching","","null","rhyme","<div style=""font-size:60px;"">+</div>","null","500","","","","","","","","","","","","","","","","","","","","","","","","","","","","","","","","","",""
"","","","","","html-keyboard-response","183","212527","0.0-6.0-1.55","A1JJYY622DGE5L","2022-05-18T16:04:26.948Z","rhyme-same_different-phon_sim-task_switching","","null","rhyme","<img src=""square.png"" width=""306"" height=""306"" style=""position: fixed;left:14%;top:30%""><img src=""square.png"" width=""306"" height=""306"" style=""position: fixed;left:64%;top:30%"">","null","","","","","","","","","","","","","","","","","","","","","","","","","","","","","","","","","","",""
"","","","","","html-keyboard-response","184","214012","0.0-6.0-2.55","A1JJYY622DGE5L","2022-05-18T16:04:26.948Z","rhyme-same_different-phon_sim-task_switching","","1480.3999999910593","rhyme","<div style=""border: 3px solid #000000; position: fixed;left:14%;top:30%""><img src=""visual/saw.png"" width=""300""></div><div style=""border: 3px solid #000000; position: fixed;left:64%;top:30%""><img src=""visual/claw.png"" width=""300""></div>","arrowup","","true","experiment","visual/saw.png","visual/claw.png","ArrowUp","ortho","","","","","","","","","","","","","","","","","","","","","","","","","","","",""
"","","","","","html-keyboard-response","185","214278","0.0-6.0-0.56","A1JJYY622DGE5L","2022-05-18T16:04:26.948Z","rhyme-same_different-phon_sim-task_switching","","null","rhyme","<div style=""font-size:60px;"">+</div>","null","250","","","","","","","","","","","","","","","","","","","","","","","","","","","","","","","","","",""
"","","","","","html-keyboard-response","186","214794","0.0-6.0-1.56","A1JJYY622DGE5L","2022-05-18T16:04:26.948Z","rhyme-same_different-phon_sim-task_switching","","null","rhyme","<img src=""square.png"" width=""306"" height=""306"" style=""position: fixed;left:14%;top:30%""><img src=""square.png"" width=""306"" height=""306"" style=""position: fixed;left:64%;top:30%"">","null","","","","","","","","","","","","","","","","","","","","","","","","","","","","","","","","","","",""
"","","","","","html-keyboard-response","187","216451","0.0-6.0-2.56","A1JJYY622DGE5L","2022-05-18T16:04:26.948Z","rhyme-same_different-phon_sim-task_switching","","1652.5999999940395","rhyme","<div style=""border: 3px solid #000000; position: fixed;left:14%;top:30%""><img src=""visual/plane.png"" width=""300""></div><div style=""border: 3px solid #000000; position: fixed;left:64%;top:30%""><img src=""visual/train.png"" width=""300""></div>","arrowup","","true","experiment","visual/plane.png","visual/train.png","ArrowUp","non-ortho","","","","","","","","","","","","","","","","","","","","","","","","","","","",""
"","","","","","html-keyboard-response","188","216961","0.0-6.0-0.57","A1JJYY622DGE5L","2022-05-18T16:04:26.948Z","rhyme-same_different-phon_sim-task_switching","","null","rhyme","<div style=""font-size:60px;"">+</div>","null","500","","","","","","","","","","","","","","","","","","","","","","","","","","","","","","","","","",""
"","","","","","html-keyboard-response","189","217477","0.0-6.0-1.57","A1JJYY622DGE5L","2022-05-18T16:04:26.948Z","rhyme-same_different-phon_sim-task_switching","","null","rhyme","<img src=""square.png"" width=""306"" height=""306"" style=""position: fixed;left:14%;top:30%""><img src=""square.png"" width=""306"" height=""306"" style=""position: fixed;left:64%;top:30%"">","null","","","","","","","","","","","","","","","","","","","","","","","","","","","","","","","","","","",""
"","","","","","html-keyboard-response","190","218660","0.0-6.0-2.57","A1JJYY622DGE5L","2022-05-18T16:04:26.948Z","rhyme-same_different-phon_sim-task_switching","","1178","rhyme","<div style=""border: 3px solid #000000; position: fixed;left:14%;top:30%""><img src=""visual/tie.png"" width=""300""></div><div style=""border: 3px solid #000000; position: fixed;left:64%;top:30%""><img src=""visual/fly.png"" width=""300""></div>","arrowup","","true","experiment","visual/tie.png","visual/fly.png","ArrowUp","non-ortho","","","","","","","","","","","","","","","","","","","","","","","","","","","",""
"","","","","","html-keyboard-response","191","219163","0.0-6.0-0.58","A1JJYY622DGE5L","2022-05-18T16:04:26.948Z","rhyme-same_different-phon_sim-task_switching","","null","rhyme","<div style=""font-size:60px;"">+</div>","null","500","","","","","","","","","","","","","","","","","","","","","","","","","","","","","","","","","",""
"","","","","","html-keyboard-response","192","219677","0.0-6.0-1.58","A1JJYY622DGE5L","2022-05-18T16:04:26.948Z","rhyme-same_different-phon_sim-task_switching","","null","rhyme","<img src=""square.png"" width=""306"" height=""306"" style=""position: fixed;left:14%;top:30%""><img src=""square.png"" width=""306"" height=""306"" style=""position: fixed;left:64%;top:30%"">","null","","","","","","","","","","","","","","","","","","","","","","","","","","","","","","","","","","",""
"","","","","","html-keyboard-response","193","220890","0.0-6.0-2.58","A1JJYY622DGE5L","2022-05-18T16:04:26.948Z","rhyme-same_different-phon_sim-task_switching","","1208.5","rhyme","<div style=""border: 3px solid #000000; position: fixed;left:14%;top:30%""><img src=""visual/cab.png"" width=""300""></div><div style=""border: 3px solid #000000; position: fixed;left:64%;top:30%""><img src=""visual/crab.png"" width=""300""></div>","arrowdown","","false","experiment","visual/cab.png","visual/crab.png","ArrowUp","ortho","","","","","","","","","","","","","","","","","","","","","","","","","","","",""
"","","","","","html-keyboard-response","194","221395","0.0-6.0-0.59","A1JJYY622DGE5L","2022-05-18T16:04:26.948Z","rhyme-same_different-phon_sim-task_switching","","null","rhyme","<div style=""font-size:60px;"">+</div>","null","500","","","","","","","","","","","","","","","","","","","","","","","","","","","","","","","","","",""
"","","","","","html-keyboard-response","195","221910","0.0-6.0-1.59","A1JJYY622DGE5L","2022-05-18T16:04:26.948Z","rhyme-same_different-phon_sim-task_switching","","null","rhyme","<img src=""square.png"" width=""306"" height=""306"" style=""position: fixed;left:14%;top:30%""><img src=""square.png"" width=""306"" height=""306"" style=""position: fixed;left:64%;top:30%"">","null","","","","","","","","","","","","","","","","","","","","","","","","","","","","","","","","","","",""
"","","","","","html-keyboard-response","196","224095","0.0-6.0-2.59","A1JJYY622DGE5L","2022-05-18T16:04:26.948Z","rhyme-same_different-phon_sim-task_switching","","2180.2000000029802","rhyme","<div style=""border: 3px solid #000000; position: fixed;left:14%;top:30%""><img src=""visual/flag.png"" width=""300""></div><div style=""border: 3px solid #000000; position: fixed;left:64%;top:30%""><img src=""visual/bag.png"" width=""300""></div>","arrowup","","true","experiment","visual/flag.png","visual/bag.png","ArrowUp","ortho","","","","","","","","","","","","","","","","","","","","","","","","","","","",""
"","","","","","survey-multi-choice","197","229863","0.0-7.0","A1JJYY622DGE5L","2022-05-18T16:04:26.948Z","rhyme-same_different-phon_sim-task_switching","","5764","rhyme","","{""Q0"":""No""}","","","","","","","","[0]","No","","","","","","","","","","","","","","","","","","","","","","","","","",""
"","","","","","survey-text","198","248002","0.0-8.0","A1JJYY622DGE5L","2022-05-18T16:04:26.948Z","rhyme-same_different-phon_sim-task_switching","","18113.79999999702","rhyme","","{""Q0"":""I said the words in my head.""}","","","","","","","","","","I said the words in my head.","","","","","","","","","","","","","","","","","","","","","","","","",""
"","","","","","instructions","199","250205","0.0-9.0","A1JJYY622DGE5L","2022-05-18T16:04:26.948Z","rhyme-same_different-phon_sim-task_switching","[{""page_index"":0,""viewing_time"":2195.5}]","2197.9000000059605","rhyme","","","","","","","","","","","","","","","","","","","","","","","","","","","","","","","","","","","","",""
"","","","","","instructions","200","263092","0.0-10.0","A1JJYY622DGE5L","2022-05-18T16:04:26.948Z","rhyme-same_different-phon_sim-task_switching","[{""page_index"":0,""viewing_time"":12882.20000000298}]","12883.20000000298","same_different","","","","","","","","","","","","","","","","","","","","","","","","","","","","","","","","","","","","",""
"","","","","","instructions","201","270133","0.0-11.0","A1JJYY622DGE5L","2022-05-18T16:04:26.948Z","rhyme-same_different-phon_sim-task_switching","[{""page_index"":0,""viewing_time"":7037.20000000298}]","7038.899999991059","","","","","","","","","","","","","","","","","","","","","","","","","","","","","","","","","","","","","",""
"","","","","","html-keyboard-response","202","270894","0.0-12.0-0.0","A1JJYY622DGE5L","2022-05-18T16:04:26.948Z","rhyme-same_different-phon_sim-task_switching","","null","same_different","<div style=""font-size:60px"">+</div>","null","","","","","","","","","","","","","","","","","","","","","","","","","","","","","","","","","","",""
"","","","","","html-keyboard-response","203","273821","0.0-12.0-1.0","A1JJYY622DGE5L","2022-05-18T16:04:26.948Z","rhyme-same_different-phon_sim-task_switching","","2919","same_different","[""<img src=\""square.png\"" width=\""100\"" height=\""100\"" style=\""position: fixed;left:39%;top:47%\""><img src=\""square.png\"" width=\""100\"" height=\""100\"" style=\""position: fixed;left:54%;top:47%\""><img src=\""square.png\"" width=\""100\"" height=\""100\"" style=\""position: fixed;left:46.5%;top:32%\""><img src=\""square.png\"" width=\""100\"" height=\""100\"" style=\""position: fixed;left:46.5%;top:61%\""><div style=\""font-size:60px; text-align: center;margin-top:45.5%\"">+</div><div id=\""first\"" style=\""position: fixed;visibility: hidden;left:55%;top:49%\""><img src=\""same_diff_imgs/D11.gif\""></div><div id=\""delayed\"" style=\""position: fixed;visibility: hidden;left:48%;top:34%\""><img src=\""same_diff_imgs/D11.gif\""></div>""]","arrowup","","true","","","","","","","","","identical_image","same_diff_imgs/D11.gif","same_diff_imgs/D11.gif","no","same","1","","","","","","","","","","","","","","","","","","",""
"","","","","","html-keyboard-response","204","273826","0.0-12.0-2.0","A1JJYY622DGE5L","2022-05-18T16:04:26.948Z","rhyme-same_different-phon_sim-task_switching","","null",""," ","null","","","","","","","","","","","","","","","","","","","","","","","","","","","","","","","","","","",""
"","","","","","html-keyboard-response","205","274143","0.0-12.0-3.0","A1JJYY622DGE5L","2022-05-18T16:04:26.948Z","rhyme-same_different-phon_sim-task_switching","","null","same_different"," ","null","","","","","","","","","","","","","","","","","","","","","","","","","","","","","","","","","","",""
"","","","","","html-keyboard-response","206","274910","0.0-12.0-0.1","A1JJYY622DGE5L","2022-05-18T16:04:26.948Z","rhyme-same_different-phon_sim-task_switching","","null","same_different","<div style=""font-size:60px"">+</div>","null","","","","","","","","","","","","","","","","","","","","","","","","","","","","","","","","","","",""
"","","","","","html-keyboard-response","207","276559","0.0-12.0-1.1","A1JJYY622DGE5L","2022-05-18T16:04:26.948Z","rhyme-same_different-phon_sim-task_switching","","1643.1000000089407","same_different","[""<img src=\""square.png\"" width=\""100\"" height=\""100\"" style=\""position: fixed;left:39%;top:47%\""><img src=\""square.png\"" width=\""100\"" height=\""100\"" style=\""position: fixed;left:54%;top:47%\""><img src=\""square.png\"" width=\""100\"" height=\""100\"" style=\""position: fixed;left:46.5%;top:32%\""><img src=\""square.png\"" width=\""100\"" height=\""100\"" style=\""position: fixed;left:46.5%;top:61%\""><div style=\""font-size:60px; text-align: center;margin-top:45.5%\"">+</div><div id=\""first\"" style=\""position: fixed;visibility: hidden;left:48%;top:62%\""><img src=\""same_diff_imgs/D07.gif\""></div><div id=\""delayed\"" style=\""position: fixed;visibility: hidden;left:48%;top:34%\""><img src=\""same_diff_imgs/C09.gif\""></div>""]","arrowdown","","true","","","","","","","","","identical_image","same_diff_imgs/D07.gif","same_diff_imgs/C09.gif","no","different","","1","","","","","","","","","","","","","","","","","",""
"","","","","","html-keyboard-response","208","276565","0.0-12.0-2.1","A1JJYY622DGE5L","2022-05-18T16:04:26.948Z","rhyme-same_different-phon_sim-task_switching","","null",""," ","null","","","","","","","","","","","","","","","","","","","","","","","","","","","","","","","","","","",""
"","","","","","html-keyboard-response","209","276874","0.0-12.0-3.1","A1JJYY622DGE5L","2022-05-18T16:04:26.948Z","rhyme-same_different-phon_sim-task_switching","","null","same_different"," ","null","","","","","","","","","","","","","","","","","","","","","","","","","","","","","","","","","","",""
