"success","timeout","failed_images","failed_audio","failed_video","trial_type","trial_index","time_elapsed","internal_node_id","worker_id","start_time","experiment_order","view_history","rt","experiment","stimulus","response","phase","word_1","word_2","word_3","word_4","word_5","original_word_set","response_1","response_2","response_3","response_4","response_5","question_order","talk_out_loud","strategy_free_ans","judgment_type","stim_1","stim_2","inverted","answer","true_neg","correct","true_pos","false_pos","false_neg","condition","operation","color_cue","trial_no","symbol_cue","wait_time","image_1","image_2","cor_key","type"
"true","false","[]","[]","[]","preload","0","2839","0.0-0.0","A2AAFWAAS9C1QC","2022-05-26T23:31:39.990Z","phon_sim-same_different-task_switching-rhyme","","","","","","","","","","","","","","","","","","","","","","","","","","","","","","","","","","","","","","","",""
"","","","","","instructions","1","20864","0.0-1.0","A2AAFWAAS9C1QC","2022-05-26T23:31:39.990Z","phon_sim-same_different-task_switching-rhyme","[{""page_index"":0,""viewing_time"":18021}]","18022","","","","","","","","","","","","","","","","","","","","","","","","","","","","","","","","","","","","","",""
"true","","","","","fullscreen","2","38899","0.0-2.0","A2AAFWAAS9C1QC","2022-05-26T23:31:39.990Z","phon_sim-same_different-task_switching-rhyme","","","","","","","","","","","","","","","","","","","","","","","","","","","","","","","","","","","","","","","",""
"","","","","","instructions","3","52013","0.0-3.0","A2AAFWAAS9C1QC","2022-05-26T23:31:39.990Z","phon_sim-same_different-task_switching-rhyme","[{""page_index"":0,""viewing_time"":13111}]","13112","phon_sim","","","","","","","","","","","","","","","","","","","","","","","","","","","","","","","","","","","","",""
"","","","","","html-keyboard-response","4","65035","0.0-4.0-0.0","A2AAFWAAS9C1QC","2022-05-26T23:31:39.990Z","phon_sim-same_different-task_switching-rhyme","","null","phon_sim","<div style=""display:grid""><h1 id=""word_1"" style=""grid-column:1; grid-row:1"">mad</h1><h1 id=""word_2"" style=""visibility:hidden;grid-column:1; grid-row:1"">man</h1><h1 id=""word_3"" style=""visibility:hidden;grid-column:1; grid-row:1"">map</h1><h1 id=""word_4"" style=""visibility:hidden;grid-column:1; grid-row:1"">mat</h1><h1 id=""word_5"" style=""visibility:hidden;grid-column:1; grid-row:1"">max</h1></div>","null","training","mad","man","map","mat","max","training","","","","","","","","","","","","","","","","","","","","","","","","","","","",""
"","","","","","survey-text","5","85344","0.0-4.0-1.0","A2AAFWAAS9C1QC","2022-05-26T23:31:39.990Z","phon_sim-same_different-task_switching-rhyme","","20293","phon_sim","","{""position_1"":""mad"",""position_2"":""man"",""position_3"":""map"",""position_4"":""mat"",""position_5"":""max""}","training","","","","","","","mad","man","map","mat","max","","","","","","","","","","","","","","","","","","","","","","",""
"","","","","","html-keyboard-response","6","90354","0.0-4.0-2.0","A2AAFWAAS9C1QC","2022-05-26T23:31:39.990Z","phon_sim-same_different-task_switching-rhyme","","null","phon_sim","<h1 id=""word_1"">mad</h1><h1 id=""word_2"">man</h1><h1 id=""word_3"">map</h1><h1 id=""word_4"">mat</h1><h1 id=""word_5"">max</h1>","null","","","","","","","","","","","","","","","","","","","","","","","","","","","","","","","","","","",""
"","","","","","html-keyboard-response","7","103364","0.0-4.0-0.1","A2AAFWAAS9C1QC","2022-05-26T23:31:39.990Z","phon_sim-same_different-task_switching-rhyme","","null","phon_sim","<div style=""display:grid""><h1 id=""word_1"" style=""grid-column:1; grid-row:1"">pen</h1><h1 id=""word_2"" style=""visibility:hidden;grid-column:1; grid-row:1"">rig</h1><h1 id=""word_3"" style=""visibility:hidden;grid-column:1; grid-row:1"">day</h1><h1 id=""word_4"" style=""visibility:hidden;grid-column:1; grid-row:1"">bar</h1><h1 id=""word_5"" style=""visibility:hidden;grid-column:1; grid-row:1"">cow</h1></div>","null","training","pen","rig","day","bar","cow","training","","","","","","","","","","","","","","","","","","","","","","","","","","","",""
"","","","","","survey-text","8","115023","0.0-4.0-1.1","A2AAFWAAS9C1QC","2022-05-26T23:31:39.990Z","phon_sim-same_different-task_switching-rhyme","","11650","phon_sim","","{""position_1"":""pen"",""position_2"":""rig"",""position_3"":""day"",""position_4"":""bar"",""position_5"":""cow""}","training","","","","","","","pen","rig","day","bar","cow","","","","","","","","","","","","","","","","","","","","","","",""
"","","","","","html-keyboard-response","9","120030","0.0-4.0-2.1","A2AAFWAAS9C1QC","2022-05-26T23:31:39.990Z","phon_sim-same_different-task_switching-rhyme","","null","phon_sim","<h1 id=""word_1"">pen</h1><h1 id=""word_2"">rig</h1><h1 id=""word_3"">day</h1><h1 id=""word_4"">bar</h1><h1 id=""word_5"">cow</h1>","null","","","","","","","","","","","","","","","","","","","","","","","","","","","","","","","","","","",""
"","","","","","instructions","10","122677","0.0-5.0","A2AAFWAAS9C1QC","2022-05-26T23:31:39.990Z","phon_sim-same_different-task_switching-rhyme","[{""page_index"":0,""viewing_time"":2647}]","2647","","","","","","","","","","","","","","","","","","","","","","","","","","","","","","","","","","","","","",""
"","","","","","html-keyboard-response","11","135685","0.0-6.0-0.0","A2AAFWAAS9C1QC","2022-05-26T23:31:39.990Z","phon_sim-same_different-task_switching-rhyme","","null","phon_sim","<div style=""display:grid""><h1 id=""word_1"" style=""grid-column:1; grid-row:1"">bough</h1><h1 id=""word_2"" style=""visibility:hidden;grid-column:1; grid-row:1"">dough</h1><h1 id=""word_3"" style=""visibility:hidden;grid-column:1; grid-row:1"">cough</h1><h1 id=""word_4"" style=""visibility:hidden;grid-column:1; grid-row:1"">through</h1><h1 id=""word_5"" style=""visibility:hidden;grid-column:1; grid-row:1"">rough</h1></div>","null","experiment","bough","dough","cough","through","rough","orthoSet","","","","","","","","","","","","","","","","","","","","","","","","","","","",""
"","","","","","survey-text","12","162567","0.0-6.0-1.0","A2AAFWAAS9C1QC","2022-05-26T23:31:39.990Z","phon_sim-same_different-task_switching-rhyme","","26873","phon_sim","","{""position_1"":""bough"",""position_2"":""cough"",""position_3"":""dough"",""position_4"":""through"",""position_5"":""rough""}","experiment","","","","","","","bough","cough","dough","through","rough","","","","","","","","","","","","","","","","","","","","","","",""
"","","","","","html-keyboard-response","13","175584","0.0-6.0-0.1","A2AAFWAAS9C1QC","2022-05-26T23:31:39.990Z","phon_sim-same_different-task_switching-rhyme","","null","phon_sim","<div style=""display:grid""><h1 id=""word_1"" style=""grid-column:1; grid-row:1"">bought</h1><h1 id=""word_2"" style=""visibility:hidden;grid-column:1; grid-row:1"">sort</h1><h1 id=""word_3"" style=""visibility:hidden;grid-column:1; grid-row:1"">caught</h1><h1 id=""word_4"" style=""visibility:hidden;grid-column:1; grid-row:1"">taut</h1><h1 id=""word_5"" style=""visibility:hidden;grid-column:1; grid-row:1"">wart</h1></div>","null","experiment","bought","sort","caught","taut","wart","phonSet","","","","","","","","","","","","","","","","","","","","","","","","","","","",""
"","","","","","survey-text","14","185110","0.0-6.0-1.1","A2AAFWAAS9C1QC","2022-05-26T23:31:39.990Z","phon_sim-same_different-task_switching-rhyme","","9519","phon_sim","","{""position_1"":""bought"",""position_2"":""sort "",""position_3"":""bought"",""position_4"":""caught"",""position_5"":""wart""}","experiment","","","","","","","bought","sort ","bought","caught","wart","","","","","","","","","","","","","","","","","","","","","","",""
"","","","","","html-keyboard-response","15","198123","0.0-6.0-0.2","A2AAFWAAS9C1QC","2022-05-26T23:31:39.990Z","phon_sim-same_different-task_switching-rhyme","","null","phon_sim","<div style=""display:grid""><h1 id=""word_1"" style=""grid-column:1; grid-row:1"">friend</h1><h1 id=""word_2"" style=""visibility:hidden;grid-column:1; grid-row:1"">row</h1><h1 id=""word_3"" style=""visibility:hidden;grid-column:1; grid-row:1"">plea</h1><h1 id=""word_4"" style=""visibility:hidden;grid-column:1; grid-row:1"">sleigh</h1><h1 id=""word_5"" style=""visibility:hidden;grid-column:1; grid-row:1"">board</h1></div>","null","experiment","friend","row","plea","sleigh","board","controlSet","","","","","","","","","","","","","","","","","","","","","","","","","","","",""
"","","","","","survey-text","16","208318","0.0-6.0-1.2","A2AAFWAAS9C1QC","2022-05-26T23:31:39.990Z","phon_sim-same_different-task_switching-rhyme","","10188","phon_sim","","{""position_1"":""friend"",""position_2"":""row"",""position_3"":""plea"",""position_4"":""sleigh"",""position_5"":""board""}","experiment","","","","","","","friend","row","plea","sleigh","board","","","","","","","","","","","","","","","","","","","","","","",""
"","","","","","html-keyboard-response","17","221332","0.0-6.0-0.3","A2AAFWAAS9C1QC","2022-05-26T23:31:39.990Z","phon_sim-same_different-task_switching-rhyme","","null","phon_sim","<div style=""display:grid""><h1 id=""word_1"" style=""grid-column:1; grid-row:1"">dough</h1><h1 id=""word_2"" style=""visibility:hidden;grid-column:1; grid-row:1"">cough</h1><h1 id=""word_3"" style=""visibility:hidden;grid-column:1; grid-row:1"">through</h1><h1 id=""word_4"" style=""visibility:hidden;grid-column:1; grid-row:1"">bough</h1><h1 id=""word_5"" style=""visibility:hidden;grid-column:1; grid-row:1"">rough</h1></div>","null","experiment","dough","cough","through","bough","rough","orthoSet","","","","","","","","","","","","","","","","","","","","","","","","","","","",""
"","","","","","survey-text","18","228645","0.0-6.0-1.3","A2AAFWAAS9C1QC","2022-05-26T23:31:39.990Z","phon_sim-same_different-task_switching-rhyme","","7306","phon_sim","","{""position_1"":""dough"",""position_2"":""cough"",""position_3"":""through"",""position_4"":""bough"",""position_5"":""rough""}","experiment","","","","","","","dough","cough","through","bough","rough","","","","","","","","","","","","","","","","","","","","","","",""
"","","","","","html-keyboard-response","19","241663","0.0-6.0-0.4","A2AAFWAAS9C1QC","2022-05-26T23:31:39.990Z","phon_sim-same_different-task_switching-rhyme","","null","phon_sim","<div style=""display:grid""><h1 id=""word_1"" style=""grid-column:1; grid-row:1"">cough</h1><h1 id=""word_2"" style=""visibility:hidden;grid-column:1; grid-row:1"">through</h1><h1 id=""word_3"" style=""visibility:hidden;grid-column:1; grid-row:1"">dough</h1><h1 id=""word_4"" style=""visibility:hidden;grid-column:1; grid-row:1"">rough</h1><h1 id=""word_5"" style=""visibility:hidden;grid-column:1; grid-row:1"">bough</h1></div>","null","experiment","cough","through","dough","rough","bough","orthoSet","","","","","","","","","","","","","","","","","","","","","","","","","","","",""
"","","","","","survey-text","20","250654","0.0-6.0-1.4","A2AAFWAAS9C1QC","2022-05-26T23:31:39.990Z","phon_sim-same_different-task_switching-rhyme","","8985","phon_sim","","{""position_1"":""cough"",""position_2"":""through"",""position_3"":""rough"",""position_4"":""dough"",""position_5"":""bough""}","experiment","","","","","","","cough","through","rough","dough","bough","","","","","","","","","","","","","","","","","","","","","","",""
"","","","","","html-keyboard-response","21","263673","0.0-6.0-0.5","A2AAFWAAS9C1QC","2022-05-26T23:31:39.990Z","phon_sim-same_different-task_switching-rhyme","","null","phon_sim","<div style=""display:grid""><h1 id=""word_1"" style=""grid-column:1; grid-row:1"">friend</h1><h1 id=""word_2"" style=""visibility:hidden;grid-column:1; grid-row:1"">sleigh</h1><h1 id=""word_3"" style=""visibility:hidden;grid-column:1; grid-row:1"">row</h1><h1 id=""word_4"" style=""visibility:hidden;grid-column:1; grid-row:1"">plea</h1><h1 id=""word_5"" style=""visibility:hidden;grid-column:1; grid-row:1"">board</h1></div>","null","experiment","friend","sleigh","row","plea","board","controlSet","","","","","","","","","","","","","","","","","","","","","","","","","","","",""
"","","","","","survey-text","22","272509","0.0-6.0-1.5","A2AAFWAAS9C1QC","2022-05-26T23:31:39.990Z","phon_sim-same_different-task_switching-rhyme","","8828","phon_sim","","{""position_1"":""friend"",""position_2"":""sleigh"",""position_3"":""row"",""position_4"":""plea"",""position_5"":""board""}","experiment","","","","","","","friend","sleigh","row","plea","board","","","","","","","","","","","","","","","","","","","","","","",""
"","","","","","html-keyboard-response","23","285513","0.0-6.0-0.6","A2AAFWAAS9C1QC","2022-05-26T23:31:39.990Z","phon_sim-same_different-task_switching-rhyme","","null","phon_sim","<div style=""display:grid""><h1 id=""word_1"" style=""grid-column:1; grid-row:1"">row</h1><h1 id=""word_2"" style=""visibility:hidden;grid-column:1; grid-row:1"">friend</h1><h1 id=""word_3"" style=""visibility:hidden;grid-column:1; grid-row:1"">board</h1><h1 id=""word_4"" style=""visibility:hidden;grid-column:1; grid-row:1"">sleigh</h1><h1 id=""word_5"" style=""visibility:hidden;grid-column:1; grid-row:1"">plea</h1></div>","null","experiment","row","friend","board","sleigh","plea","controlSet","","","","","","","","","","","","","","","","","","","","","","","","","","","",""
"","","","","","survey-text","24","294766","0.0-6.0-1.6","A2AAFWAAS9C1QC","2022-05-26T23:31:39.990Z","phon_sim-same_different-task_switching-rhyme","","9243","phon_sim","","{""position_1"":""row"",""position_2"":""friend"",""position_3"":""sleigh"",""position_4"":""board"",""position_5"":""plea""}","experiment","","","","","","","row","friend","sleigh","board","plea","","","","","","","","","","","","","","","","","","","","","","",""
"","","","","","html-keyboard-response","25","307773","0.0-6.0-0.7","A2AAFWAAS9C1QC","2022-05-26T23:31:39.990Z","phon_sim-same_different-task_switching-rhyme","","null","phon_sim","<div style=""display:grid""><h1 id=""word_1"" style=""grid-column:1; grid-row:1"">cough</h1><h1 id=""word_2"" style=""visibility:hidden;grid-column:1; grid-row:1"">rough</h1><h1 id=""word_3"" style=""visibility:hidden;grid-column:1; grid-row:1"">dough</h1><h1 id=""word_4"" style=""visibility:hidden;grid-column:1; grid-row:1"">bough</h1><h1 id=""word_5"" style=""visibility:hidden;grid-column:1; grid-row:1"">through</h1></div>","null","experiment","cough","rough","dough","bough","through","orthoSet","","","","","","","","","","","","","","","","","","","","","","","","","","","",""
"","","","","","survey-text","26","316438","0.0-6.0-1.7","A2AAFWAAS9C1QC","2022-05-26T23:31:39.990Z","phon_sim-same_different-task_switching-rhyme","","8656","phon_sim","","{""position_1"":""cough"",""position_2"":""rough"",""position_3"":""dough"",""position_4"":""bough"",""position_5"":""through""}","experiment","","","","","","","cough","rough","dough","bough","through","","","","","","","","","","","","","","","","","","","","","","",""
"","","","","","html-keyboard-response","27","329453","0.0-6.0-0.8","A2AAFWAAS9C1QC","2022-05-26T23:31:39.990Z","phon_sim-same_different-task_switching-rhyme","","null","phon_sim","<div style=""display:grid""><h1 id=""word_1"" style=""grid-column:1; grid-row:1"">wart</h1><h1 id=""word_2"" style=""visibility:hidden;grid-column:1; grid-row:1"">sort</h1><h1 id=""word_3"" style=""visibility:hidden;grid-column:1; grid-row:1"">bought</h1><h1 id=""word_4"" style=""visibility:hidden;grid-column:1; grid-row:1"">caught</h1><h1 id=""word_5"" style=""visibility:hidden;grid-column:1; grid-row:1"">taut</h1></div>","null","experiment","wart","sort","bought","caught","taut","phonSet","","","","","","","","","","","","","","","","","","","","","","","","","","","",""
"","","","","","survey-text","28","337131","0.0-6.0-1.8","A2AAFWAAS9C1QC","2022-05-26T23:31:39.990Z","phon_sim-same_different-task_switching-rhyme","","7666","phon_sim","","{""position_1"":""wart"",""position_2"":""sort"",""position_3"":""bought"",""position_4"":""caught"",""position_5"":""taut""}","experiment","","","","","","","wart","sort","bought","caught","taut","","","","","","","","","","","","","","","","","","","","","","",""
"","","","","","html-keyboard-response","29","350142","0.0-6.0-0.9","A2AAFWAAS9C1QC","2022-05-26T23:31:39.990Z","phon_sim-same_different-task_switching-rhyme","","null","phon_sim","<div style=""display:grid""><h1 id=""word_1"" style=""grid-column:1; grid-row:1"">rough</h1><h1 id=""word_2"" style=""visibility:hidden;grid-column:1; grid-row:1"">dough</h1><h1 id=""word_3"" style=""visibility:hidden;grid-column:1; grid-row:1"">through</h1><h1 id=""word_4"" style=""visibility:hidden;grid-column:1; grid-row:1"">bough</h1><h1 id=""word_5"" style=""visibility:hidden;grid-column:1; grid-row:1"">cough</h1></div>","null","experiment","rough","dough","through","bough","cough","orthoSet","","","","","","","","","","","","","","","","","","","","","","","","","","","",""
"","","","","","survey-text","30","358925","0.0-6.0-1.9","A2AAFWAAS9C1QC","2022-05-26T23:31:39.990Z","phon_sim-same_different-task_switching-rhyme","","8775","phon_sim","","{""position_1"":""rough"",""position_2"":""dough"",""position_3"":""through"",""position_4"":""bough"",""position_5"":""cough""}","experiment","","","","","","","rough","dough","through","bough","cough","","","","","","","","","","","","","","","","","","","","","","",""
"","","","","","html-keyboard-response","31","371932","0.0-6.0-0.10","A2AAFWAAS9C1QC","2022-05-26T23:31:39.990Z","phon_sim-same_different-task_switching-rhyme","","null","phon_sim","<div style=""display:grid""><h1 id=""word_1"" style=""grid-column:1; grid-row:1"">caught</h1><h1 id=""word_2"" style=""visibility:hidden;grid-column:1; grid-row:1"">wart</h1><h1 id=""word_3"" style=""visibility:hidden;grid-column:1; grid-row:1"">sort</h1><h1 id=""word_4"" style=""visibility:hidden;grid-column:1; grid-row:1"">bought</h1><h1 id=""word_5"" style=""visibility:hidden;grid-column:1; grid-row:1"">taut</h1></div>","null","experiment","caught","wart","sort","bought","taut","phonSet","","","","","","","","","","","","","","","","","","","","","","","","","","","",""
"","","","","","survey-text","32","403645","0.0-6.0-1.10","A2AAFWAAS9C1QC","2022-05-26T23:31:39.990Z","phon_sim-same_different-task_switching-rhyme","","31702","phon_sim","","{""position_1"":""caught"",""position_2"":""wart"",""position_3"":""bought"",""position_4"":""sort"",""position_5"":""taut""}","experiment","","","","","","","caught","wart","bought","sort","taut","","","","","","","","","","","","","","","","","","","","","","",""
"","","","","","html-keyboard-response","33","416652","0.0-6.0-0.11","A2AAFWAAS9C1QC","2022-05-26T23:31:39.990Z","phon_sim-same_different-task_switching-rhyme","","null","phon_sim","<div style=""display:grid""><h1 id=""word_1"" style=""grid-column:1; grid-row:1"">sleigh</h1><h1 id=""word_2"" style=""visibility:hidden;grid-column:1; grid-row:1"">friend</h1><h1 id=""word_3"" style=""visibility:hidden;grid-column:1; grid-row:1"">board</h1><h1 id=""word_4"" style=""visibility:hidden;grid-column:1; grid-row:1"">plea</h1><h1 id=""word_5"" style=""visibility:hidden;grid-column:1; grid-row:1"">row</h1></div>","null","experiment","sleigh","friend","board","plea","row","controlSet","","","","","","","","","","","","","","","","","","","","","","","","","","","",""
"","","","","","survey-text","34","443140","0.0-6.0-1.11","A2AAFWAAS9C1QC","2022-05-26T23:31:39.990Z","phon_sim-same_different-task_switching-rhyme","","26480","phon_sim","","{""position_1"":""sleigh"",""position_2"":""friend"",""position_3"":""board"",""position_4"":""plea"",""position_5"":""caught""}","experiment","","","","","","","sleigh","friend","board","plea","caught","","","","","","","","","","","","","","","","","","","","","","",""
"","","","","","html-keyboard-response","35","456162","0.0-6.0-0.12","A2AAFWAAS9C1QC","2022-05-26T23:31:39.990Z","phon_sim-same_different-task_switching-rhyme","","null","phon_sim","<div style=""display:grid""><h1 id=""word_1"" style=""grid-column:1; grid-row:1"">sort</h1><h1 id=""word_2"" style=""visibility:hidden;grid-column:1; grid-row:1"">bought</h1><h1 id=""word_3"" style=""visibility:hidden;grid-column:1; grid-row:1"">caught</h1><h1 id=""word_4"" style=""visibility:hidden;grid-column:1; grid-row:1"">taut</h1><h1 id=""word_5"" style=""visibility:hidden;grid-column:1; grid-row:1"">wart</h1></div>","null","experiment","sort","bought","caught","taut","wart","phonSet","","","","","","","","","","","","","","","","","","","","","","","","","","","",""
"","","","","","survey-text","36","478317","0.0-6.0-1.12","A2AAFWAAS9C1QC","2022-05-26T23:31:39.990Z","phon_sim-same_different-task_switching-rhyme","","22145","phon_sim","","{""position_1"":""sort"",""position_2"":""wart"",""position_3"":""bought"",""position_4"":""caught"",""position_5"":""wart""}","experiment","","","","","","","sort","wart","bought","caught","wart","","","","","","","","","","","","","","","","","","","","","","",""
"","","","","","html-keyboard-response","37","491322","0.0-6.0-0.13","A2AAFWAAS9C1QC","2022-05-26T23:31:39.990Z","phon_sim-same_different-task_switching-rhyme","","null","phon_sim","<div style=""display:grid""><h1 id=""word_1"" style=""grid-column:1; grid-row:1"">bough</h1><h1 id=""word_2"" style=""visibility:hidden;grid-column:1; grid-row:1"">through</h1><h1 id=""word_3"" style=""visibility:hidden;grid-column:1; grid-row:1"">dough</h1><h1 id=""word_4"" style=""visibility:hidden;grid-column:1; grid-row:1"">cough</h1><h1 id=""word_5"" style=""visibility:hidden;grid-column:1; grid-row:1"">rough</h1></div>","null","experiment","bough","through","dough","cough","rough","orthoSet","","","","","","","","","","","","","","","","","","","","","","","","","","","",""
"","","","","","survey-text","38","508308","0.0-6.0-1.13","A2AAFWAAS9C1QC","2022-05-26T23:31:39.990Z","phon_sim-same_different-task_switching-rhyme","","16978","phon_sim","","{""position_1"":""bough"",""position_2"":""through"",""position_3"":""dough"",""position_4"":""cough"",""position_5"":""rough""}","experiment","","","","","","","bough","through","dough","cough","rough","","","","","","","","","","","","","","","","","","","","","","",""
"","","","","","html-keyboard-response","39","521321","0.0-6.0-0.14","A2AAFWAAS9C1QC","2022-05-26T23:31:39.990Z","phon_sim-same_different-task_switching-rhyme","","null","phon_sim","<div style=""display:grid""><h1 id=""word_1"" style=""grid-column:1; grid-row:1"">board</h1><h1 id=""word_2"" style=""visibility:hidden;grid-column:1; grid-row:1"">row</h1><h1 id=""word_3"" style=""visibility:hidden;grid-column:1; grid-row:1"">plea</h1><h1 id=""word_4"" style=""visibility:hidden;grid-column:1; grid-row:1"">friend</h1><h1 id=""word_5"" style=""visibility:hidden;grid-column:1; grid-row:1"">sleigh</h1></div>","null","experiment","board","row","plea","friend","sleigh","controlSet","","","","","","","","","","","","","","","","","","","","","","","","","","","",""
"","","","","","survey-text","40","529972","0.0-6.0-1.14","A2AAFWAAS9C1QC","2022-05-26T23:31:39.990Z","phon_sim-same_different-task_switching-rhyme","","8645","phon_sim","","{""position_1"":""board"",""position_2"":""row"",""position_3"":""plea"",""position_4"":""friend"",""position_5"":""sleigh""}","experiment","","","","","","","board","row","plea","friend","sleigh","","","","","","","","","","","","","","","","","","","","","","",""
"","","","","","html-keyboard-response","41","542989","0.0-6.0-0.15","A2AAFWAAS9C1QC","2022-05-26T23:31:39.990Z","phon_sim-same_different-task_switching-rhyme","","null","phon_sim","<div style=""display:grid""><h1 id=""word_1"" style=""grid-column:1; grid-row:1"">board</h1><h1 id=""word_2"" style=""visibility:hidden;grid-column:1; grid-row:1"">row</h1><h1 id=""word_3"" style=""visibility:hidden;grid-column:1; grid-row:1"">plea</h1><h1 id=""word_4"" style=""visibility:hidden;grid-column:1; grid-row:1"">sleigh</h1><h1 id=""word_5"" style=""visibility:hidden;grid-column:1; grid-row:1"">friend</h1></div>","null","experiment","board","row","plea","sleigh","friend","controlSet","","","","","","","","","","","","","","","","","","","","","","","","","","","",""
"","","","","","survey-text","42","550854","0.0-6.0-1.15","A2AAFWAAS9C1QC","2022-05-26T23:31:39.990Z","phon_sim-same_different-task_switching-rhyme","","7858","phon_sim","","{""position_1"":""board"",""position_2"":""row"",""position_3"":""plea"",""position_4"":""sleigh"",""position_5"":""friend""}","experiment","","","","","","","board","row","plea","sleigh","friend","","","","","","","","","","","","","","","","","","","","","","",""
"","","","","","html-keyboard-response","43","563871","0.0-6.0-0.16","A2AAFWAAS9C1QC","2022-05-26T23:31:39.990Z","phon_sim-same_different-task_switching-rhyme","","null","phon_sim","<div style=""display:grid""><h1 id=""word_1"" style=""grid-column:1; grid-row:1"">taut</h1><h1 id=""word_2"" style=""visibility:hidden;grid-column:1; grid-row:1"">caught</h1><h1 id=""word_3"" style=""visibility:hidden;grid-column:1; grid-row:1"">bought</h1><h1 id=""word_4"" style=""visibility:hidden;grid-column:1; grid-row:1"">sort</h1><h1 id=""word_5"" style=""visibility:hidden;grid-column:1; grid-row:1"">wart</h1></div>","null","experiment","taut","caught","bought","sort","wart","phonSet","","","","","","","","","","","","","","","","","","","","","","","","","","","",""
"","","","","","survey-text","44","584780","0.0-6.0-1.16","A2AAFWAAS9C1QC","2022-05-26T23:31:39.990Z","phon_sim-same_different-task_switching-rhyme","","20901","phon_sim","","{""position_1"":""bought"",""position_2"":""caught"",""position_3"":""taut"",""position_4"":""sort"",""position_5"":""wart""}","experiment","","","","","","","bought","caught","taut","sort","wart","","","","","","","","","","","","","","","","","","","","","","",""
"","","","","","html-keyboard-response","45","597791","0.0-6.0-0.17","A2AAFWAAS9C1QC","2022-05-26T23:31:39.990Z","phon_sim-same_different-task_switching-rhyme","","null","phon_sim","<div style=""display:grid""><h1 id=""word_1"" style=""grid-column:1; grid-row:1"">wart</h1><h1 id=""word_2"" style=""visibility:hidden;grid-column:1; grid-row:1"">sort</h1><h1 id=""word_3"" style=""visibility:hidden;grid-column:1; grid-row:1"">taut</h1><h1 id=""word_4"" style=""visibility:hidden;grid-column:1; grid-row:1"">caught</h1><h1 id=""word_5"" style=""visibility:hidden;grid-column:1; grid-row:1"">bought</h1></div>","null","experiment","wart","sort","taut","caught","bought","phonSet","","","","","","","","","","","","","","","","","","","","","","","","","","","",""
"","","","","","survey-text","46","607892","0.0-6.0-1.17","A2AAFWAAS9C1QC","2022-05-26T23:31:39.990Z","phon_sim-same_different-task_switching-rhyme","","10094","phon_sim","","{""position_1"":""wart"",""position_2"":""sort"",""position_3"":""taut"",""position_4"":""caught"",""position_5"":""bought""}","experiment","","","","","","","wart","sort","taut","caught","bought","","","","","","","","","","","","","","","","","","","","","","",""
"","","","","","html-keyboard-response","47","620911","0.0-6.0-0.18","A2AAFWAAS9C1QC","2022-05-26T23:31:39.990Z","phon_sim-same_different-task_switching-rhyme","","null","phon_sim","<div style=""display:grid""><h1 id=""word_1"" style=""grid-column:1; grid-row:1"">friend</h1><h1 id=""word_2"" style=""visibility:hidden;grid-column:1; grid-row:1"">board</h1><h1 id=""word_3"" style=""visibility:hidden;grid-column:1; grid-row:1"">row</h1><h1 id=""word_4"" style=""visibility:hidden;grid-column:1; grid-row:1"">plea</h1><h1 id=""word_5"" style=""visibility:hidden;grid-column:1; grid-row:1"">sleigh</h1></div>","null","experiment","friend","board","row","plea","sleigh","controlSet","","","","","","","","","","","","","","","","","","","","","","","","","","","",""
"","","","","","survey-text","48","630827","0.0-6.0-1.18","A2AAFWAAS9C1QC","2022-05-26T23:31:39.990Z","phon_sim-same_different-task_switching-rhyme","","9907","phon_sim","","{""position_1"":""friend"",""position_2"":""board"",""position_3"":""row"",""position_4"":""plea"",""position_5"":""sleigh""}","experiment","","","","","","","friend","board","row","plea","sleigh","","","","","","","","","","","","","","","","","","","","","","",""
"","","","","","html-keyboard-response","49","643841","0.0-6.0-0.19","A2AAFWAAS9C1QC","2022-05-26T23:31:39.990Z","phon_sim-same_different-task_switching-rhyme","","null","phon_sim","<div style=""display:grid""><h1 id=""word_1"" style=""grid-column:1; grid-row:1"">dough</h1><h1 id=""word_2"" style=""visibility:hidden;grid-column:1; grid-row:1"">rough</h1><h1 id=""word_3"" style=""visibility:hidden;grid-column:1; grid-row:1"">bough</h1><h1 id=""word_4"" style=""visibility:hidden;grid-column:1; grid-row:1"">cough</h1><h1 id=""word_5"" style=""visibility:hidden;grid-column:1; grid-row:1"">through</h1></div>","null","experiment","dough","rough","bough","cough","through","orthoSet","","","","","","","","","","","","","","","","","","","","","","","","","","","",""
"","","","","","survey-text","50","651556","0.0-6.0-1.19","A2AAFWAAS9C1QC","2022-05-26T23:31:39.990Z","phon_sim-same_different-task_switching-rhyme","","7707","phon_sim","","{""position_1"":""board"",""position_2"":""row"",""position_3"":""bough"",""position_4"":""cough"",""position_5"":""through""}","experiment","","","","","","","board","row","bough","cough","through","","","","","","","","","","","","","","","","","","","","","","",""
"","","","","","html-keyboard-response","51","664561","0.0-6.0-0.20","A2AAFWAAS9C1QC","2022-05-26T23:31:39.990Z","phon_sim-same_different-task_switching-rhyme","","null","phon_sim","<div style=""display:grid""><h1 id=""word_1"" style=""grid-column:1; grid-row:1"">wart</h1><h1 id=""word_2"" style=""visibility:hidden;grid-column:1; grid-row:1"">taut</h1><h1 id=""word_3"" style=""visibility:hidden;grid-column:1; grid-row:1"">caught</h1><h1 id=""word_4"" style=""visibility:hidden;grid-column:1; grid-row:1"">bought</h1><h1 id=""word_5"" style=""visibility:hidden;grid-column:1; grid-row:1"">sort</h1></div>","null","experiment","wart","taut","caught","bought","sort","phonSet","","","","","","","","","","","","","","","","","","","","","","","","","","","",""
"","","","","","survey-text","52","699947","0.0-6.0-1.20","A2AAFWAAS9C1QC","2022-05-26T23:31:39.990Z","phon_sim-same_different-task_switching-rhyme","","35378","phon_sim","","{""position_1"":""wart"",""position_2"":""taut"",""position_3"":""bought"",""position_4"":""caught"",""position_5"":""sort""}","experiment","","","","","","","wart","taut","bought","caught","sort","","","","","","","","","","","","","","","","","","","","","","",""
"","","","","","html-keyboard-response","53","712950","0.0-6.0-0.21","A2AAFWAAS9C1QC","2022-05-26T23:31:39.990Z","phon_sim-same_different-task_switching-rhyme","","null","phon_sim","<div style=""display:grid""><h1 id=""word_1"" style=""grid-column:1; grid-row:1"">sort</h1><h1 id=""word_2"" style=""visibility:hidden;grid-column:1; grid-row:1"">bought</h1><h1 id=""word_3"" style=""visibility:hidden;grid-column:1; grid-row:1"">taut</h1><h1 id=""word_4"" style=""visibility:hidden;grid-column:1; grid-row:1"">caught</h1><h1 id=""word_5"" style=""visibility:hidden;grid-column:1; grid-row:1"">wart</h1></div>","null","experiment","sort","bought","taut","caught","wart","phonSet","","","","","","","","","","","","","","","","","","","","","","","","","","","",""
"","","","","","survey-text","54","723099","0.0-6.0-1.21","A2AAFWAAS9C1QC","2022-05-26T23:31:39.990Z","phon_sim-same_different-task_switching-rhyme","","10142","phon_sim","","{""position_1"":""sort"",""position_2"":""bought"",""position_3"":""caught"",""position_4"":""taut"",""position_5"":""wart""}","experiment","","","","","","","sort","bought","caught","taut","wart","","","","","","","","","","","","","","","","","","","","","","",""
"","","","","","html-keyboard-response","55","736110","0.0-6.0-0.22","A2AAFWAAS9C1QC","2022-05-26T23:31:39.990Z","phon_sim-same_different-task_switching-rhyme","","null","phon_sim","<div style=""display:grid""><h1 id=""word_1"" style=""grid-column:1; grid-row:1"">sleigh</h1><h1 id=""word_2"" style=""visibility:hidden;grid-column:1; grid-row:1"">board</h1><h1 id=""word_3"" style=""visibility:hidden;grid-column:1; grid-row:1"">friend</h1><h1 id=""word_4"" style=""visibility:hidden;grid-column:1; grid-row:1"">plea</h1><h1 id=""word_5"" style=""visibility:hidden;grid-column:1; grid-row:1"">row</h1></div>","null","experiment","sleigh","board","friend","plea","row","controlSet","","","","","","","","","","","","","","","","","","","","","","","","","","","",""
"","","","","","survey-text","56","761492","0.0-6.0-1.22","A2AAFWAAS9C1QC","2022-05-26T23:31:39.990Z","phon_sim-same_different-task_switching-rhyme","","25373","phon_sim","","{""position_1"":""sleigh"",""position_2"":""board"",""position_3"":""friend"",""position_4"":""plea"",""position_5"":""bough""}","experiment","","","","","","","sleigh","board","friend","plea","bough","","","","","","","","","","","","","","","","","","","","","","",""
"","","","","","html-keyboard-response","57","774510","0.0-6.0-0.23","A2AAFWAAS9C1QC","2022-05-26T23:31:39.990Z","phon_sim-same_different-task_switching-rhyme","","null","phon_sim","<div style=""display:grid""><h1 id=""word_1"" style=""grid-column:1; grid-row:1"">bough</h1><h1 id=""word_2"" style=""visibility:hidden;grid-column:1; grid-row:1"">through</h1><h1 id=""word_3"" style=""visibility:hidden;grid-column:1; grid-row:1"">dough</h1><h1 id=""word_4"" style=""visibility:hidden;grid-column:1; grid-row:1"">rough</h1><h1 id=""word_5"" style=""visibility:hidden;grid-column:1; grid-row:1"">cough</h1></div>","null","experiment","bough","through","dough","rough","cough","orthoSet","","","","","","","","","","","","","","","","","","","","","","","","","","","",""
"","","","","","survey-text","58","783874","0.0-6.0-1.23","A2AAFWAAS9C1QC","2022-05-26T23:31:39.990Z","phon_sim-same_different-task_switching-rhyme","","9358","phon_sim","","{""position_1"":""bough"",""position_2"":""through"",""position_3"":""dough"",""position_4"":""rough"",""position_5"":""cough""}","experiment","","","","","","","bough","through","dough","rough","cough","","","","","","","","","","","","","","","","","","","","","","",""
"","","","","","survey-multi-choice","59","790043","0.0-7.0","A2AAFWAAS9C1QC","2022-05-26T23:31:39.990Z","phon_sim-same_different-task_switching-rhyme","","6165","phon_sim","","{""Q0"":""Yes""}","","","","","","","","","","","","","[0]","Yes","","","","","","","","","","","","","","","","","","","","",""
"","","","","","survey-text","60","869787","0.0-8.0","A2AAFWAAS9C1QC","2022-05-26T23:31:39.990Z","phon_sim-same_different-task_switching-rhyme","","79737","phon_sim","","{""Q0"":""If all the words in the group ended in -ough, I just repeated the beginning letters to myself and didn't focus on the whole word.""}","","","","","","","","","","","","","","","If all the words in the group ended in -ough, I just repeated the beginning letters to myself and didn't focus on the whole word.","","","","","","","","","","","","","","","","","","","",""
"","","","","","instructions","61","871809","0.0-9.0","A2AAFWAAS9C1QC","2022-05-26T23:31:39.990Z","phon_sim-same_different-task_switching-rhyme","[{""page_index"":0,""viewing_time"":2021}]","2021","phon_sim","","","","","","","","","","","","","","","","","","","","","","","","","","","","","","","","","","","","",""
"","","","","","instructions","62","895313","0.0-10.0","A2AAFWAAS9C1QC","2022-05-26T23:31:39.990Z","phon_sim-same_different-task_switching-rhyme","[{""page_index"":0,""viewing_time"":23502}]","23502","same_different","","","","","","","","","","","","","","","","","","","","","","","","","","","","","","","","","","","","",""
"","","","","","instructions","63","934161","0.0-11.0","A2AAFWAAS9C1QC","2022-05-26T23:31:39.990Z","phon_sim-same_different-task_switching-rhyme","[{""page_index"":0,""viewing_time"":38846}]","38846","","","","","","","","","","","","","","","","","","","","","","","","","","","","","","","","","","","","","",""
"","","","","","html-keyboard-response","64","934919","0.0-12.0-0.0","A2AAFWAAS9C1QC","2022-05-26T23:31:39.990Z","phon_sim-same_different-task_switching-rhyme","","null","same_different","<div style=""font-size:60px"">+</div>","null","","","","","","","","","","","","","","","","","","","","","","","","","","","","","","","","","","",""
"","","","","","html-keyboard-response","65","936602","0.0-12.0-1.0","A2AAFWAAS9C1QC","2022-05-26T23:31:39.990Z","phon_sim-same_different-task_switching-rhyme","","1675","same_different","[""<img src=\""square.png\"" width=\""100\"" height=\""100\"" style=\""position: fixed;left:39%;top:47%\""><img src=\""square.png\"" width=\""100\"" height=\""100\"" style=\""position: fixed;left:54%;top:47%\""><img src=\""square.png\"" width=\""100\"" height=\""100\"" style=\""position: fixed;left:46.5%;top:32%\""><img src=\""square.png\"" width=\""100\"" height=\""100\"" style=\""position: fixed;left:46.5%;top:61%\""><div style=\""font-size:60px;text-align: center;margin-top:45.5%\"">+</div><div id=\""first\"" style=\""position: fixed;visibility: hidden;left:48%;top:34%\""><img src=\""same_diff_imgs/C04.gif\"" style=\""-webkit-transform: scaleX(-1);transform: scaleX(-1);\""></div><div id=\""delayed\"" style=\""position: fixed;visibility: hidden;left:48%;top:62%\""><img src=\""same_diff_imgs/C14.gif\"" style=\""-webkit-transform: scaleX(-1);transform: scaleX(-1);\""></div>""]","arrowdown","","","","","","","","","","","","","","","","identical_image","same_diff_imgs/C04.gif","same_diff_imgs/C14.gif","yes","different","1","true","","","","","","","","","","","","",""
"","","","","","html-keyboard-response","66","936606","0.0-12.0-2.0","A2AAFWAAS9C1QC","2022-05-26T23:31:39.990Z","phon_sim-same_different-task_switching-rhyme","","null",""," ","null","","","","","","","","","","","","","","","","","","","","","","","","","","","","","","","","","","",""
"","","","","","html-keyboard-response","67","936910","0.0-12.0-3.0","A2AAFWAAS9C1QC","2022-05-26T23:31:39.990Z","phon_sim-same_different-task_switching-rhyme","","null","same_different"," ","null","","","","","","","","","","","","","","","","","","","","","","","","","","","","","","","","","","",""
"","","","","","html-keyboard-response","68","937669","0.0-12.0-0.1","A2AAFWAAS9C1QC","2022-05-26T23:31:39.990Z","phon_sim-same_different-task_switching-rhyme","","null","same_different","<div style=""font-size:60px"">+</div>","null","","","","","","","","","","","","","","","","","","","","","","","","","","","","","","","","","","",""
"","","","","","html-keyboard-response","69","939737","0.0-12.0-1.1","A2AAFWAAS9C1QC","2022-05-26T23:31:39.990Z","phon_sim-same_different-task_switching-rhyme","","2065","same_different","[""<img src=\""square.png\"" width=\""100\"" height=\""100\"" style=\""position: fixed;left:39%;top:47%\""><img src=\""square.png\"" width=\""100\"" height=\""100\"" style=\""position: fixed;left:54%;top:47%\""><img src=\""square.png\"" width=\""100\"" height=\""100\"" style=\""position: fixed;left:46.5%;top:32%\""><img src=\""square.png\"" width=\""100\"" height=\""100\"" style=\""position: fixed;left:46.5%;top:61%\""><div style=\""font-size:60px; text-align: center;margin-top:45.5%\"">+</div><div id=\""first\"" style=\""position: fixed;visibility: hidden;left:48%;top:34%\""><img src=\""same_diff_imgs/D11.gif\""></div><div id=\""delayed\"" style=\""position: fixed;visibility: hidden;left:55%;top:49%\""><img src=\""same_diff_imgs/D11.gif\""></div>""]","arrowup","","","","","","","","","","","","","","","","identical_image","same_diff_imgs/D11.gif","same_diff_imgs/D11.gif","no","same","","true","1","","","","","","","","","","","",""
"","","","","","html-keyboard-response","70","939739","0.0-12.0-2.1","A2AAFWAAS9C1QC","2022-05-26T23:31:39.990Z","phon_sim-same_different-task_switching-rhyme","","null",""," ","null","","","","","","","","","","","","","","","","","","","","","","","","","","","","","","","","","","",""
"","","","","","html-keyboard-response","71","940049","0.0-12.0-3.1","A2AAFWAAS9C1QC","2022-05-26T23:31:39.990Z","phon_sim-same_different-task_switching-rhyme","","null","same_different"," ","null","","","","","","","","","","","","","","","","","","","","","","","","","","","","","","","","","","",""
"","","","","","html-keyboard-response","72","940820","0.0-12.0-0.2","A2AAFWAAS9C1QC","2022-05-26T23:31:39.990Z","phon_sim-same_different-task_switching-rhyme","","null","same_different","<div style=""font-size:60px"">+</div>","null","","","","","","","","","","","","","","","","","","","","","","","","","","","","","","","","","","",""
"","","","","","html-keyboard-response","73","942345","0.0-12.0-1.2","A2AAFWAAS9C1QC","2022-05-26T23:31:39.990Z","phon_sim-same_different-task_switching-rhyme","","1522","same_different","[""<img src=\""square.png\"" width=\""100\"" height=\""100\"" style=\""position: fixed;left:39%;top:47%\""><img src=\""square.png\"" width=\""100\"" height=\""100\"" style=\""position: fixed;left:54%;top:47%\""><img src=\""square.png\"" width=\""100\"" height=\""100\"" style=\""position: fixed;left:46.5%;top:32%\""><img src=\""square.png\"" width=\""100\"" height=\""100\"" style=\""position: fixed;left:46.5%;top:61%\""><div style=\""font-size:60px; text-align: center;margin-top:45.5%\"">+</div><div id=\""first\"" style=\""position: fixed;visibility: hidden;left:55%;top:49%\""><img src=\""same_diff_imgs/D07.gif\""></div><div id=\""delayed\"" style=\""position: fixed;visibility: hidden;left:48%;top:62%\""><img src=\""same_diff_imgs/D07.gif\""></div>""]","arrowup","","","","","","","","","","","","","","","","identical_image","same_diff_imgs/D07.gif","same_diff_imgs/D07.gif","no","same","","true","1","","","","","","","","","","","",""
"","","","","","html-keyboard-response","74","942348","0.0-12.0-2.2","A2AAFWAAS9C1QC","2022-05-26T23:31:39.990Z","phon_sim-same_different-task_switching-rhyme","","null",""," ","null","","","","","","","","","","","","","","","","","","","","","","","","","","","","","","","","","","",""
"","","","","","html-keyboard-response","75","942659","0.0-12.0-3.2","A2AAFWAAS9C1QC","2022-05-26T23:31:39.990Z","phon_sim-same_different-task_switching-rhyme","","null","same_different"," ","null","","","","","","","","","","","","","","","","","","","","","","","","","","","","","","","","","","",""
"","","","","","html-keyboard-response","76","943419","0.0-12.0-0.3","A2AAFWAAS9C1QC","2022-05-26T23:31:39.990Z","phon_sim-same_different-task_switching-rhyme","","null","same_different","<div style=""font-size:60px"">+</div>","null","","","","","","","","","","","","","","","","","","","","","","","","","","","","","","","","","","",""
"","","","","","html-keyboard-response","77","944889","0.0-12.0-1.3","A2AAFWAAS9C1QC","2022-05-26T23:31:39.990Z","phon_sim-same_different-task_switching-rhyme","","1468","same_different","[""<img src=\""square.png\"" width=\""100\"" height=\""100\"" style=\""position: fixed;left:39%;top:47%\""><img src=\""square.png\"" width=\""100\"" height=\""100\"" style=\""position: fixed;left:54%;top:47%\""><img src=\""square.png\"" width=\""100\"" height=\""100\"" style=\""position: fixed;left:46.5%;top:32%\""><img src=\""square.png\"" width=\""100\"" height=\""100\"" style=\""position: fixed;left:46.5%;top:61%\""><div style=\""font-size:60px; text-align: center;margin-top:45.5%\"">+</div><div id=\""first\"" style=\""position: fixed;visibility: hidden;left:40%;top:48%\""><img src=\""same_diff_imgs/D07.gif\""></div><div id=\""delayed\"" style=\""position: fixed;visibility: hidden;left:48%;top:62%\""><img src=\""same_diff_imgs/D11.gif\""></div>""]","arrowdown","","","","","","","","","","","","","","","","identical_image","same_diff_imgs/D07.gif","same_diff_imgs/D11.gif","no","different","1","true","","","","","","","","","","","","",""
"","","","","","html-keyboard-response","78","944892","0.0-12.0-2.3","A2AAFWAAS9C1QC","2022-05-26T23:31:39.990Z","phon_sim-same_different-task_switching-rhyme","","null",""," ","null","","","","","","","","","","","","","","","","","","","","","","","","","","","","","","","","","","",""
"","","","","","html-keyboard-response","79","945209","0.0-12.0-3.3","A2AAFWAAS9C1QC","2022-05-26T23:31:39.990Z","phon_sim-same_different-task_switching-rhyme","","null","same_different"," ","null","","","","","","","","","","","","","","","","","","","","","","","","","","","","","","","","","","",""
"","","","","","html-keyboard-response","80","945979","0.0-12.0-0.4","A2AAFWAAS9C1QC","2022-05-26T23:31:39.990Z","phon_sim-same_different-task_switching-rhyme","","null","same_different","<div style=""font-size:60px"">+</div>","null","","","","","","","","","","","","","","","","","","","","","","","","","","","","","","","","","","",""
"","","","","","html-keyboard-response","81","947576","0.0-12.0-1.4","A2AAFWAAS9C1QC","2022-05-26T23:31:39.990Z","phon_sim-same_different-task_switching-rhyme","","1594","same_different","[""<img src=\""square.png\"" width=\""100\"" height=\""100\"" style=\""position: fixed;left:39%;top:47%\""><img src=\""square.png\"" width=\""100\"" height=\""100\"" style=\""position: fixed;left:54%;top:47%\""><img src=\""square.png\"" width=\""100\"" height=\""100\"" style=\""position: fixed;left:46.5%;top:32%\""><img src=\""square.png\"" width=\""100\"" height=\""100\"" style=\""position: fixed;left:46.5%;top:61%\""><div style=\""font-size:60px; text-align: center;margin-top:45.5%\"">+</div><div id=\""first\"" style=\""position: fixed;visibility: hidden;left:48%;top:34%\""><img src=\""same_diff_imgs/D07.gif\""></div><div id=\""delayed\"" style=\""position: fixed;visibility: hidden;left:48%;top:62%\""><img src=\""same_diff_imgs/C04.gif\""></div>""]","arrowdown","","","","","","","","","","","","","","","","identical_image","same_diff_imgs/D07.gif","same_diff_imgs/C04.gif","no","different","1","true","","","","","","","","","","","","",""
"","","","","","html-keyboard-response","82","947579","0.0-12.0-2.4","A2AAFWAAS9C1QC","2022-05-26T23:31:39.990Z","phon_sim-same_different-task_switching-rhyme","","null",""," ","null","","","","","","","","","","","","","","","","","","","","","","","","","","","","","","","","","","",""
"","","","","","html-keyboard-response","83","947899","0.0-12.0-3.4","A2AAFWAAS9C1QC","2022-05-26T23:31:39.990Z","phon_sim-same_different-task_switching-rhyme","","null","same_different"," ","null","","","","","","","","","","","","","","","","","","","","","","","","","","","","","","","","","","",""
"","","","","","html-keyboard-response","84","948659","0.0-12.0-0.5","A2AAFWAAS9C1QC","2022-05-26T23:31:39.990Z","phon_sim-same_different-task_switching-rhyme","","null","same_different","<div style=""font-size:60px"">+</div>","null","","","","","","","","","","","","","","","","","","","","","","","","","","","","","","","","","","",""
"","","","","","html-keyboard-response","85","950088","0.0-12.0-1.5","A2AAFWAAS9C1QC","2022-05-26T23:31:39.990Z","phon_sim-same_different-task_switching-rhyme","","1427","same_different","[""<img src=\""square.png\"" width=\""100\"" height=\""100\"" style=\""position: fixed;left:39%;top:47%\""><img src=\""square.png\"" width=\""100\"" height=\""100\"" style=\""position: fixed;left:54%;top:47%\""><img src=\""square.png\"" width=\""100\"" height=\""100\"" style=\""position: fixed;left:46.5%;top:32%\""><img src=\""square.png\"" width=\""100\"" height=\""100\"" style=\""position: fixed;left:46.5%;top:61%\""><div style=\""font-size:60px; text-align: center;margin-top:45.5%\"">+</div><div id=\""first\"" style=\""position: fixed;visibility: hidden;left:48%;top:34%\""><img src=\""same_diff_imgs/C04.gif\""></div><div id=\""delayed\"" style=\""position: fixed;visibility: hidden;left:40%;top:48%\""><img src=\""same_diff_imgs/D07.gif\""></div>""]","arrowdown","","","","","","","","","","","","","","","","identical_image","same_diff_imgs/C04.gif","same_diff_imgs/D07.gif","no","different","1","true","","","","","","","","","","","","",""
"","","","","","html-keyboard-response","86","950091","0.0-12.0-2.5","A2AAFWAAS9C1QC","2022-05-26T23:31:39.990Z","phon_sim-same_different-task_switching-rhyme","","null",""," ","null","","","","","","","","","","","","","","","","","","","","","","","","","","","","","","","","","","",""
"","","","","","html-keyboard-response","87","950400","0.0-12.0-3.5","A2AAFWAAS9C1QC","2022-05-26T23:31:39.990Z","phon_sim-same_different-task_switching-rhyme","","null","same_different"," ","null","","","","","","","","","","","","","","","","","","","","","","","","","","","","","","","","","","",""
"","","","","","html-keyboard-response","88","951159","0.0-12.0-0.6","A2AAFWAAS9C1QC","2022-05-26T23:31:39.990Z","phon_sim-same_different-task_switching-rhyme","","null","same_different","<div style=""font-size:60px"">+</div>","null","","","","","","","","","","","","","","","","","","","","","","","","","","","","","","","","","","",""
"","","","","","html-keyboard-response","89","952552","0.0-12.0-1.6","A2AAFWAAS9C1QC","2022-05-26T23:31:39.990Z","phon_sim-same_different-task_switching-rhyme","","1390","same_different","[""<img src=\""square.png\"" width=\""100\"" height=\""100\"" style=\""position: fixed;left:39%;top:47%\""><img src=\""square.png\"" width=\""100\"" height=\""100\"" style=\""position: fixed;left:54%;top:47%\""><img src=\""square.png\"" width=\""100\"" height=\""100\"" style=\""position: fixed;left:46.5%;top:32%\""><img src=\""square.png\"" width=\""100\"" height=\""100\"" style=\""position: fixed;left:46.5%;top:61%\""><div style=\""font-size:60px; text-align: center;margin-top:45.5%\"">+</div><div id=\""first\"" style=\""position: fixed;visibility: hidden;left:48%;top:62%\""><img src=\""same_diff_imgs/C09.gif\""></div><div id=\""delayed\"" style=\""position: fixed;visibility: hidden;left:48%;top:34%\""><img src=\""same_diff_imgs/C09.gif\""></div>""]","arrowup","","","","","","","","","","","","","","","","identical_image","same_diff_imgs/C09.gif","same_diff_imgs/C09.gif","no","same","","true","1","","","","","","","","","","","",""
"","","","","","html-keyboard-response","90","952556","0.0-12.0-2.6","A2AAFWAAS9C1QC","2022-05-26T23:31:39.990Z","phon_sim-same_different-task_switching-rhyme","","null",""," ","null","","","","","","","","","","","","","","","","","","","","","","","","","","","","","","","","","","",""
"","","","","","html-keyboard-response","91","952862","0.0-12.0-3.6","A2AAFWAAS9C1QC","2022-05-26T23:31:39.990Z","phon_sim-same_different-task_switching-rhyme","","null","same_different"," ","null","","","","","","","","","","","","","","","","","","","","","","","","","","","","","","","","","","",""
"","","","","","html-keyboard-response","92","953619","0.0-12.0-0.7","A2AAFWAAS9C1QC","2022-05-26T23:31:39.990Z","phon_sim-same_different-task_switching-rhyme","","null","same_different","<div style=""font-size:60px"">+</div>","null","","","","","","","","","","","","","","","","","","","","","","","","","","","","","","","","","","",""
"","","","","","html-keyboard-response","93","955049","0.0-12.0-1.7","A2AAFWAAS9C1QC","2022-05-26T23:31:39.990Z","phon_sim-same_different-task_switching-rhyme","","1426","same_different","[""<img src=\""square.png\"" width=\""100\"" height=\""100\"" style=\""position: fixed;left:39%;top:47%\""><img src=\""square.png\"" width=\""100\"" height=\""100\"" style=\""position: fixed;left:54%;top:47%\""><img src=\""square.png\"" width=\""100\"" height=\""100\"" style=\""position: fixed;left:46.5%;top:32%\""><img src=\""square.png\"" width=\""100\"" height=\""100\"" style=\""position: fixed;left:46.5%;top:61%\""><div style=\""font-size:60px; text-align: center;margin-top:45.5%\"">+</div><div id=\""first\"" style=\""position: fixed;visibility: hidden;left:48%;top:34%\""><img src=\""same_diff_imgs/D09.gif\""></div><div id=\""delayed\"" style=\""position: fixed;visibility: hidden;left:48%;top:62%\""><img src=\""same_diff_imgs/D09.gif\""></div>""]","arrowup","","","","","","","","","","","","","","","","identical_image","same_diff_imgs/D09.gif","same_diff_imgs/D09.gif","no","same","","true","1","","","","","","","","","","","",""
"","","","","","html-keyboard-response","94","955053","0.0-12.0-2.7","A2AAFWAAS9C1QC","2022-05-26T23:31:39.990Z","phon_sim-same_different-task_switching-rhyme","","null",""," ","null","","","","","","","","","","","","","","","","","","","","","","","","","","","","","","","","","","",""
"","","","","","html-keyboard-response","95","955358","0.0-12.0-3.7","A2AAFWAAS9C1QC","2022-05-26T23:31:39.990Z","phon_sim-same_different-task_switching-rhyme","","null","same_different"," ","null","","","","","","","","","","","","","","","","","","","","","","","","","","","","","","","","","","",""
"","","","","","html-keyboard-response","96","956119","0.0-12.0-0.8","A2AAFWAAS9C1QC","2022-05-26T23:31:39.990Z","phon_sim-same_different-task_switching-rhyme","","null","same_different","<div style=""font-size:60px"">+</div>","null","","","","","","","","","","","","","","","","","","","","","","","","","","","","","","","","","","",""
"","","","","","html-keyboard-response","97","957608","0.0-12.0-1.8","A2AAFWAAS9C1QC","2022-05-26T23:31:39.990Z","phon_sim-same_different-task_switching-rhyme","","1487","same_different","[""<img src=\""square.png\"" width=\""100\"" height=\""100\"" style=\""position: fixed;left:39%;top:47%\""><img src=\""square.png\"" width=\""100\"" height=\""100\"" style=\""position: fixed;left:54%;top:47%\""><img src=\""square.png\"" width=\""100\"" height=\""100\"" style=\""position: fixed;left:46.5%;top:32%\""><img src=\""square.png\"" width=\""100\"" height=\""100\"" style=\""position: fixed;left:46.5%;top:61%\""><div style=\""font-size:60px; text-align: center;margin-top:45.5%\"">+</div><div id=\""first\"" style=\""position: fixed;visibility: hidden;left:48%;top:34%\""><img src=\""same_diff_imgs/C14.gif\""></div><div id=\""delayed\"" style=\""position: fixed;visibility: hidden;left:48%;top:62%\""><img src=\""same_diff_imgs/C14.gif\""></div>""]","arrowup","","","","","","","","","","","","","","","","identical_image","same_diff_imgs/C14.gif","same_diff_imgs/C14.gif","no","same","","true","1","","","","","","","","","","","",""
"","","","","","html-keyboard-response","98","957612","0.0-12.0-2.8","A2AAFWAAS9C1QC","2022-05-26T23:31:39.990Z","phon_sim-same_different-task_switching-rhyme","","null",""," ","null","","","","","","","","","","","","","","","","","","","","","","","","","","","","","","","","","","",""
"","","","","","html-keyboard-response","99","957929","0.0-12.0-3.8","A2AAFWAAS9C1QC","2022-05-26T23:31:39.990Z","phon_sim-same_different-task_switching-rhyme","","null","same_different"," ","null","","","","","","","","","","","","","","","","","","","","","","","","","","","","","","","","","","",""
"","","","","","html-keyboard-response","100","958689","0.0-12.0-0.9","A2AAFWAAS9C1QC","2022-05-26T23:31:39.990Z","phon_sim-same_different-task_switching-rhyme","","null","same_different","<div style=""font-size:60px"">+</div>","null","","","","","","","","","","","","","","","","","","","","","","","","","","","","","","","","","","",""
"","","","","","html-keyboard-response","101","960202","0.0-12.0-1.9","A2AAFWAAS9C1QC","2022-05-26T23:31:39.990Z","phon_sim-same_different-task_switching-rhyme","","1510","same_different","[""<img src=\""square.png\"" width=\""100\"" height=\""100\"" style=\""position: fixed;left:39%;top:47%\""><img src=\""square.png\"" width=\""100\"" height=\""100\"" style=\""position: fixed;left:54%;top:47%\""><img src=\""square.png\"" width=\""100\"" height=\""100\"" style=\""position: fixed;left:46.5%;top:32%\""><img src=\""square.png\"" width=\""100\"" height=\""100\"" style=\""position: fixed;left:46.5%;top:61%\""><div style=\""font-size:60px;text-align: center;margin-top:45.5%\"">+</div><div id=\""first\"" style=\""position: fixed;visibility: hidden;left:48%;top:34%\""><img src=\""same_diff_imgs/D07.gif\"" style=\""-webkit-transform: scaleX(-1);transform: scaleX(-1);\""></div><div id=\""delayed\"" style=\""position: fixed;visibility: hidden;left:55%;top:49%\""><img src=\""same_diff_imgs/C04.gif\"" style=\""-webkit-transform: scaleX(-1);transform: scaleX(-1);\""></div>""]","arrowdown","","","","","","","","","","","","","","","","identical_image","same_diff_imgs/D07.gif","same_diff_imgs/C04.gif","yes","different","1","true","","","","","","","","","","","","",""
"","","","","","html-keyboard-response","102","960206","0.0-12.0-2.9","A2AAFWAAS9C1QC","2022-05-26T23:31:39.990Z","phon_sim-same_different-task_switching-rhyme","","null",""," ","null","","","","","","","","","","","","","","","","","","","","","","","","","","","","","","","","","","",""
"","","","","","html-keyboard-response","103","960510","0.0-12.0-3.9","A2AAFWAAS9C1QC","2022-05-26T23:31:39.990Z","phon_sim-same_different-task_switching-rhyme","","null","same_different"," ","null","","","","","","","","","","","","","","","","","","","","","","","","","","","","","","","","","","",""
"","","","","","html-keyboard-response","104","961272","0.0-12.0-0.10","A2AAFWAAS9C1QC","2022-05-26T23:31:39.990Z","phon_sim-same_different-task_switching-rhyme","","null","same_different","<div style=""font-size:60px"">+</div>","null","","","","","","","","","","","","","","","","","","","","","","","","","","","","","","","","","","",""
"","","","","","html-keyboard-response","105","962760","0.0-12.0-1.10","A2AAFWAAS9C1QC","2022-05-26T23:31:39.990Z","phon_sim-same_different-task_switching-rhyme","","1486","same_different","[""<img src=\""square.png\"" width=\""100\"" height=\""100\"" style=\""position: fixed;left:39%;top:47%\""><img src=\""square.png\"" width=\""100\"" height=\""100\"" style=\""position: fixed;left:54%;top:47%\""><img src=\""square.png\"" width=\""100\"" height=\""100\"" style=\""position: fixed;left:46.5%;top:32%\""><img src=\""square.png\"" width=\""100\"" height=\""100\"" style=\""position: fixed;left:46.5%;top:61%\""><div style=\""font-size:60px; text-align: center;margin-top:45.5%\"">+</div><div id=\""first\"" style=\""position: fixed;visibility: hidden;left:40%;top:48%\""><img src=\""same_diff_imgs/D09.gif\""></div><div id=\""delayed\"" style=\""position: fixed;visibility: hidden;left:55%;top:49%\""><img src=\""same_diff_imgs/D09.gif\""></div>""]","arrowup","","","","","","","","","","","","","","","","identical_image","same_diff_imgs/D09.gif","same_diff_imgs/D09.gif","no","same","","true","1","","","","","","","","","","","",""
"","","","","","html-keyboard-response","106","962764","0.0-12.0-2.10","A2AAFWAAS9C1QC","2022-05-26T23:31:39.990Z","phon_sim-same_different-task_switching-rhyme","","null",""," ","null","","","","","","","","","","","","","","","","","","","","","","","","","","","","","","","","","","",""
"","","","","","html-keyboard-response","107","963070","0.0-12.0-3.10","A2AAFWAAS9C1QC","2022-05-26T23:31:39.990Z","phon_sim-same_different-task_switching-rhyme","","null","same_different"," ","null","","","","","","","","","","","","","","","","","","","","","","","","","","","","","","","","","","",""
"","","","","","html-keyboard-response","108","963829","0.0-12.0-0.11","A2AAFWAAS9C1QC","2022-05-26T23:31:39.990Z","phon_sim-same_different-task_switching-rhyme","","null","same_different","<div style=""font-size:60px"">+</div>","null","","","","","","","","","","","","","","","","","","","","","","","","","","","","","","","","","","",""
"","","","","","html-keyboard-response","109","965402","0.0-12.0-1.11","A2AAFWAAS9C1QC","2022-05-26T23:31:39.990Z","phon_sim-same_different-task_switching-rhyme","","1570","same_different","[""<img src=\""square.png\"" width=\""100\"" height=\""100\"" style=\""position: fixed;left:39%;top:47%\""><img src=\""square.png\"" width=\""100\"" height=\""100\"" style=\""position: fixed;left:54%;top:47%\""><img src=\""square.png\"" width=\""100\"" height=\""100\"" style=\""position: fixed;left:46.5%;top:32%\""><img src=\""square.png\"" width=\""100\"" height=\""100\"" style=\""position: fixed;left:46.5%;top:61%\""><div style=\""font-size:60px; text-align: center;margin-top:45.5%\"">+</div><div id=\""first\"" style=\""position: fixed;visibility: hidden;left:55%;top:49%\""><img src=\""same_diff_imgs/C14.gif\""></div><div id=\""delayed\"" style=\""position: fixed;visibility: hidden;left:48%;top:34%\""><img src=\""same_diff_imgs/C14.gif\""></div>""]","arrowup","","","","","","","","","","","","","","","","identical_image","same_diff_imgs/C14.gif","same_diff_imgs/C14.gif","no","same","","true","1","","","","","","","","","","","",""
"","","","","","html-keyboard-response","110","965406","0.0-12.0-2.11","A2AAFWAAS9C1QC","2022-05-26T23:31:39.990Z","phon_sim-same_different-task_switching-rhyme","","null",""," ","null","","","","","","","","","","","","","","","","","","","","","","","","","","","","","","","","","","",""
"","","","","","html-keyboard-response","111","965709","0.0-12.0-3.11","A2AAFWAAS9C1QC","2022-05-26T23:31:39.990Z","phon_sim-same_different-task_switching-rhyme","","null","same_different"," ","null","","","","","","","","","","","","","","","","","","","","","","","","","","","","","","","","","","",""
"","","","","","html-keyboard-response","112","966470","0.0-12.0-0.12","A2AAFWAAS9C1QC","2022-05-26T23:31:39.990Z","phon_sim-same_different-task_switching-rhyme","","null","same_different","<div style=""font-size:60px"">+</div>","null","","","","","","","","","","","","","","","","","","","","","","","","","","","","","","","","","","",""
"","","","","","html-keyboard-response","113","968088","0.0-12.0-1.12","A2AAFWAAS9C1QC","2022-05-26T23:31:39.990Z","phon_sim-same_different-task_switching-rhyme","","1618","same_different","[""<img src=\""square.png\"" width=\""100\"" height=\""100\"" style=\""position: fixed;left:39%;top:47%\""><img src=\""square.png\"" width=\""100\"" height=\""100\"" style=\""position: fixed;left:54%;top:47%\""><img src=\""square.png\"" width=\""100\"" height=\""100\"" style=\""position: fixed;left:46.5%;top:32%\""><img src=\""square.png\"" width=\""100\"" height=\""100\"" style=\""position: fixed;left:46.5%;top:61%\""><div style=\""font-size:60px; text-align: center;margin-top:45.5%\"">+</div><div id=\""first\"" style=\""position: fixed;visibility: hidden;left:48%;top:62%\""><img src=\""same_diff_imgs/D09.gif\""></div><div id=\""delayed\"" style=\""position: fixed;visibility: hidden;left:55%;top:49%\""><img src=\""same_diff_imgs/D09.gif\""></div>""]","arrowup","","","","","","","","","","","","","","","","identical_image","same_diff_imgs/D09.gif","same_diff_imgs/D09.gif","no","same","","true","1","","","","","","","","","","","",""
"","","","","","html-keyboard-response","114","968091","0.0-12.0-2.12","A2AAFWAAS9C1QC","2022-05-26T23:31:39.990Z","phon_sim-same_different-task_switching-rhyme","","null",""," ","null","","","","","","","","","","","","","","","","","","","","","","","","","","","","","","","","","","",""
"","","","","","html-keyboard-response","115","968398","0.0-12.0-3.12","A2AAFWAAS9C1QC","2022-05-26T23:31:39.990Z","phon_sim-same_different-task_switching-rhyme","","null","same_different"," ","null","","","","","","","","","","","","","","","","","","","","","","","","","","","","","","","","","","",""
"","","","","","html-keyboard-response","116","969158","0.0-12.0-0.13","A2AAFWAAS9C1QC","2022-05-26T23:31:39.990Z","phon_sim-same_different-task_switching-rhyme","","null","same_different","<div style=""font-size:60px"">+</div>","null","","","","","","","","","","","","","","","","","","","","","","","","","","","","","","","","","","",""
"","","","","","html-keyboard-response","117","970569","0.0-12.0-1.13","A2AAFWAAS9C1QC","2022-05-26T23:31:39.990Z","phon_sim-same_different-task_switching-rhyme","","1408","same_different","[""<img src=\""square.png\"" width=\""100\"" height=\""100\"" style=\""position: fixed;left:39%;top:47%\""><img src=\""square.png\"" width=\""100\"" height=\""100\"" style=\""position: fixed;left:54%;top:47%\""><img src=\""square.png\"" width=\""100\"" height=\""100\"" style=\""position: fixed;left:46.5%;top:32%\""><img src=\""square.png\"" width=\""100\"" height=\""100\"" style=\""position: fixed;left:46.5%;top:61%\""><div style=\""font-size:60px;text-align: center;margin-top:45.5%\"">+</div><div id=\""first\"" style=\""position: fixed;visibility: hidden;left:48%;top:62%\""><img src=\""same_diff_imgs/D07.gif\"" style=\""-webkit-transform: scaleX(-1);transform: scaleX(-1);\""></div><div id=\""delayed\"" style=\""position: fixed;visibility: hidden;left:48%;top:34%\""><img src=\""same_diff_imgs/C09.gif\"" style=\""-webkit-transform: scaleX(-1);transform: scaleX(-1);\""></div>""]","arrowup","","","","","","","","","","","","","","","","identical_image","same_diff_imgs/D07.gif","same_diff_imgs/C09.gif","yes","different","","false","","1","","","","","","","","","","",""
"","","","","","html-keyboard-response","118","971079","0.0-12.0-2.13","A2AAFWAAS9C1QC","2022-05-26T23:31:39.990Z","phon_sim-same_different-task_switching-rhyme","","null","","<div style=""color:darkred; font-size:40px"">Incorrect!</div>","null","","","","","","","","","","","","","","","","","","","","","","","","","","","","","","","","","","",""
"","","","","","html-keyboard-response","119","971394","0.0-12.0-3.13","A2AAFWAAS9C1QC","2022-05-26T23:31:39.990Z","phon_sim-same_different-task_switching-rhyme","","null","same_different"," ","null","","","","","","","","","","","","","","","","","","","","","","","","","","","","","","","","","","",""
"","","","","","html-keyboard-response","120","972159","0.0-12.0-0.14","A2AAFWAAS9C1QC","2022-05-26T23:31:39.990Z","phon_sim-same_different-task_switching-rhyme","","null","same_different","<div style=""font-size:60px"">+</div>","null","","","","","","","","","","","","","","","","","","","","","","","","","","","","","","","","","","",""
"","","","","","html-keyboard-response","121","973817","0.0-12.0-1.14","A2AAFWAAS9C1QC","2022-05-26T23:31:39.990Z","phon_sim-same_different-task_switching-rhyme","","1654","same_different","[""<img src=\""square.png\"" width=\""100\"" height=\""100\"" style=\""position: fixed;left:39%;top:47%\""><img src=\""square.png\"" width=\""100\"" height=\""100\"" style=\""position: fixed;left:54%;top:47%\""><img src=\""square.png\"" width=\""100\"" height=\""100\"" style=\""position: fixed;left:46.5%;top:32%\""><img src=\""square.png\"" width=\""100\"" height=\""100\"" style=\""position: fixed;left:46.5%;top:61%\""><div style=\""font-size:60px; text-align: center;margin-top:45.5%\"">+</div><div id=\""first\"" style=\""position: fixed;visibility: hidden;left:55%;top:49%\""><img src=\""same_diff_imgs/C04.gif\""></div><div id=\""delayed\"" style=\""position: fixed;visibility: hidden;left:48%;top:34%\""><img src=\""same_diff_imgs/C04.gif\""></div>""]","arrowup","","","","","","","","","","","","","","","","identical_image","same_diff_imgs/C04.gif","same_diff_imgs/C04.gif","no","same","","true","1","","","","","","","","","","","",""
"","","","","","html-keyboard-response","122","973820","0.0-12.0-2.14","A2AAFWAAS9C1QC","2022-05-26T23:31:39.990Z","phon_sim-same_different-task_switching-rhyme","","null",""," ","null","","","","","","","","","","","","","","","","","","","","","","","","","","","","","","","","","","",""
"","","","","","html-keyboard-response","123","974138","0.0-12.0-3.14","A2AAFWAAS9C1QC","2022-05-26T23:31:39.990Z","phon_sim-same_different-task_switching-rhyme","","null","same_different"," ","null","","","","","","","","","","","","","","","","","","","","","","","","","","","","","","","","","","",""
"","","","","","html-keyboard-response","124","974900","0.0-12.0-0.15","A2AAFWAAS9C1QC","2022-05-26T23:31:39.990Z","phon_sim-same_different-task_switching-rhyme","","null","same_different","<div style=""font-size:60px"">+</div>","null","","","","","","","","","","","","","","","","","","","","","","","","","","","","","","","","","","",""
"","","","","","html-keyboard-response","125","976535","0.0-12.0-1.15","A2AAFWAAS9C1QC","2022-05-26T23:31:39.990Z","phon_sim-same_different-task_switching-rhyme","","1634","same_different","[""<img src=\""square.png\"" width=\""100\"" height=\""100\"" style=\""position: fixed;left:39%;top:47%\""><img src=\""square.png\"" width=\""100\"" height=\""100\"" style=\""position: fixed;left:54%;top:47%\""><img src=\""square.png\"" width=\""100\"" height=\""100\"" style=\""position: fixed;left:46.5%;top:32%\""><img src=\""square.png\"" width=\""100\"" height=\""100\"" style=\""position: fixed;left:46.5%;top:61%\""><div style=\""font-size:60px;text-align: center;margin-top:45.5%\"">+</div><div id=\""first\"" style=\""position: fixed;visibility: hidden;left:55%;top:49%\""><img src=\""same_diff_imgs/C04.gif\"" style=\""-webkit-transform: scaleX(-1);transform: scaleX(-1);\""></div><div id=\""delayed\"" style=\""position: fixed;visibility: hidden;left:40%;top:48%\""><img src=\""same_diff_imgs/D09.gif\"" style=\""-webkit-transform: scaleX(-1);transform: scaleX(-1);\""></div>""]","arrowdown","","","","","","","","","","","","","","","","identical_image","same_diff_imgs/C04.gif","same_diff_imgs/D09.gif","yes","different","1","true","","","","","","","","","","","","",""
"","","","","","html-keyboard-response","126","976539","0.0-12.0-2.15","A2AAFWAAS9C1QC","2022-05-26T23:31:39.990Z","phon_sim-same_different-task_switching-rhyme","","null",""," ","null","","","","","","","","","","","","","","","","","","","","","","","","","","","","","","","","","","",""
"","","","","","html-keyboard-response","127","976840","0.0-12.0-3.15","A2AAFWAAS9C1QC","2022-05-26T23:31:39.990Z","phon_sim-same_different-task_switching-rhyme","","null","same_different"," ","null","","","","","","","","","","","","","","","","","","","","","","","","","","","","","","","","","","",""
"","","","","","html-keyboard-response","128","977609","0.0-12.0-0.16","A2AAFWAAS9C1QC","2022-05-26T23:31:39.990Z","phon_sim-same_different-task_switching-rhyme","","null","same_different","<div style=""font-size:60px"">+</div>","null","","","","","","","","","","","","","","","","","","","","","","","","","","","","","","","","","","",""
"","","","","","html-keyboard-response","129","979336","0.0-12.0-1.16","A2AAFWAAS9C1QC","2022-05-26T23:31:39.990Z","phon_sim-same_different-task_switching-rhyme","","1724","same_different","[""<img src=\""square.png\"" width=\""100\"" height=\""100\"" style=\""position: fixed;left:39%;top:47%\""><img src=\""square.png\"" width=\""100\"" height=\""100\"" style=\""position: fixed;left:54%;top:47%\""><img src=\""square.png\"" width=\""100\"" height=\""100\"" style=\""position: fixed;left:46.5%;top:32%\""><img src=\""square.png\"" width=\""100\"" height=\""100\"" style=\""position: fixed;left:46.5%;top:61%\""><div style=\""font-size:60px; text-align: center;margin-top:45.5%\"">+</div><div id=\""first\"" style=\""position: fixed;visibility: hidden;left:55%;top:49%\""><img src=\""same_diff_imgs/C04.gif\""></div><div id=\""delayed\"" style=\""position: fixed;visibility: hidden;left:48%;top:34%\""><img src=\""same_diff_imgs/C04.gif\""></div>""]","arrowup","","","","","","","","","","","","","","","","identical_image","same_diff_imgs/C04.gif","same_diff_imgs/C04.gif","no","same","","true","1","","","","","","","","","","","",""
"","","","","","html-keyboard-response","130","979339","0.0-12.0-2.16","A2AAFWAAS9C1QC","2022-05-26T23:31:39.990Z","phon_sim-same_different-task_switching-rhyme","","null",""," ","null","","","","","","","","","","","","","","","","","","","","","","","","","","","","","","","","","","",""
"","","","","","html-keyboard-response","131","979648","0.0-12.0-3.16","A2AAFWAAS9C1QC","2022-05-26T23:31:39.990Z","phon_sim-same_different-task_switching-rhyme","","null","same_different"," ","null","","","","","","","","","","","","","","","","","","","","","","","","","","","","","","","","","","",""
"","","","","","html-keyboard-response","132","980408","0.0-12.0-0.17","A2AAFWAAS9C1QC","2022-05-26T23:31:39.990Z","phon_sim-same_different-task_switching-rhyme","","null","same_different","<div style=""font-size:60px"">+</div>","null","","","","","","","","","","","","","","","","","","","","","","","","","","","","","","","","","","",""
"","","","","","html-keyboard-response","133","982330","0.0-12.0-1.17","A2AAFWAAS9C1QC","2022-05-26T23:31:39.990Z","phon_sim-same_different-task_switching-rhyme","","1917","same_different","[""<img src=\""square.png\"" width=\""100\"" height=\""100\"" style=\""position: fixed;left:39%;top:47%\""><img src=\""square.png\"" width=\""100\"" height=\""100\"" style=\""position: fixed;left:54%;top:47%\""><img src=\""square.png\"" width=\""100\"" height=\""100\"" style=\""position: fixed;left:46.5%;top:32%\""><img src=\""square.png\"" width=\""100\"" height=\""100\"" style=\""position: fixed;left:46.5%;top:61%\""><div style=\""font-size:60px; text-align: center;margin-top:45.5%\"">+</div><div id=\""first\"" style=\""position: fixed;visibility: hidden;left:40%;top:48%\""><img src=\""same_diff_imgs/D11.gif\""></div><div id=\""delayed\"" style=\""position: fixed;visibility: hidden;left:48%;top:62%\""><img src=\""same_diff_imgs/D09.gif\""></div>""]","arrowdown","","","","","","","","","","","","","","","","identical_image","same_diff_imgs/D11.gif","same_diff_imgs/D09.gif","no","different","1","true","","","","","","","","","","","","",""
"","","","","","html-keyboard-response","134","982334","0.0-12.0-2.17","A2AAFWAAS9C1QC","2022-05-26T23:31:39.990Z","phon_sim-same_different-task_switching-rhyme","","null",""," ","null","","","","","","","","","","","","","","","","","","","","","","","","","","","","","","","","","","",""
"","","","","","html-keyboard-response","135","982649","0.0-12.0-3.17","A2AAFWAAS9C1QC","2022-05-26T23:31:39.990Z","phon_sim-same_different-task_switching-rhyme","","null","same_different"," ","null","","","","","","","","","","","","","","","","","","","","","","","","","","","","","","","","","","",""
"","","","","","html-keyboard-response","136","983409","0.0-12.0-0.18","A2AAFWAAS9C1QC","2022-05-26T23:31:39.990Z","phon_sim-same_different-task_switching-rhyme","","null","same_different","<div style=""font-size:60px"">+</div>","null","","","","","","","","","","","","","","","","","","","","","","","","","","","","","","","","","","",""
"","","","","","html-keyboard-response","137","985049","0.0-12.0-1.18","A2AAFWAAS9C1QC","2022-05-26T23:31:39.990Z","phon_sim-same_different-task_switching-rhyme","","1637","same_different","[""<img src=\""square.png\"" width=\""100\"" height=\""100\"" style=\""position: fixed;left:39%;top:47%\""><img src=\""square.png\"" width=\""100\"" height=\""100\"" style=\""position: fixed;left:54%;top:47%\""><img src=\""square.png\"" width=\""100\"" height=\""100\"" style=\""position: fixed;left:46.5%;top:32%\""><img src=\""square.png\"" width=\""100\"" height=\""100\"" style=\""position: fixed;left:46.5%;top:61%\""><div style=\""font-size:60px; text-align: center;margin-top:45.5%\"">+</div><div id=\""first\"" style=\""position: fixed;visibility: hidden;left:48%;top:62%\""><img src=\""same_diff_imgs/C14.gif\""></div><div id=\""delayed\"" style=\""position: fixed;visibility: hidden;left:48%;top:34%\""><img src=\""same_diff_imgs/D07.gif\""></div>""]","arrowdown","","","","","","","","","","","","","","","","identical_image","same_diff_imgs/C14.gif","same_diff_imgs/D07.gif","no","different","1","true","","","","","","","","","","","","",""
"","","","","","html-keyboard-response","138","985053","0.0-12.0-2.18","A2AAFWAAS9C1QC","2022-05-26T23:31:39.990Z","phon_sim-same_different-task_switching-rhyme","","null",""," ","null","","","","","","","","","","","","","","","","","","","","","","","","","","","","","","","","","","",""
"","","","","","html-keyboard-response","139","985370","0.0-12.0-3.18","A2AAFWAAS9C1QC","2022-05-26T23:31:39.990Z","phon_sim-same_different-task_switching-rhyme","","null","same_different"," ","null","","","","","","","","","","","","","","","","","","","","","","","","","","","","","","","","","","",""
"","","","","","html-keyboard-response","140","986134","0.0-12.0-0.19","A2AAFWAAS9C1QC","2022-05-26T23:31:39.990Z","phon_sim-same_different-task_switching-rhyme","","null","same_different","<div style=""font-size:60px"">+</div>","null","","","","","","","","","","","","","","","","","","","","","","","","","","","","","","","","","","",""
"","","","","","html-keyboard-response","141","987640","0.0-12.0-1.19","A2AAFWAAS9C1QC","2022-05-26T23:31:39.990Z","phon_sim-same_different-task_switching-rhyme","","1504","same_different","[""<img src=\""square.png\"" width=\""100\"" height=\""100\"" style=\""position: fixed;left:39%;top:47%\""><img src=\""square.png\"" width=\""100\"" height=\""100\"" style=\""position: fixed;left:54%;top:47%\""><img src=\""square.png\"" width=\""100\"" height=\""100\"" style=\""position: fixed;left:46.5%;top:32%\""><img src=\""square.png\"" width=\""100\"" height=\""100\"" style=\""position: fixed;left:46.5%;top:61%\""><div style=\""font-size:60px;text-align: center;margin-top:45.5%\"">+</div><div id=\""first\"" style=\""position: fixed;visibility: hidden;left:48%;top:62%\""><img src=\""same_diff_imgs/C04.gif\"" style=\""-webkit-transform: scaleX(-1);transform: scaleX(-1);\""></div><div id=\""delayed\"" style=\""position: fixed;visibility: hidden;left:48%;top:34%\""><img src=\""same_diff_imgs/D07.gif\"" style=\""-webkit-transform: scaleX(-1);transform: scaleX(-1);\""></div>""]","arrowdown","","","","","","","","","","","","","","","","identical_image","same_diff_imgs/C04.gif","same_diff_imgs/D07.gif","yes","different","1","true","","","","","","","","","","","","",""
"","","","","","html-keyboard-response","142","987643","0.0-12.0-2.19","A2AAFWAAS9C1QC","2022-05-26T23:31:39.990Z","phon_sim-same_different-task_switching-rhyme","","null",""," ","null","","","","","","","","","","","","","","","","","","","","","","","","","","","","","","","","","","",""
"","","","","","html-keyboard-response","143","987959","0.0-12.0-3.19","A2AAFWAAS9C1QC","2022-05-26T23:31:39.990Z","phon_sim-same_different-task_switching-rhyme","","null","same_different"," ","null","","","","","","","","","","","","","","","","","","","","","","","","","","","","","","","","","","",""
"","","","","","html-keyboard-response","144","988718","0.0-12.0-0.20","A2AAFWAAS9C1QC","2022-05-26T23:31:39.990Z","phon_sim-same_different-task_switching-rhyme","","null","same_different","<div style=""font-size:60px"">+</div>","null","","","","","","","","","","","","","","","","","","","","","","","","","","","","","","","","","","",""
"","","","","","html-keyboard-response","145","990265","0.0-12.0-1.20","A2AAFWAAS9C1QC","2022-05-26T23:31:39.990Z","phon_sim-same_different-task_switching-rhyme","","1544","same_different","[""<img src=\""square.png\"" width=\""100\"" height=\""100\"" style=\""position: fixed;left:39%;top:47%\""><img src=\""square.png\"" width=\""100\"" height=\""100\"" style=\""position: fixed;left:54%;top:47%\""><img src=\""square.png\"" width=\""100\"" height=\""100\"" style=\""position: fixed;left:46.5%;top:32%\""><img src=\""square.png\"" width=\""100\"" height=\""100\"" style=\""position: fixed;left:46.5%;top:61%\""><div style=\""font-size:60px; text-align: center;margin-top:45.5%\"">+</div><div id=\""first\"" style=\""position: fixed;visibility: hidden;left:55%;top:49%\""><img src=\""same_diff_imgs/C04.gif\""></div><div id=\""delayed\"" style=\""position: fixed;visibility: hidden;left:40%;top:48%\""><img src=\""same_diff_imgs/C04.gif\""></div>""]","arrowup","","","","","","","","","","","","","","","","identical_image","same_diff_imgs/C04.gif","same_diff_imgs/C04.gif","no","same","","true","1","","","","","","","","","","","",""
"","","","","","html-keyboard-response","146","990269","0.0-12.0-2.20","A2AAFWAAS9C1QC","2022-05-26T23:31:39.990Z","phon_sim-same_different-task_switching-rhyme","","null",""," ","null","","","","","","","","","","","","","","","","","","","","","","","","","","","","","","","","","","",""
"","","","","","html-keyboard-response","147","990579","0.0-12.0-3.20","A2AAFWAAS9C1QC","2022-05-26T23:31:39.990Z","phon_sim-same_different-task_switching-rhyme","","null","same_different"," ","null","","","","","","","","","","","","","","","","","","","","","","","","","","","","","","","","","","",""
"","","","","","html-keyboard-response","148","991339","0.0-12.0-0.21","A2AAFWAAS9C1QC","2022-05-26T23:31:39.990Z","phon_sim-same_different-task_switching-rhyme","","null","same_different","<div style=""font-size:60px"">+</div>","null","","","","","","","","","","","","","","","","","","","","","","","","","","","","","","","","","","",""
"","","","","","html-keyboard-response","149","992711","0.0-12.0-1.21","A2AAFWAAS9C1QC","2022-05-26T23:31:39.990Z","phon_sim-same_different-task_switching-rhyme","","1369","same_different","[""<img src=\""square.png\"" width=\""100\"" height=\""100\"" style=\""position: fixed;left:39%;top:47%\""><img src=\""square.png\"" width=\""100\"" height=\""100\"" style=\""position: fixed;left:54%;top:47%\""><img src=\""square.png\"" width=\""100\"" height=\""100\"" style=\""position: fixed;left:46.5%;top:32%\""><img src=\""square.png\"" width=\""100\"" height=\""100\"" style=\""position: fixed;left:46.5%;top:61%\""><div style=\""font-size:60px; text-align: center;margin-top:45.5%\"">+</div><div id=\""first\"" style=\""position: fixed;visibility: hidden;left:55%;top:49%\""><img src=\""same_diff_imgs/C14.gif\""></div><div id=\""delayed\"" style=\""position: fixed;visibility: hidden;left:40%;top:48%\""><img src=\""same_diff_imgs/C14.gif\""></div>""]","arrowup","","","","","","","","","","","","","","","","identical_image","same_diff_imgs/C14.gif","same_diff_imgs/C14.gif","no","same","","true","1","","","","","","","","","","","",""
"","","","","","html-keyboard-response","150","992715","0.0-12.0-2.21","A2AAFWAAS9C1QC","2022-05-26T23:31:39.990Z","phon_sim-same_different-task_switching-rhyme","","null",""," ","null","","","","","","","","","","","","","","","","","","","","","","","","","","","","","","","","","","",""
"","","","","","html-keyboard-response","151","993029","0.0-12.0-3.21","A2AAFWAAS9C1QC","2022-05-26T23:31:39.990Z","phon_sim-same_different-task_switching-rhyme","","null","same_different"," ","null","","","","","","","","","","","","","","","","","","","","","","","","","","","","","","","","","","",""
"","","","","","html-keyboard-response","152","993782","0.0-12.0-0.22","A2AAFWAAS9C1QC","2022-05-26T23:31:39.990Z","phon_sim-same_different-task_switching-rhyme","","null","same_different","<div style=""font-size:60px"">+</div>","null","","","","","","","","","","","","","","","","","","","","","","","","","","","","","","","","","","",""
"","","","","","html-keyboard-response","153","995224","0.0-12.0-1.22","A2AAFWAAS9C1QC","2022-05-26T23:31:39.990Z","phon_sim-same_different-task_switching-rhyme","","1440","same_different","[""<img src=\""square.png\"" width=\""100\"" height=\""100\"" style=\""position: fixed;left:39%;top:47%\""><img src=\""square.png\"" width=\""100\"" height=\""100\"" style=\""position: fixed;left:54%;top:47%\""><img src=\""square.png\"" width=\""100\"" height=\""100\"" style=\""position: fixed;left:46.5%;top:32%\""><img src=\""square.png\"" width=\""100\"" height=\""100\"" style=\""position: fixed;left:46.5%;top:61%\""><div style=\""font-size:60px; text-align: center;margin-top:45.5%\"">+</div><div id=\""first\"" style=\""position: fixed;visibility: hidden;left:40%;top:48%\""><img src=\""same_diff_imgs/C14.gif\""></div><div id=\""delayed\"" style=\""position: fixed;visibility: hidden;left:48%;top:34%\""><img src=\""same_diff_imgs/C14.gif\""></div>""]","arrowup","","","","","","","","","","","","","","","","identical_image","same_diff_imgs/C14.gif","same_diff_imgs/C14.gif","no","same","","true","1","","","","","","","","","","","",""
"","","","","","html-keyboard-response","154","995227","0.0-12.0-2.22","A2AAFWAAS9C1QC","2022-05-26T23:31:39.990Z","phon_sim-same_different-task_switching-rhyme","","null",""," ","null","","","","","","","","","","","","","","","","","","","","","","","","","","","","","","","","","","",""
"","","","","","html-keyboard-response","155","995539","0.0-12.0-3.22","A2AAFWAAS9C1QC","2022-05-26T23:31:39.990Z","phon_sim-same_different-task_switching-rhyme","","null","same_different"," ","null","","","","","","","","","","","","","","","","","","","","","","","","","","","","","","","","","","",""
"","","","","","html-keyboard-response","156","996308","0.0-12.0-0.23","A2AAFWAAS9C1QC","2022-05-26T23:31:39.990Z","phon_sim-same_different-task_switching-rhyme","","null","same_different","<div style=""font-size:60px"">+</div>","null","","","","","","","","","","","","","","","","","","","","","","","","","","","","","","","","","","",""
"","","","","","html-keyboard-response","157","997720","0.0-12.0-1.23","A2AAFWAAS9C1QC","2022-05-26T23:31:39.990Z","phon_sim-same_different-task_switching-rhyme","","1409","same_different","[""<img src=\""square.png\"" width=\""100\"" height=\""100\"" style=\""position: fixed;left:39%;top:47%\""><img src=\""square.png\"" width=\""100\"" height=\""100\"" style=\""position: fixed;left:54%;top:47%\""><img src=\""square.png\"" width=\""100\"" height=\""100\"" style=\""position: fixed;left:46.5%;top:32%\""><img src=\""square.png\"" width=\""100\"" height=\""100\"" style=\""position: fixed;left:46.5%;top:61%\""><div style=\""font-size:60px; text-align: center;margin-top:45.5%\"">+</div><div id=\""first\"" style=\""position: fixed;visibility: hidden;left:40%;top:48%\""><img src=\""same_diff_imgs/D11.gif\""></div><div id=\""delayed\"" style=\""position: fixed;visibility: hidden;left:48%;top:34%\""><img src=\""same_diff_imgs/D11.gif\""></div>""]","arrowup","","","","","","","","","","","","","","","","identical_image","same_diff_imgs/D11.gif","same_diff_imgs/D11.gif","no","same","","true","1","","","","","","","","","","","",""
"","","","","","html-keyboard-response","158","997723","0.0-12.0-2.23","A2AAFWAAS9C1QC","2022-05-26T23:31:39.990Z","phon_sim-same_different-task_switching-rhyme","","null",""," ","null","","","","","","","","","","","","","","","","","","","","","","","","","","","","","","","","","","",""
"","","","","","html-keyboard-response","159","998039","0.0-12.0-3.23","A2AAFWAAS9C1QC","2022-05-26T23:31:39.990Z","phon_sim-same_different-task_switching-rhyme","","null","same_different"," ","null","","","","","","","","","","","","","","","","","","","","","","","","","","","","","","","","","","",""
"","","","","","html-keyboard-response","160","998795","0.0-12.0-0.24","A2AAFWAAS9C1QC","2022-05-26T23:31:39.990Z","phon_sim-same_different-task_switching-rhyme","","null","same_different","<div style=""font-size:60px"">+</div>","null","","","","","","","","","","","","","","","","","","","","","","","","","","","","","","","","","","",""
"","","","","","html-keyboard-response","161","1000266","0.0-12.0-1.24","A2AAFWAAS9C1QC","2022-05-26T23:31:39.990Z","phon_sim-same_different-task_switching-rhyme","","1468","same_different","[""<img src=\""square.png\"" width=\""100\"" height=\""100\"" style=\""position: fixed;left:39%;top:47%\""><img src=\""square.png\"" width=\""100\"" height=\""100\"" style=\""position: fixed;left:54%;top:47%\""><img src=\""square.png\"" width=\""100\"" height=\""100\"" style=\""position: fixed;left:46.5%;top:32%\""><img src=\""square.png\"" width=\""100\"" height=\""100\"" style=\""position: fixed;left:46.5%;top:61%\""><div style=\""font-size:60px;text-align: center;margin-top:45.5%\"">+</div><div id=\""first\"" style=\""position: fixed;visibility: hidden;left:48%;top:62%\""><img src=\""same_diff_imgs/C04.gif\"" style=\""-webkit-transform: scaleX(-1);transform: scaleX(-1);\""></div><div id=\""delayed\"" style=\""position: fixed;visibility: hidden;left:48%;top:34%\""><img src=\""same_diff_imgs/D11.gif\"" style=\""-webkit-transform: scaleX(-1);transform: scaleX(-1);\""></div>""]","arrowdown","","","","","","","","","","","","","","","","identical_image","same_diff_imgs/C04.gif","same_diff_imgs/D11.gif","yes","different","1","true","","","","","","","","","","","","",""
"","","","","","html-keyboard-response","162","1000269","0.0-12.0-2.24","A2AAFWAAS9C1QC","2022-05-26T23:31:39.990Z","phon_sim-same_different-task_switching-rhyme","","null",""," ","null","","","","","","","","","","","","","","","","","","","","","","","","","","","","","","","","","","",""
"","","","","","html-keyboard-response","163","1000589","0.0-12.0-3.24","A2AAFWAAS9C1QC","2022-05-26T23:31:39.990Z","phon_sim-same_different-task_switching-rhyme","","null","same_different"," ","null","","","","","","","","","","","","","","","","","","","","","","","","","","","","","","","","","","",""
"","","","","","html-keyboard-response","164","1001348","0.0-12.0-0.25","A2AAFWAAS9C1QC","2022-05-26T23:31:39.990Z","phon_sim-same_different-task_switching-rhyme","","null","same_different","<div style=""font-size:60px"">+</div>","null","","","","","","","","","","","","","","","","","","","","","","","","","","","","","","","","","","",""
"","","","","","html-keyboard-response","165","1002871","0.0-12.0-1.25","A2AAFWAAS9C1QC","2022-05-26T23:31:39.990Z","phon_sim-same_different-task_switching-rhyme","","1521","same_different","[""<img src=\""square.png\"" width=\""100\"" height=\""100\"" style=\""position: fixed;left:39%;top:47%\""><img src=\""square.png\"" width=\""100\"" height=\""100\"" style=\""position: fixed;left:54%;top:47%\""><img src=\""square.png\"" width=\""100\"" height=\""100\"" style=\""position: fixed;left:46.5%;top:32%\""><img src=\""square.png\"" width=\""100\"" height=\""100\"" style=\""position: fixed;left:46.5%;top:61%\""><div style=\""font-size:60px; text-align: center;margin-top:45.5%\"">+</div><div id=\""first\"" style=\""position: fixed;visibility: hidden;left:48%;top:34%\""><img src=\""same_diff_imgs/D09.gif\""></div><div id=\""delayed\"" style=\""position: fixed;visibility: hidden;left:48%;top:62%\""><img src=\""same_diff_imgs/C04.gif\""></div>""]","arrowdown","","","","","","","","","","","","","","","","identical_image","same_diff_imgs/D09.gif","same_diff_imgs/C04.gif","no","different","1","true","","","","","","","","","","","","",""
"","","","","","html-keyboard-response","166","1002876","0.0-12.0-2.25","A2AAFWAAS9C1QC","2022-05-26T23:31:39.990Z","phon_sim-same_different-task_switching-rhyme","","null",""," ","null","","","","","","","","","","","","","","","","","","","","","","","","","","","","","","","","","","",""
"","","","","","html-keyboard-response","167","1003189","0.0-12.0-3.25","A2AAFWAAS9C1QC","2022-05-26T23:31:39.990Z","phon_sim-same_different-task_switching-rhyme","","null","same_different"," ","null","","","","","","","","","","","","","","","","","","","","","","","","","","","","","","","","","","",""
"","","","","","html-keyboard-response","168","1003949","0.0-12.0-0.26","A2AAFWAAS9C1QC","2022-05-26T23:31:39.990Z","phon_sim-same_different-task_switching-rhyme","","null","same_different","<div style=""font-size:60px"">+</div>","null","","","","","","","","","","","","","","","","","","","","","","","","","","","","","","","","","","",""
"","","","","","html-keyboard-response","169","1005450","0.0-12.0-1.26","A2AAFWAAS9C1QC","2022-05-26T23:31:39.990Z","phon_sim-same_different-task_switching-rhyme","","1498","same_different","[""<img src=\""square.png\"" width=\""100\"" height=\""100\"" style=\""position: fixed;left:39%;top:47%\""><img src=\""square.png\"" width=\""100\"" height=\""100\"" style=\""position: fixed;left:54%;top:47%\""><img src=\""square.png\"" width=\""100\"" height=\""100\"" style=\""position: fixed;left:46.5%;top:32%\""><img src=\""square.png\"" width=\""100\"" height=\""100\"" style=\""position: fixed;left:46.5%;top:61%\""><div style=\""font-size:60px; text-align: center;margin-top:45.5%\"">+</div><div id=\""first\"" style=\""position: fixed;visibility: hidden;left:48%;top:34%\""><img src=\""same_diff_imgs/C14.gif\""></div><div id=\""delayed\"" style=\""position: fixed;visibility: hidden;left:48%;top:62%\""><img src=\""same_diff_imgs/C09.gif\""></div>""]","arrowup","","","","","","","","","","","","","","","","identical_image","same_diff_imgs/C14.gif","same_diff_imgs/C09.gif","no","different","","false","","1","","","","","","","","","","",""
"","","","","","html-keyboard-response","170","1005959","0.0-12.0-2.26","A2AAFWAAS9C1QC","2022-05-26T23:31:39.990Z","phon_sim-same_different-task_switching-rhyme","","null","","<div style=""color:darkred; font-size:40px"">Incorrect!</div>","null","","","","","","","","","","","","","","","","","","","","","","","","","","","","","","","","","","",""
"","","","","","html-keyboard-response","171","1006279","0.0-12.0-3.26","A2AAFWAAS9C1QC","2022-05-26T23:31:39.990Z","phon_sim-same_different-task_switching-rhyme","","null","same_different"," ","null","","","","","","","","","","","","","","","","","","","","","","","","","","","","","","","","","","",""
"","","","","","html-keyboard-response","172","1007039","0.0-12.0-0.27","A2AAFWAAS9C1QC","2022-05-26T23:31:39.990Z","phon_sim-same_different-task_switching-rhyme","","null","same_different","<div style=""font-size:60px"">+</div>","null","","","","","","","","","","","","","","","","","","","","","","","","","","","","","","","","","","",""
"","","","","","html-keyboard-response","173","1008569","0.0-12.0-1.27","A2AAFWAAS9C1QC","2022-05-26T23:31:39.990Z","phon_sim-same_different-task_switching-rhyme","","1527","same_different","[""<img src=\""square.png\"" width=\""100\"" height=\""100\"" style=\""position: fixed;left:39%;top:47%\""><img src=\""square.png\"" width=\""100\"" height=\""100\"" style=\""position: fixed;left:54%;top:47%\""><img src=\""square.png\"" width=\""100\"" height=\""100\"" style=\""position: fixed;left:46.5%;top:32%\""><img src=\""square.png\"" width=\""100\"" height=\""100\"" style=\""position: fixed;left:46.5%;top:61%\""><div style=\""font-size:60px; text-align: center;margin-top:45.5%\"">+</div><div id=\""first\"" style=\""position: fixed;visibility: hidden;left:40%;top:48%\""><img src=\""same_diff_imgs/D09.gif\""></div><div id=\""delayed\"" style=\""position: fixed;visibility: hidden;left:48%;top:34%\""><img src=\""same_diff_imgs/D09.gif\""></div>""]","arrowup","","","","","","","","","","","","","","","","identical_image","same_diff_imgs/D09.gif","same_diff_imgs/D09.gif","no","same","","true","1","","","","","","","","","","","",""
"","","","","","html-keyboard-response","174","1008574","0.0-12.0-2.27","A2AAFWAAS9C1QC","2022-05-26T23:31:39.990Z","phon_sim-same_different-task_switching-rhyme","","null",""," ","null","","","","","","","","","","","","","","","","","","","","","","","","","","","","","","","","","","",""
"","","","","","html-keyboard-response","175","1008878","0.0-12.0-3.27","A2AAFWAAS9C1QC","2022-05-26T23:31:39.990Z","phon_sim-same_different-task_switching-rhyme","","null","same_different"," ","null","","","","","","","","","","","","","","","","","","","","","","","","","","","","","","","","","","",""
"","","","","","html-keyboard-response","176","1009640","0.0-12.0-0.28","A2AAFWAAS9C1QC","2022-05-26T23:31:39.990Z","phon_sim-same_different-task_switching-rhyme","","null","same_different","<div style=""font-size:60px"">+</div>","null","","","","","","","","","","","","","","","","","","","","","","","","","","","","","","","","","","",""
"","","","","","html-keyboard-response","177","1011047","0.0-12.0-1.28","A2AAFWAAS9C1QC","2022-05-26T23:31:39.990Z","phon_sim-same_different-task_switching-rhyme","","1405","same_different","[""<img src=\""square.png\"" width=\""100\"" height=\""100\"" style=\""position: fixed;left:39%;top:47%\""><img src=\""square.png\"" width=\""100\"" height=\""100\"" style=\""position: fixed;left:54%;top:47%\""><img src=\""square.png\"" width=\""100\"" height=\""100\"" style=\""position: fixed;left:46.5%;top:32%\""><img src=\""square.png\"" width=\""100\"" height=\""100\"" style=\""position: fixed;left:46.5%;top:61%\""><div style=\""font-size:60px; text-align: center;margin-top:45.5%\"">+</div><div id=\""first\"" style=\""position: fixed;visibility: hidden;left:48%;top:34%\""><img src=\""same_diff_imgs/D11.gif\""></div><div id=\""delayed\"" style=\""position: fixed;visibility: hidden;left:48%;top:62%\""><img src=\""same_diff_imgs/D11.gif\""></div>""]","arrowup","","","","","","","","","","","","","","","","identical_image","same_diff_imgs/D11.gif","same_diff_imgs/D11.gif","no","same","","true","1","","","","","","","","","","","",""
"","","","","","html-keyboard-response","178","1011051","0.0-12.0-2.28","A2AAFWAAS9C1QC","2022-05-26T23:31:39.990Z","phon_sim-same_different-task_switching-rhyme","","null",""," ","null","","","","","","","","","","","","","","","","","","","","","","","","","","","","","","","","","","",""
"","","","","","html-keyboard-response","179","1011359","0.0-12.0-3.28","A2AAFWAAS9C1QC","2022-05-26T23:31:39.990Z","phon_sim-same_different-task_switching-rhyme","","null","same_different"," ","null","","","","","","","","","","","","","","","","","","","","","","","","","","","","","","","","","","",""
"","","","","","html-keyboard-response","180","1012119","0.0-12.0-0.29","A2AAFWAAS9C1QC","2022-05-26T23:31:39.990Z","phon_sim-same_different-task_switching-rhyme","","null","same_different","<div style=""font-size:60px"">+</div>","null","","","","","","","","","","","","","","","","","","","","","","","","","","","","","","","","","","",""
"","","","","","html-keyboard-response","181","1013545","0.0-12.0-1.29","A2AAFWAAS9C1QC","2022-05-26T23:31:39.990Z","phon_sim-same_different-task_switching-rhyme","","1422","same_different","[""<img src=\""square.png\"" width=\""100\"" height=\""100\"" style=\""position: fixed;left:39%;top:47%\""><img src=\""square.png\"" width=\""100\"" height=\""100\"" style=\""position: fixed;left:54%;top:47%\""><img src=\""square.png\"" width=\""100\"" height=\""100\"" style=\""position: fixed;left:46.5%;top:32%\""><img src=\""square.png\"" width=\""100\"" height=\""100\"" style=\""position: fixed;left:46.5%;top:61%\""><div style=\""font-size:60px; text-align: center;margin-top:45.5%\"">+</div><div id=\""first\"" style=\""position: fixed;visibility: hidden;left:48%;top:62%\""><img src=\""same_diff_imgs/D07.gif\""></div><div id=\""delayed\"" style=\""position: fixed;visibility: hidden;left:40%;top:48%\""><img src=\""same_diff_imgs/D07.gif\""></div>""]","arrowup","","","","","","","","","","","","","","","","identical_image","same_diff_imgs/D07.gif","same_diff_imgs/D07.gif","no","same","","true","1","","","","","","","","","","","",""
"","","","","","html-keyboard-response","182","1013549","0.0-12.0-2.29","A2AAFWAAS9C1QC","2022-05-26T23:31:39.990Z","phon_sim-same_different-task_switching-rhyme","","null",""," ","null","","","","","","","","","","","","","","","","","","","","","","","","","","","","","","","","","","",""
"","","","","","html-keyboard-response","183","1013858","0.0-12.0-3.29","A2AAFWAAS9C1QC","2022-05-26T23:31:39.990Z","phon_sim-same_different-task_switching-rhyme","","null","same_different"," ","null","","","","","","","","","","","","","","","","","","","","","","","","","","","","","","","","","","",""
"","","","","","html-keyboard-response","184","1014618","0.0-12.0-0.30","A2AAFWAAS9C1QC","2022-05-26T23:31:39.990Z","phon_sim-same_different-task_switching-rhyme","","null","same_different","<div style=""font-size:60px"">+</div>","null","","","","","","","","","","","","","","","","","","","","","","","","","","","","","","","","","","",""
