"success","timeout","failed_images","failed_audio","failed_video","trial_type","trial_index","time_elapsed","internal_node_id","worker_id","start_time","experiment_order","view_history","rt","experiment","stimulus","response","wait_time","correct","phase","image_1","image_2","cor_key","type","question_order","talk_out_loud","strategy_free_ans","judgment_type","stim_1","stim_2","inverted","answer","true_pos","true_neg","condition","operation","trial_no","symbol_cue","color_cue","word_1","word_2","word_3","word_4","word_5","original_word_set","response_1","response_2","response_3","response_4","response_5"
"true","false","[]","[]","[]","preload","0","7521","0.0-0.0","AKR9067Q09RZS","2022-05-19T23:47:25.451Z","rhyme-same_different-task_switching-phon_sim","","","","","","","","","","","","","","","","","","","","","","","","","","","","","","","","","","","","","",""
"","","","","","instructions","1","112398","0.0-1.0","AKR9067Q09RZS","2022-05-19T23:47:25.451Z","rhyme-same_different-task_switching-phon_sim","[{""page_index"":0,""viewing_time"":104882}]","104884","","","","","","","","","","","","","","","","","","","","","","","","","","","","","","","","","","","",""
"true","","","","","fullscreen","2","122651","0.0-2.0","AKR9067Q09RZS","2022-05-19T23:47:25.451Z","rhyme-same_different-task_switching-phon_sim","","","","","","","","","","","","","","","","","","","","","","","","","","","","","","","","","","","","","",""
"","","","","","instructions","3","176108","0.0-3.0","AKR9067Q09RZS","2022-05-19T23:47:25.451Z","rhyme-same_different-task_switching-phon_sim","[{""page_index"":0,""viewing_time"":53459}]","53459","rhyme","","","","","","","","","","","","","","","","","","","","","","","","","","","","","","","","","","",""
"","","","","","html-keyboard-response","4","176365","0.0-4.0-0.0","AKR9067Q09RZS","2022-05-19T23:47:25.451Z","rhyme-same_different-task_switching-phon_sim","","null","rhyme","<div style=""font-size:60px;"">+</div>","null","250","","","","","","","","","","","","","","","","","","","","","","","","","","","","","","","",""
"","","","","","html-keyboard-response","5","176867","0.0-4.0-1.0","AKR9067Q09RZS","2022-05-19T23:47:25.451Z","rhyme-same_different-task_switching-phon_sim","","null","rhyme","<img src=""square.png"" width=""306"" height=""306"" style=""position: fixed;left:14%;top:30%""><img src=""square.png"" width=""306"" height=""306"" style=""position: fixed;left:64%;top:30%"">","null","","","","","","","","","","","","","","","","","","","","","","","","","","","","","","","","",""
"","","","","","categorize-html","6","180442","0.0-4.0-2.0","AKR9067Q09RZS","2022-05-19T23:47:25.451Z","rhyme-same_different-task_switching-phon_sim","","2567","rhyme","<div style=""border: 3px solid #000000; position: fixed;left:14%;top:30%""><img src=""visual/chess.png"" width=""300""></div><div style=""border: 3px solid #000000; position: fixed;left:64%;top:30%""><img src=""visual/suit.png"" width=""300""></div>","arrowdown","","true","training","visual/chess.png","visual/suit.png","ArrowDown","NA","","","","","","","","","","","","","","","","","","","","","","","","","",""
"","","","","","html-keyboard-response","7","180944","0.0-4.0-0.1","AKR9067Q09RZS","2022-05-19T23:47:25.451Z","rhyme-same_different-task_switching-phon_sim","","null","rhyme","<div style=""font-size:60px;"">+</div>","null","500","","","","","","","","","","","","","","","","","","","","","","","","","","","","","","","",""
"","","","","","html-keyboard-response","8","181446","0.0-4.0-1.1","AKR9067Q09RZS","2022-05-19T23:47:25.451Z","rhyme-same_different-task_switching-phon_sim","","null","rhyme","<img src=""square.png"" width=""306"" height=""306"" style=""position: fixed;left:14%;top:30%""><img src=""square.png"" width=""306"" height=""306"" style=""position: fixed;left:64%;top:30%"">","null","","","","","","","","","","","","","","","","","","","","","","","","","","","","","","","","",""
"","","","","","categorize-html","9","184056","0.0-4.0-2.1","AKR9067Q09RZS","2022-05-19T23:47:25.451Z","rhyme-same_different-task_switching-phon_sim","","1607","rhyme","<div style=""border: 3px solid #000000; position: fixed;left:14%;top:30%""><img src=""visual/mouse.png"" width=""300""></div><div style=""border: 3px solid #000000; position: fixed;left:64%;top:30%""><img src=""visual/dress.png"" width=""300""></div>","arrowdown","","true","training","visual/mouse.png","visual/dress.png","ArrowDown","NA","","","","","","","","","","","","","","","","","","","","","","","","","",""
"","","","","","html-keyboard-response","10","184310","0.0-4.0-0.2","AKR9067Q09RZS","2022-05-19T23:47:25.451Z","rhyme-same_different-task_switching-phon_sim","","null","rhyme","<div style=""font-size:60px;"">+</div>","null","250","","","","","","","","","","","","","","","","","","","","","","","","","","","","","","","",""
"","","","","","html-keyboard-response","11","184813","0.0-4.0-1.2","AKR9067Q09RZS","2022-05-19T23:47:25.451Z","rhyme-same_different-task_switching-phon_sim","","null","rhyme","<img src=""square.png"" width=""306"" height=""306"" style=""position: fixed;left:14%;top:30%""><img src=""square.png"" width=""306"" height=""306"" style=""position: fixed;left:64%;top:30%"">","null","","","","","","","","","","","","","","","","","","","","","","","","","","","","","","","","",""
"","","","","","categorize-html","12","187201","0.0-4.0-2.2","AKR9067Q09RZS","2022-05-19T23:47:25.451Z","rhyme-same_different-task_switching-phon_sim","","1383","rhyme","<div style=""border: 3px solid #000000; position: fixed;left:14%;top:30%""><img src=""visual/house.png"" width=""300""></div><div style=""border: 3px solid #000000; position: fixed;left:64%;top:30%""><img src=""visual/mouse.png"" width=""300""></div>","arrowup","","true","training","visual/house.png","visual/mouse.png","ArrowUp","NA","","","","","","","","","","","","","","","","","","","","","","","","","",""
"","","","","","html-keyboard-response","13","187953","0.0-4.0-0.3","AKR9067Q09RZS","2022-05-19T23:47:25.451Z","rhyme-same_different-task_switching-phon_sim","","null","rhyme","<div style=""font-size:60px;"">+</div>","null","750","","","","","","","","","","","","","","","","","","","","","","","","","","","","","","","",""
"","","","","","html-keyboard-response","14","188456","0.0-4.0-1.3","AKR9067Q09RZS","2022-05-19T23:47:25.451Z","rhyme-same_different-task_switching-phon_sim","","null","rhyme","<img src=""square.png"" width=""306"" height=""306"" style=""position: fixed;left:14%;top:30%""><img src=""square.png"" width=""306"" height=""306"" style=""position: fixed;left:64%;top:30%"">","null","","","","","","","","","","","","","","","","","","","","","","","","","","","","","","","","",""
"","","","","","categorize-html","15","190864","0.0-4.0-2.3","AKR9067Q09RZS","2022-05-19T23:47:25.451Z","rhyme-same_different-task_switching-phon_sim","","1404","rhyme","<div style=""border: 3px solid #000000; position: fixed;left:14%;top:30%""><img src=""visual/dress.png"" width=""300""></div><div style=""border: 3px solid #000000; position: fixed;left:64%;top:30%""><img src=""visual/chess.png"" width=""300""></div>","arrowdown","","false","training","visual/dress.png","visual/chess.png","ArrowUp","NA","","","","","","","","","","","","","","","","","","","","","","","","","",""
"","","","","","instructions","16","198824","0.0-5.0","AKR9067Q09RZS","2022-05-19T23:47:25.451Z","rhyme-same_different-task_switching-phon_sim","[{""page_index"":0,""viewing_time"":7960}]","7960","","","","","","","","","","","","","","","","","","","","","","","","","","","","","","","","","","","",""
"","","","","","html-keyboard-response","17","199576","0.0-6.0-0.0","AKR9067Q09RZS","2022-05-19T23:47:25.451Z","rhyme-same_different-task_switching-phon_sim","","null","rhyme","<div style=""font-size:60px;"">+</div>","null","750","","","","","","","","","","","","","","","","","","","","","","","","","","","","","","","",""
"","","","","","html-keyboard-response","18","200078","0.0-6.0-1.0","AKR9067Q09RZS","2022-05-19T23:47:25.451Z","rhyme-same_different-task_switching-phon_sim","","null","rhyme","<img src=""square.png"" width=""306"" height=""306"" style=""position: fixed;left:14%;top:30%""><img src=""square.png"" width=""306"" height=""306"" style=""position: fixed;left:64%;top:30%"">","null","","","","","","","","","","","","","","","","","","","","","","","","","","","","","","","","",""
"","","","","","html-keyboard-response","19","201447","0.0-6.0-2.0","AKR9067Q09RZS","2022-05-19T23:47:25.451Z","rhyme-same_different-task_switching-phon_sim","","1365","rhyme","<div style=""border: 3px solid #000000; position: fixed;left:14%;top:30%""><img src=""visual/spoon.png"" width=""300""></div><div style=""border: 3px solid #000000; position: fixed;left:64%;top:30%""><img src=""visual/crab.png"" width=""300""></div>","arrowdown","","true","experiment","visual/spoon.png","visual/crab.png","ArrowDown","NR","","","","","","","","","","","","","","","","","","","","","","","","","",""
"","","","","","html-keyboard-response","20","201949","0.0-6.0-0.1","AKR9067Q09RZS","2022-05-19T23:47:25.451Z","rhyme-same_different-task_switching-phon_sim","","null","rhyme","<div style=""font-size:60px;"">+</div>","null","500","","","","","","","","","","","","","","","","","","","","","","","","","","","","","","","",""
"","","","","","html-keyboard-response","21","202452","0.0-6.0-1.1","AKR9067Q09RZS","2022-05-19T23:47:25.451Z","rhyme-same_different-task_switching-phon_sim","","null","rhyme","<img src=""square.png"" width=""306"" height=""306"" style=""position: fixed;left:14%;top:30%""><img src=""square.png"" width=""306"" height=""306"" style=""position: fixed;left:64%;top:30%"">","null","","","","","","","","","","","","","","","","","","","","","","","","","","","","","","","","",""
"","","","","","html-keyboard-response","22","205117","0.0-6.0-2.1","AKR9067Q09RZS","2022-05-19T23:47:25.451Z","rhyme-same_different-task_switching-phon_sim","","2661","rhyme","<div style=""border: 3px solid #000000; position: fixed;left:14%;top:30%""><img src=""visual/nail.png"" width=""300""></div><div style=""border: 3px solid #000000; position: fixed;left:64%;top:30%""><img src=""visual/whale.png"" width=""300""></div>","arrowup","","true","experiment","visual/nail.png","visual/whale.png","ArrowUp","non-ortho","","","","","","","","","","","","","","","","","","","","","","","","","",""
"","","","","","html-keyboard-response","23","205619","0.0-6.0-0.2","AKR9067Q09RZS","2022-05-19T23:47:25.451Z","rhyme-same_different-task_switching-phon_sim","","null","rhyme","<div style=""font-size:60px;"">+</div>","null","500","","","","","","","","","","","","","","","","","","","","","","","","","","","","","","","",""
"","","","","","html-keyboard-response","24","206122","0.0-6.0-1.2","AKR9067Q09RZS","2022-05-19T23:47:25.451Z","rhyme-same_different-task_switching-phon_sim","","null","rhyme","<img src=""square.png"" width=""306"" height=""306"" style=""position: fixed;left:14%;top:30%""><img src=""square.png"" width=""306"" height=""306"" style=""position: fixed;left:64%;top:30%"">","null","","","","","","","","","","","","","","","","","","","","","","","","","","","","","","","","",""
"","","","","","html-keyboard-response","25","208326","0.0-6.0-2.2","AKR9067Q09RZS","2022-05-19T23:47:25.451Z","rhyme-same_different-task_switching-phon_sim","","2202","rhyme","<div style=""border: 3px solid #000000; position: fixed;left:14%;top:30%""><img src=""visual/bear.png"" width=""300""></div><div style=""border: 3px solid #000000; position: fixed;left:64%;top:30%""><img src=""visual/square_rhyme.png"" width=""300""></div>","arrowup","","true","experiment","visual/bear.png","visual/square_rhyme.png","ArrowUp","non-ortho","","","","","","","","","","","","","","","","","","","","","","","","","",""
"","","","","","html-keyboard-response","26","208579","0.0-6.0-0.3","AKR9067Q09RZS","2022-05-19T23:47:25.451Z","rhyme-same_different-task_switching-phon_sim","","null","rhyme","<div style=""font-size:60px;"">+</div>","null","250","","","","","","","","","","","","","","","","","","","","","","","","","","","","","","","",""
"","","","","","html-keyboard-response","27","209081","0.0-6.0-1.3","AKR9067Q09RZS","2022-05-19T23:47:25.451Z","rhyme-same_different-task_switching-phon_sim","","null","rhyme","<img src=""square.png"" width=""306"" height=""306"" style=""position: fixed;left:14%;top:30%""><img src=""square.png"" width=""306"" height=""306"" style=""position: fixed;left:64%;top:30%"">","null","","","","","","","","","","","","","","","","","","","","","","","","","","","","","","","","",""
"","","","","","html-keyboard-response","28","212165","0.0-6.0-2.3","AKR9067Q09RZS","2022-05-19T23:47:25.451Z","rhyme-same_different-task_switching-phon_sim","","3082","rhyme","<div style=""border: 3px solid #000000; position: fixed;left:14%;top:30%""><img src=""visual/brain.png"" width=""300""></div><div style=""border: 3px solid #000000; position: fixed;left:64%;top:30%""><img src=""visual/clock.png"" width=""300""></div>","arrowdown","","true","experiment","visual/brain.png","visual/clock.png","ArrowDown","NR","","","","","","","","","","","","","","","","","","","","","","","","","",""
"","","","","","html-keyboard-response","29","212416","0.0-6.0-0.4","AKR9067Q09RZS","2022-05-19T23:47:25.451Z","rhyme-same_different-task_switching-phon_sim","","null","rhyme","<div style=""font-size:60px;"">+</div>","null","250","","","","","","","","","","","","","","","","","","","","","","","","","","","","","","","",""
"","","","","","html-keyboard-response","30","212918","0.0-6.0-1.4","AKR9067Q09RZS","2022-05-19T23:47:25.451Z","rhyme-same_different-task_switching-phon_sim","","null","rhyme","<img src=""square.png"" width=""306"" height=""306"" style=""position: fixed;left:14%;top:30%""><img src=""square.png"" width=""306"" height=""306"" style=""position: fixed;left:64%;top:30%"">","null","","","","","","","","","","","","","","","","","","","","","","","","","","","","","","","","",""
"","","","","","html-keyboard-response","31","215581","0.0-6.0-2.4","AKR9067Q09RZS","2022-05-19T23:47:25.451Z","rhyme-same_different-task_switching-phon_sim","","2662","rhyme","<div style=""border: 3px solid #000000; position: fixed;left:14%;top:30%""><img src=""visual/soap.png"" width=""300""></div><div style=""border: 3px solid #000000; position: fixed;left:64%;top:30%""><img src=""visual/shoe.png"" width=""300""></div>","arrowdown","","true","experiment","visual/soap.png","visual/shoe.png","ArrowDown","NR","","","","","","","","","","","","","","","","","","","","","","","","","",""
"","","","","","html-keyboard-response","32","216082","0.0-6.0-0.5","AKR9067Q09RZS","2022-05-19T23:47:25.451Z","rhyme-same_different-task_switching-phon_sim","","null","rhyme","<div style=""font-size:60px;"">+</div>","null","500","","","","","","","","","","","","","","","","","","","","","","","","","","","","","","","",""
"","","","","","html-keyboard-response","33","216583","0.0-6.0-1.5","AKR9067Q09RZS","2022-05-19T23:47:25.451Z","rhyme-same_different-task_switching-phon_sim","","null","rhyme","<img src=""square.png"" width=""306"" height=""306"" style=""position: fixed;left:14%;top:30%""><img src=""square.png"" width=""306"" height=""306"" style=""position: fixed;left:64%;top:30%"">","null","","","","","","","","","","","","","","","","","","","","","","","","","","","","","","","","",""
"","","","","","html-keyboard-response","34","217980","0.0-6.0-2.5","AKR9067Q09RZS","2022-05-19T23:47:25.451Z","rhyme-same_different-task_switching-phon_sim","","1395","rhyme","<div style=""border: 3px solid #000000; position: fixed;left:14%;top:30%""><img src=""visual/spoon.png"" width=""300""></div><div style=""border: 3px solid #000000; position: fixed;left:64%;top:30%""><img src=""visual/moon.png"" width=""300""></div>","arrowup","","true","experiment","visual/spoon.png","visual/moon.png","ArrowUp","ortho","","","","","","","","","","","","","","","","","","","","","","","","","",""
"","","","","","html-keyboard-response","35","218733","0.0-6.0-0.6","AKR9067Q09RZS","2022-05-19T23:47:25.451Z","rhyme-same_different-task_switching-phon_sim","","null","rhyme","<div style=""font-size:60px;"">+</div>","null","750","","","","","","","","","","","","","","","","","","","","","","","","","","","","","","","",""
"","","","","","html-keyboard-response","36","219236","0.0-6.0-1.6","AKR9067Q09RZS","2022-05-19T23:47:25.451Z","rhyme-same_different-task_switching-phon_sim","","null","rhyme","<img src=""square.png"" width=""306"" height=""306"" style=""position: fixed;left:14%;top:30%""><img src=""square.png"" width=""306"" height=""306"" style=""position: fixed;left:64%;top:30%"">","null","","","","","","","","","","","","","","","","","","","","","","","","","","","","","","","","",""
"","","","","","html-keyboard-response","37","221940","0.0-6.0-2.6","AKR9067Q09RZS","2022-05-19T23:47:25.451Z","rhyme-same_different-task_switching-phon_sim","","2702","rhyme","<div style=""border: 3px solid #000000; position: fixed;left:14%;top:30%""><img src=""visual/cat.png"" width=""300""></div><div style=""border: 3px solid #000000; position: fixed;left:64%;top:30%""><img src=""visual/sock.png"" width=""300""></div>","arrowdown","","true","experiment","visual/cat.png","visual/sock.png","ArrowDown","NR","","","","","","","","","","","","","","","","","","","","","","","","","",""
"","","","","","html-keyboard-response","38","222693","0.0-6.0-0.7","AKR9067Q09RZS","2022-05-19T23:47:25.451Z","rhyme-same_different-task_switching-phon_sim","","null","rhyme","<div style=""font-size:60px;"">+</div>","null","750","","","","","","","","","","","","","","","","","","","","","","","","","","","","","","","",""
"","","","","","html-keyboard-response","39","223195","0.0-6.0-1.7","AKR9067Q09RZS","2022-05-19T23:47:25.451Z","rhyme-same_different-task_switching-phon_sim","","null","rhyme","<img src=""square.png"" width=""306"" height=""306"" style=""position: fixed;left:14%;top:30%""><img src=""square.png"" width=""306"" height=""306"" style=""position: fixed;left:64%;top:30%"">","null","","","","","","","","","","","","","","","","","","","","","","","","","","","","","","","","",""
"","","","","","html-keyboard-response","40","226595","0.0-6.0-2.7","AKR9067Q09RZS","2022-05-19T23:47:25.451Z","rhyme-same_different-task_switching-phon_sim","","3399","rhyme","<div style=""border: 3px solid #000000; position: fixed;left:14%;top:30%""><img src=""visual/fan.png"" width=""300""></div><div style=""border: 3px solid #000000; position: fixed;left:64%;top:30%""><img src=""visual/man.png"" width=""300""></div>","arrowup","","true","experiment","visual/fan.png","visual/man.png","ArrowUp","ortho","","","","","","","","","","","","","","","","","","","","","","","","","",""
"","","","","","html-keyboard-response","41","227347","0.0-6.0-0.8","AKR9067Q09RZS","2022-05-19T23:47:25.451Z","rhyme-same_different-task_switching-phon_sim","","null","rhyme","<div style=""font-size:60px;"">+</div>","null","750","","","","","","","","","","","","","","","","","","","","","","","","","","","","","","","",""
"","","","","","html-keyboard-response","42","227849","0.0-6.0-1.8","AKR9067Q09RZS","2022-05-19T23:47:25.451Z","rhyme-same_different-task_switching-phon_sim","","null","rhyme","<img src=""square.png"" width=""306"" height=""306"" style=""position: fixed;left:14%;top:30%""><img src=""square.png"" width=""306"" height=""306"" style=""position: fixed;left:64%;top:30%"">","null","","","","","","","","","","","","","","","","","","","","","","","","","","","","","","","","",""
"","","","","","html-keyboard-response","43","232852","0.0-6.0-2.8","AKR9067Q09RZS","2022-05-19T23:47:25.451Z","rhyme-same_different-task_switching-phon_sim","","null","rhyme","<div style=""border: 3px solid #000000; position: fixed;left:14%;top:30%""><img src=""visual/drawer.png"" width=""300""></div><div style=""border: 3px solid #000000; position: fixed;left:64%;top:30%""><img src=""visual/chair.png"" width=""300""></div>","null","","false","experiment","visual/drawer.png","visual/chair.png","ArrowDown","NR","","","","","","","","","","","","","","","","","","","","","","","","","",""
"","","","","","html-keyboard-response","44","233355","0.0-6.0-0.9","AKR9067Q09RZS","2022-05-19T23:47:25.451Z","rhyme-same_different-task_switching-phon_sim","","null","rhyme","<div style=""font-size:60px;"">+</div>","null","500","","","","","","","","","","","","","","","","","","","","","","","","","","","","","","","",""
"","","","","","html-keyboard-response","45","233857","0.0-6.0-1.9","AKR9067Q09RZS","2022-05-19T23:47:25.451Z","rhyme-same_different-task_switching-phon_sim","","null","rhyme","<img src=""square.png"" width=""306"" height=""306"" style=""position: fixed;left:14%;top:30%""><img src=""square.png"" width=""306"" height=""306"" style=""position: fixed;left:64%;top:30%"">","null","","","","","","","","","","","","","","","","","","","","","","","","","","","","","","","","",""
"","","","","","html-keyboard-response","46","236499","0.0-6.0-2.9","AKR9067Q09RZS","2022-05-19T23:47:25.451Z","rhyme-same_different-task_switching-phon_sim","","2640","rhyme","<div style=""border: 3px solid #000000; position: fixed;left:14%;top:30%""><img src=""visual/tree.png"" width=""300""></div><div style=""border: 3px solid #000000; position: fixed;left:64%;top:30%""><img src=""visual/door.png"" width=""300""></div>","arrowdown","","true","experiment","visual/tree.png","visual/door.png","ArrowDown","NR","","","","","","","","","","","","","","","","","","","","","","","","","",""
"","","","","","html-keyboard-response","47","237001","0.0-6.0-0.10","AKR9067Q09RZS","2022-05-19T23:47:25.451Z","rhyme-same_different-task_switching-phon_sim","","null","rhyme","<div style=""font-size:60px;"">+</div>","null","500","","","","","","","","","","","","","","","","","","","","","","","","","","","","","","","",""
"","","","","","html-keyboard-response","48","237503","0.0-6.0-1.10","AKR9067Q09RZS","2022-05-19T23:47:25.451Z","rhyme-same_different-task_switching-phon_sim","","null","rhyme","<img src=""square.png"" width=""306"" height=""306"" style=""position: fixed;left:14%;top:30%""><img src=""square.png"" width=""306"" height=""306"" style=""position: fixed;left:64%;top:30%"">","null","","","","","","","","","","","","","","","","","","","","","","","","","","","","","","","","",""
"","","","","","html-keyboard-response","49","238924","0.0-6.0-2.10","AKR9067Q09RZS","2022-05-19T23:47:25.451Z","rhyme-same_different-task_switching-phon_sim","","1419","rhyme","<div style=""border: 3px solid #000000; position: fixed;left:14%;top:30%""><img src=""visual/chain.png"" width=""300""></div><div style=""border: 3px solid #000000; position: fixed;left:64%;top:30%""><img src=""visual/brain.png"" width=""300""></div>","arrowup","","true","experiment","visual/chain.png","visual/brain.png","ArrowUp","ortho","","","","","","","","","","","","","","","","","","","","","","","","","",""
"","","","","","html-keyboard-response","50","239424","0.0-6.0-0.11","AKR9067Q09RZS","2022-05-19T23:47:25.451Z","rhyme-same_different-task_switching-phon_sim","","null","rhyme","<div style=""font-size:60px;"">+</div>","null","500","","","","","","","","","","","","","","","","","","","","","","","","","","","","","","","",""
"","","","","","html-keyboard-response","51","239926","0.0-6.0-1.11","AKR9067Q09RZS","2022-05-19T23:47:25.451Z","rhyme-same_different-task_switching-phon_sim","","null","rhyme","<img src=""square.png"" width=""306"" height=""306"" style=""position: fixed;left:14%;top:30%""><img src=""square.png"" width=""306"" height=""306"" style=""position: fixed;left:64%;top:30%"">","null","","","","","","","","","","","","","","","","","","","","","","","","","","","","","","","","",""
"","","","","","html-keyboard-response","52","241594","0.0-6.0-2.11","AKR9067Q09RZS","2022-05-19T23:47:25.451Z","rhyme-same_different-task_switching-phon_sim","","1665","rhyme","<div style=""border: 3px solid #000000; position: fixed;left:14%;top:30%""><img src=""visual/sock.png"" width=""300""></div><div style=""border: 3px solid #000000; position: fixed;left:64%;top:30%""><img src=""visual/clock.png"" width=""300""></div>","arrowup","","true","experiment","visual/sock.png","visual/clock.png","ArrowUp","ortho","","","","","","","","","","","","","","","","","","","","","","","","","",""
"","","","","","html-keyboard-response","53","242596","0.0-6.0-0.12","AKR9067Q09RZS","2022-05-19T23:47:25.451Z","rhyme-same_different-task_switching-phon_sim","","null","rhyme","<div style=""font-size:60px;"">+</div>","null","1000","","","","","","","","","","","","","","","","","","","","","","","","","","","","","","","",""
"","","","","","html-keyboard-response","54","243098","0.0-6.0-1.12","AKR9067Q09RZS","2022-05-19T23:47:25.451Z","rhyme-same_different-task_switching-phon_sim","","null","rhyme","<img src=""square.png"" width=""306"" height=""306"" style=""position: fixed;left:14%;top:30%""><img src=""square.png"" width=""306"" height=""306"" style=""position: fixed;left:64%;top:30%"">","null","","","","","","","","","","","","","","","","","","","","","","","","","","","","","","","","",""
"","","","","","html-keyboard-response","55","245610","0.0-6.0-2.12","AKR9067Q09RZS","2022-05-19T23:47:25.451Z","rhyme-same_different-task_switching-phon_sim","","2510","rhyme","<div style=""border: 3px solid #000000; position: fixed;left:14%;top:30%""><img src=""visual/train.png"" width=""300""></div><div style=""border: 3px solid #000000; position: fixed;left:64%;top:30%""><img src=""visual/crane.png"" width=""300""></div>","arrowup","","true","experiment","visual/train.png","visual/crane.png","ArrowUp","non-ortho","","","","","","","","","","","","","","","","","","","","","","","","","",""
"","","","","","html-keyboard-response","56","246362","0.0-6.0-0.13","AKR9067Q09RZS","2022-05-19T23:47:25.451Z","rhyme-same_different-task_switching-phon_sim","","null","rhyme","<div style=""font-size:60px;"">+</div>","null","750","","","","","","","","","","","","","","","","","","","","","","","","","","","","","","","",""
"","","","","","html-keyboard-response","57","246863","0.0-6.0-1.13","AKR9067Q09RZS","2022-05-19T23:47:25.451Z","rhyme-same_different-task_switching-phon_sim","","null","rhyme","<img src=""square.png"" width=""306"" height=""306"" style=""position: fixed;left:14%;top:30%""><img src=""square.png"" width=""306"" height=""306"" style=""position: fixed;left:64%;top:30%"">","null","","","","","","","","","","","","","","","","","","","","","","","","","","","","","","","","",""
"","","","","","html-keyboard-response","58","249530","0.0-6.0-2.13","AKR9067Q09RZS","2022-05-19T23:47:25.451Z","rhyme-same_different-task_switching-phon_sim","","2664","rhyme","<div style=""border: 3px solid #000000; position: fixed;left:14%;top:30%""><img src=""visual/wave.png"" width=""300""></div><div style=""border: 3px solid #000000; position: fixed;left:64%;top:30%""><img src=""visual/cave.png"" width=""300""></div>","arrowdown","","false","experiment","visual/wave.png","visual/cave.png","ArrowUp","ortho","","","","","","","","","","","","","","","","","","","","","","","","","",""
"","","","","","html-keyboard-response","59","250530","0.0-6.0-0.14","AKR9067Q09RZS","2022-05-19T23:47:25.451Z","rhyme-same_different-task_switching-phon_sim","","null","rhyme","<div style=""font-size:60px;"">+</div>","null","1000","","","","","","","","","","","","","","","","","","","","","","","","","","","","","","","",""
"","","","","","html-keyboard-response","60","251033","0.0-6.0-1.14","AKR9067Q09RZS","2022-05-19T23:47:25.451Z","rhyme-same_different-task_switching-phon_sim","","null","rhyme","<img src=""square.png"" width=""306"" height=""306"" style=""position: fixed;left:14%;top:30%""><img src=""square.png"" width=""306"" height=""306"" style=""position: fixed;left:64%;top:30%"">","null","","","","","","","","","","","","","","","","","","","","","","","","","","","","","","","","",""
"","","","","","html-keyboard-response","61","253601","0.0-6.0-2.14","AKR9067Q09RZS","2022-05-19T23:47:25.451Z","rhyme-same_different-task_switching-phon_sim","","2566","rhyme","<div style=""border: 3px solid #000000; position: fixed;left:14%;top:30%""><img src=""visual/deer.png"" width=""300""></div><div style=""border: 3px solid #000000; position: fixed;left:64%;top:30%""><img src=""visual/beer.png"" width=""300""></div>","arrowdown","","false","experiment","visual/deer.png","visual/beer.png","ArrowUp","ortho","","","","","","","","","","","","","","","","","","","","","","","","","",""
"","","","","","html-keyboard-response","62","254353","0.0-6.0-0.15","AKR9067Q09RZS","2022-05-19T23:47:25.451Z","rhyme-same_different-task_switching-phon_sim","","null","rhyme","<div style=""font-size:60px;"">+</div>","null","750","","","","","","","","","","","","","","","","","","","","","","","","","","","","","","","",""
"","","","","","html-keyboard-response","63","254855","0.0-6.0-1.15","AKR9067Q09RZS","2022-05-19T23:47:25.451Z","rhyme-same_different-task_switching-phon_sim","","null","rhyme","<img src=""square.png"" width=""306"" height=""306"" style=""position: fixed;left:14%;top:30%""><img src=""square.png"" width=""306"" height=""306"" style=""position: fixed;left:64%;top:30%"">","null","","","","","","","","","","","","","","","","","","","","","","","","","","","","","","","","",""
"","","","","","html-keyboard-response","64","256337","0.0-6.0-2.15","AKR9067Q09RZS","2022-05-19T23:47:25.451Z","rhyme-same_different-task_switching-phon_sim","","1480","rhyme","<div style=""border: 3px solid #000000; position: fixed;left:14%;top:30%""><img src=""visual/flag.png"" width=""300""></div><div style=""border: 3px solid #000000; position: fixed;left:64%;top:30%""><img src=""visual/bag.png"" width=""300""></div>","arrowup","","true","experiment","visual/flag.png","visual/bag.png","ArrowUp","ortho","","","","","","","","","","","","","","","","","","","","","","","","","",""
"","","","","","html-keyboard-response","65","257338","0.0-6.0-0.16","AKR9067Q09RZS","2022-05-19T23:47:25.451Z","rhyme-same_different-task_switching-phon_sim","","null","rhyme","<div style=""font-size:60px;"">+</div>","null","1000","","","","","","","","","","","","","","","","","","","","","","","","","","","","","","","",""
"","","","","","html-keyboard-response","66","257840","0.0-6.0-1.16","AKR9067Q09RZS","2022-05-19T23:47:25.451Z","rhyme-same_different-task_switching-phon_sim","","null","rhyme","<img src=""square.png"" width=""306"" height=""306"" style=""position: fixed;left:14%;top:30%""><img src=""square.png"" width=""306"" height=""306"" style=""position: fixed;left:64%;top:30%"">","null","","","","","","","","","","","","","","","","","","","","","","","","","","","","","","","","",""
"","","","","","html-keyboard-response","67","260384","0.0-6.0-2.16","AKR9067Q09RZS","2022-05-19T23:47:25.451Z","rhyme-same_different-task_switching-phon_sim","","2541","rhyme","<div style=""border: 3px solid #000000; position: fixed;left:14%;top:30%""><img src=""visual/cake.png"" width=""300""></div><div style=""border: 3px solid #000000; position: fixed;left:64%;top:30%""><img src=""visual/rake.png"" width=""300""></div>","arrowdown","","false","experiment","visual/cake.png","visual/rake.png","ArrowUp","ortho","","","","","","","","","","","","","","","","","","","","","","","","","",""
"","","","","","html-keyboard-response","68","261136","0.0-6.0-0.17","AKR9067Q09RZS","2022-05-19T23:47:25.451Z","rhyme-same_different-task_switching-phon_sim","","null","rhyme","<div style=""font-size:60px;"">+</div>","null","750","","","","","","","","","","","","","","","","","","","","","","","","","","","","","","","",""
"","","","","","html-keyboard-response","69","261638","0.0-6.0-1.17","AKR9067Q09RZS","2022-05-19T23:47:25.451Z","rhyme-same_different-task_switching-phon_sim","","null","rhyme","<img src=""square.png"" width=""306"" height=""306"" style=""position: fixed;left:14%;top:30%""><img src=""square.png"" width=""306"" height=""306"" style=""position: fixed;left:64%;top:30%"">","null","","","","","","","","","","","","","","","","","","","","","","","","","","","","","","","","",""
"","","","","","html-keyboard-response","70","263168","0.0-6.0-2.17","AKR9067Q09RZS","2022-05-19T23:47:25.451Z","rhyme-same_different-task_switching-phon_sim","","1529","rhyme","<div style=""border: 3px solid #000000; position: fixed;left:14%;top:30%""><img src=""visual/soap.png"" width=""300""></div><div style=""border: 3px solid #000000; position: fixed;left:64%;top:30%""><img src=""visual/rope.png"" width=""300""></div>","arrowup","","true","experiment","visual/soap.png","visual/rope.png","ArrowUp","non-ortho","","","","","","","","","","","","","","","","","","","","","","","","","",""
"","","","","","html-keyboard-response","71","263671","0.0-6.0-0.18","AKR9067Q09RZS","2022-05-19T23:47:25.451Z","rhyme-same_different-task_switching-phon_sim","","null","rhyme","<div style=""font-size:60px;"">+</div>","null","500","","","","","","","","","","","","","","","","","","","","","","","","","","","","","","","",""
"","","","","","html-keyboard-response","72","264173","0.0-6.0-1.18","AKR9067Q09RZS","2022-05-19T23:47:25.451Z","rhyme-same_different-task_switching-phon_sim","","null","rhyme","<img src=""square.png"" width=""306"" height=""306"" style=""position: fixed;left:14%;top:30%""><img src=""square.png"" width=""306"" height=""306"" style=""position: fixed;left:64%;top:30%"">","null","","","","","","","","","","","","","","","","","","","","","","","","","","","","","","","","",""
"","","","","","html-keyboard-response","73","265992","0.0-6.0-2.18","AKR9067Q09RZS","2022-05-19T23:47:25.451Z","rhyme-same_different-task_switching-phon_sim","","1815","rhyme","<div style=""border: 3px solid #000000; position: fixed;left:14%;top:30%""><img src=""visual/socks.png"" width=""300""></div><div style=""border: 3px solid #000000; position: fixed;left:64%;top:30%""><img src=""visual/fox.png"" width=""300""></div>","arrowup","","true","experiment","visual/socks.png","visual/fox.png","ArrowUp","non-ortho","","","","","","","","","","","","","","","","","","","","","","","","","",""
"","","","","","html-keyboard-response","74","266243","0.0-6.0-0.19","AKR9067Q09RZS","2022-05-19T23:47:25.451Z","rhyme-same_different-task_switching-phon_sim","","null","rhyme","<div style=""font-size:60px;"">+</div>","null","250","","","","","","","","","","","","","","","","","","","","","","","","","","","","","","","",""
"","","","","","html-keyboard-response","75","266746","0.0-6.0-1.19","AKR9067Q09RZS","2022-05-19T23:47:25.451Z","rhyme-same_different-task_switching-phon_sim","","null","rhyme","<img src=""square.png"" width=""306"" height=""306"" style=""position: fixed;left:14%;top:30%""><img src=""square.png"" width=""306"" height=""306"" style=""position: fixed;left:64%;top:30%"">","null","","","","","","","","","","","","","","","","","","","","","","","","","","","","","","","","",""
"","","","","","html-keyboard-response","76","269615","0.0-6.0-2.19","AKR9067Q09RZS","2022-05-19T23:47:25.451Z","rhyme-same_different-task_switching-phon_sim","","2868","rhyme","<div style=""border: 3px solid #000000; position: fixed;left:14%;top:30%""><img src=""visual/fly.png"" width=""300""></div><div style=""border: 3px solid #000000; position: fixed;left:64%;top:30%""><img src=""visual/plane.png"" width=""300""></div>","arrowdown","","true","experiment","visual/fly.png","visual/plane.png","ArrowDown","NR","","","","","","","","","","","","","","","","","","","","","","","","","",""
"","","","","","html-keyboard-response","77","269868","0.0-6.0-0.20","AKR9067Q09RZS","2022-05-19T23:47:25.451Z","rhyme-same_different-task_switching-phon_sim","","null","rhyme","<div style=""font-size:60px;"">+</div>","null","250","","","","","","","","","","","","","","","","","","","","","","","","","","","","","","","",""
"","","","","","html-keyboard-response","78","270370","0.0-6.0-1.20","AKR9067Q09RZS","2022-05-19T23:47:25.451Z","rhyme-same_different-task_switching-phon_sim","","null","rhyme","<img src=""square.png"" width=""306"" height=""306"" style=""position: fixed;left:14%;top:30%""><img src=""square.png"" width=""306"" height=""306"" style=""position: fixed;left:64%;top:30%"">","null","","","","","","","","","","","","","","","","","","","","","","","","","","","","","","","","",""
"","","","","","html-keyboard-response","79","272112","0.0-6.0-2.20","AKR9067Q09RZS","2022-05-19T23:47:25.451Z","rhyme-same_different-task_switching-phon_sim","","1740","rhyme","<div style=""border: 3px solid #000000; position: fixed;left:14%;top:30%""><img src=""visual/egg.png"" width=""300""></div><div style=""border: 3px solid #000000; position: fixed;left:64%;top:30%""><img src=""visual/leg.png"" width=""300""></div>","arrowup","","true","experiment","visual/egg.png","visual/leg.png","ArrowUp","ortho","","","","","","","","","","","","","","","","","","","","","","","","","",""
"","","","","","html-keyboard-response","80","272614","0.0-6.0-0.21","AKR9067Q09RZS","2022-05-19T23:47:25.451Z","rhyme-same_different-task_switching-phon_sim","","null","rhyme","<div style=""font-size:60px;"">+</div>","null","500","","","","","","","","","","","","","","","","","","","","","","","","","","","","","","","",""
"","","","","","html-keyboard-response","81","273116","0.0-6.0-1.21","AKR9067Q09RZS","2022-05-19T23:47:25.451Z","rhyme-same_different-task_switching-phon_sim","","null","rhyme","<img src=""square.png"" width=""306"" height=""306"" style=""position: fixed;left:14%;top:30%""><img src=""square.png"" width=""306"" height=""306"" style=""position: fixed;left:64%;top:30%"">","null","","","","","","","","","","","","","","","","","","","","","","","","","","","","","","","","",""
"","","","","","html-keyboard-response","82","275295","0.0-6.0-2.21","AKR9067Q09RZS","2022-05-19T23:47:25.451Z","rhyme-same_different-task_switching-phon_sim","","2177","rhyme","<div style=""border: 3px solid #000000; position: fixed;left:14%;top:30%""><img src=""visual/train.png"" width=""300""></div><div style=""border: 3px solid #000000; position: fixed;left:64%;top:30%""><img src=""visual/screw.png"" width=""300""></div>","arrowdown","","true","experiment","visual/train.png","visual/screw.png","ArrowDown","NR","","","","","","","","","","","","","","","","","","","","","","","","","",""
"","","","","","html-keyboard-response","83","276296","0.0-6.0-0.22","AKR9067Q09RZS","2022-05-19T23:47:25.451Z","rhyme-same_different-task_switching-phon_sim","","null","rhyme","<div style=""font-size:60px;"">+</div>","null","1000","","","","","","","","","","","","","","","","","","","","","","","","","","","","","","","",""
"","","","","","html-keyboard-response","84","276799","0.0-6.0-1.22","AKR9067Q09RZS","2022-05-19T23:47:25.451Z","rhyme-same_different-task_switching-phon_sim","","null","rhyme","<img src=""square.png"" width=""306"" height=""306"" style=""position: fixed;left:14%;top:30%""><img src=""square.png"" width=""306"" height=""306"" style=""position: fixed;left:64%;top:30%"">","null","","","","","","","","","","","","","","","","","","","","","","","","","","","","","","","","",""
"","","","","","html-keyboard-response","85","278879","0.0-6.0-2.22","AKR9067Q09RZS","2022-05-19T23:47:25.451Z","rhyme-same_different-task_switching-phon_sim","","2077","rhyme","<div style=""border: 3px solid #000000; position: fixed;left:14%;top:30%""><img src=""visual/pear.png"" width=""300""></div><div style=""border: 3px solid #000000; position: fixed;left:64%;top:30%""><img src=""visual/rope.png"" width=""300""></div>","arrowdown","","true","experiment","visual/pear.png","visual/rope.png","ArrowDown","NR","","","","","","","","","","","","","","","","","","","","","","","","","",""
"","","","","","html-keyboard-response","86","279381","0.0-6.0-0.23","AKR9067Q09RZS","2022-05-19T23:47:25.451Z","rhyme-same_different-task_switching-phon_sim","","null","rhyme","<div style=""font-size:60px;"">+</div>","null","500","","","","","","","","","","","","","","","","","","","","","","","","","","","","","","","",""
"","","","","","html-keyboard-response","87","279884","0.0-6.0-1.23","AKR9067Q09RZS","2022-05-19T23:47:25.451Z","rhyme-same_different-task_switching-phon_sim","","null","rhyme","<img src=""square.png"" width=""306"" height=""306"" style=""position: fixed;left:14%;top:30%""><img src=""square.png"" width=""306"" height=""306"" style=""position: fixed;left:64%;top:30%"">","null","","","","","","","","","","","","","","","","","","","","","","","","","","","","","","","","",""
"","","","","","html-keyboard-response","88","281950","0.0-6.0-2.23","AKR9067Q09RZS","2022-05-19T23:47:25.451Z","rhyme-same_different-task_switching-phon_sim","","2064","rhyme","<div style=""border: 3px solid #000000; position: fixed;left:14%;top:30%""><img src=""visual/drawer.png"" width=""300""></div><div style=""border: 3px solid #000000; position: fixed;left:64%;top:30%""><img src=""visual/door.png"" width=""300""></div>","arrowup","","true","experiment","visual/drawer.png","visual/door.png","ArrowUp","non-ortho","","","","","","","","","","","","","","","","","","","","","","","","","",""
"","","","","","html-keyboard-response","89","282452","0.0-6.0-0.24","AKR9067Q09RZS","2022-05-19T23:47:25.451Z","rhyme-same_different-task_switching-phon_sim","","null","rhyme","<div style=""font-size:60px;"">+</div>","null","500","","","","","","","","","","","","","","","","","","","","","","","","","","","","","","","",""
"","","","","","html-keyboard-response","90","282954","0.0-6.0-1.24","AKR9067Q09RZS","2022-05-19T23:47:25.451Z","rhyme-same_different-task_switching-phon_sim","","null","rhyme","<img src=""square.png"" width=""306"" height=""306"" style=""position: fixed;left:14%;top:30%""><img src=""square.png"" width=""306"" height=""306"" style=""position: fixed;left:64%;top:30%"">","null","","","","","","","","","","","","","","","","","","","","","","","","","","","","","","","","",""
"","","","","","html-keyboard-response","91","285365","0.0-6.0-2.24","AKR9067Q09RZS","2022-05-19T23:47:25.451Z","rhyme-same_different-task_switching-phon_sim","","2410","rhyme","<div style=""border: 3px solid #000000; position: fixed;left:14%;top:30%""><img src=""visual/claw.png"" width=""300""></div><div style=""border: 3px solid #000000; position: fixed;left:64%;top:30%""><img src=""visual/beer.png"" width=""300""></div>","arrowdown","","true","experiment","visual/claw.png","visual/beer.png","ArrowDown","NR","","","","","","","","","","","","","","","","","","","","","","","","","",""
"","","","","","html-keyboard-response","92","286367","0.0-6.0-0.25","AKR9067Q09RZS","2022-05-19T23:47:25.451Z","rhyme-same_different-task_switching-phon_sim","","null","rhyme","<div style=""font-size:60px;"">+</div>","null","1000","","","","","","","","","","","","","","","","","","","","","","","","","","","","","","","",""
"","","","","","html-keyboard-response","93","286869","0.0-6.0-1.25","AKR9067Q09RZS","2022-05-19T23:47:25.451Z","rhyme-same_different-task_switching-phon_sim","","null","rhyme","<img src=""square.png"" width=""306"" height=""306"" style=""position: fixed;left:14%;top:30%""><img src=""square.png"" width=""306"" height=""306"" style=""position: fixed;left:64%;top:30%"">","null","","","","","","","","","","","","","","","","","","","","","","","","","","","","","","","","",""
"","","","","","html-keyboard-response","94","289541","0.0-6.0-2.25","AKR9067Q09RZS","2022-05-19T23:47:25.451Z","rhyme-same_different-task_switching-phon_sim","","2671","rhyme","<div style=""border: 3px solid #000000; position: fixed;left:14%;top:30%""><img src=""visual/king.png"" width=""300""></div><div style=""border: 3px solid #000000; position: fixed;left:64%;top:30%""><img src=""visual/cab.png"" width=""300""></div>","arrowdown","","true","experiment","visual/king.png","visual/cab.png","ArrowDown","NR","","","","","","","","","","","","","","","","","","","","","","","","","",""
"","","","","","html-keyboard-response","95","289794","0.0-6.0-0.26","AKR9067Q09RZS","2022-05-19T23:47:25.451Z","rhyme-same_different-task_switching-phon_sim","","null","rhyme","<div style=""font-size:60px;"">+</div>","null","250","","","","","","","","","","","","","","","","","","","","","","","","","","","","","","","",""
"","","","","","html-keyboard-response","96","290297","0.0-6.0-1.26","AKR9067Q09RZS","2022-05-19T23:47:25.451Z","rhyme-same_different-task_switching-phon_sim","","null","rhyme","<img src=""square.png"" width=""306"" height=""306"" style=""position: fixed;left:14%;top:30%""><img src=""square.png"" width=""306"" height=""306"" style=""position: fixed;left:64%;top:30%"">","null","","","","","","","","","","","","","","","","","","","","","","","","","","","","","","","","",""
"","","","","","html-keyboard-response","97","291814","0.0-6.0-2.26","AKR9067Q09RZS","2022-05-19T23:47:25.451Z","rhyme-same_different-task_switching-phon_sim","","1516","rhyme","<div style=""border: 3px solid #000000; position: fixed;left:14%;top:30%""><img src=""visual/chair.png"" width=""300""></div><div style=""border: 3px solid #000000; position: fixed;left:64%;top:30%""><img src=""visual/pear.png"" width=""300""></div>","arrowup","","true","experiment","visual/chair.png","visual/pear.png","ArrowUp","non-ortho","","","","","","","","","","","","","","","","","","","","","","","","","",""
"","","","","","html-keyboard-response","98","292067","0.0-6.0-0.27","AKR9067Q09RZS","2022-05-19T23:47:25.451Z","rhyme-same_different-task_switching-phon_sim","","null","rhyme","<div style=""font-size:60px;"">+</div>","null","250","","","","","","","","","","","","","","","","","","","","","","","","","","","","","","","",""
"","","","","","html-keyboard-response","99","292571","0.0-6.0-1.27","AKR9067Q09RZS","2022-05-19T23:47:25.451Z","rhyme-same_different-task_switching-phon_sim","","null","rhyme","<img src=""square.png"" width=""306"" height=""306"" style=""position: fixed;left:14%;top:30%""><img src=""square.png"" width=""306"" height=""306"" style=""position: fixed;left:64%;top:30%"">","null","","","","","","","","","","","","","","","","","","","","","","","","","","","","","","","","",""
"","","","","","html-keyboard-response","100","294469","0.0-6.0-2.27","AKR9067Q09RZS","2022-05-19T23:47:25.451Z","rhyme-same_different-task_switching-phon_sim","","1896","rhyme","<div style=""border: 3px solid #000000; position: fixed;left:14%;top:30%""><img src=""visual/king.png"" width=""300""></div><div style=""border: 3px solid #000000; position: fixed;left:64%;top:30%""><img src=""visual/ring.png"" width=""300""></div>","arrowup","","true","experiment","visual/king.png","visual/ring.png","ArrowUp","ortho","","","","","","","","","","","","","","","","","","","","","","","","","",""
"","","","","","html-keyboard-response","101","295470","0.0-6.0-0.28","AKR9067Q09RZS","2022-05-19T23:47:25.451Z","rhyme-same_different-task_switching-phon_sim","","null","rhyme","<div style=""font-size:60px;"">+</div>","null","1000","","","","","","","","","","","","","","","","","","","","","","","","","","","","","","","",""
"","","","","","html-keyboard-response","102","295973","0.0-6.0-1.28","AKR9067Q09RZS","2022-05-19T23:47:25.451Z","rhyme-same_different-task_switching-phon_sim","","null","rhyme","<img src=""square.png"" width=""306"" height=""306"" style=""position: fixed;left:14%;top:30%""><img src=""square.png"" width=""306"" height=""306"" style=""position: fixed;left:64%;top:30%"">","null","","","","","","","","","","","","","","","","","","","","","","","","","","","","","","","","",""
"","","","","","html-keyboard-response","103","297917","0.0-6.0-2.28","AKR9067Q09RZS","2022-05-19T23:47:25.451Z","rhyme-same_different-task_switching-phon_sim","","1943","rhyme","<div style=""border: 3px solid #000000; position: fixed;left:14%;top:30%""><img src=""visual/key.png"" width=""300""></div><div style=""border: 3px solid #000000; position: fixed;left:64%;top:30%""><img src=""visual/tree.png"" width=""300""></div>","arrowdown","","false","experiment","visual/key.png","visual/tree.png","ArrowUp","non-ortho","","","","","","","","","","","","","","","","","","","","","","","","","",""
"","","","","","html-keyboard-response","104","298918","0.0-6.0-0.29","AKR9067Q09RZS","2022-05-19T23:47:25.451Z","rhyme-same_different-task_switching-phon_sim","","null","rhyme","<div style=""font-size:60px;"">+</div>","null","1000","","","","","","","","","","","","","","","","","","","","","","","","","","","","","","","",""
"","","","","","html-keyboard-response","105","299421","0.0-6.0-1.29","AKR9067Q09RZS","2022-05-19T23:47:25.451Z","rhyme-same_different-task_switching-phon_sim","","null","rhyme","<img src=""square.png"" width=""306"" height=""306"" style=""position: fixed;left:14%;top:30%""><img src=""square.png"" width=""306"" height=""306"" style=""position: fixed;left:64%;top:30%"">","null","","","","","","","","","","","","","","","","","","","","","","","","","","","","","","","","",""
"","","","","","html-keyboard-response","106","301077","0.0-6.0-2.29","AKR9067Q09RZS","2022-05-19T23:47:25.451Z","rhyme-same_different-task_switching-phon_sim","","1653","rhyme","<div style=""border: 3px solid #000000; position: fixed;left:14%;top:30%""><img src=""visual/tie.png"" width=""300""></div><div style=""border: 3px solid #000000; position: fixed;left:64%;top:30%""><img src=""visual/fly.png"" width=""300""></div>","arrowup","","true","experiment","visual/tie.png","visual/fly.png","ArrowUp","non-ortho","","","","","","","","","","","","","","","","","","","","","","","","","",""
"","","","","","html-keyboard-response","107","301328","0.0-6.0-0.30","AKR9067Q09RZS","2022-05-19T23:47:25.451Z","rhyme-same_different-task_switching-phon_sim","","null","rhyme","<div style=""font-size:60px;"">+</div>","null","250","","","","","","","","","","","","","","","","","","","","","","","","","","","","","","","",""
"","","","","","html-keyboard-response","108","301830","0.0-6.0-1.30","AKR9067Q09RZS","2022-05-19T23:47:25.451Z","rhyme-same_different-task_switching-phon_sim","","null","rhyme","<img src=""square.png"" width=""306"" height=""306"" style=""position: fixed;left:14%;top:30%""><img src=""square.png"" width=""306"" height=""306"" style=""position: fixed;left:64%;top:30%"">","null","","","","","","","","","","","","","","","","","","","","","","","","","","","","","","","","",""
"","","","","","html-keyboard-response","109","303493","0.0-6.0-2.30","AKR9067Q09RZS","2022-05-19T23:47:25.451Z","rhyme-same_different-task_switching-phon_sim","","1661","rhyme","<div style=""border: 3px solid #000000; position: fixed;left:14%;top:30%""><img src=""visual/cat.png"" width=""300""></div><div style=""border: 3px solid #000000; position: fixed;left:64%;top:30%""><img src=""visual/hat.png"" width=""300""></div>","arrowup","","true","experiment","visual/cat.png","visual/hat.png","ArrowUp","ortho","","","","","","","","","","","","","","","","","","","","","","","","","",""
"","","","","","html-keyboard-response","110","304245","0.0-6.0-0.31","AKR9067Q09RZS","2022-05-19T23:47:25.451Z","rhyme-same_different-task_switching-phon_sim","","null","rhyme","<div style=""font-size:60px;"">+</div>","null","750","","","","","","","","","","","","","","","","","","","","","","","","","","","","","","","",""
"","","","","","html-keyboard-response","111","304748","0.0-6.0-1.31","AKR9067Q09RZS","2022-05-19T23:47:25.451Z","rhyme-same_different-task_switching-phon_sim","","null","rhyme","<img src=""square.png"" width=""306"" height=""306"" style=""position: fixed;left:14%;top:30%""><img src=""square.png"" width=""306"" height=""306"" style=""position: fixed;left:64%;top:30%"">","null","","","","","","","","","","","","","","","","","","","","","","","","","","","","","","","","",""
"","","","","","html-keyboard-response","112","306252","0.0-6.0-2.31","AKR9067Q09RZS","2022-05-19T23:47:25.451Z","rhyme-same_different-task_switching-phon_sim","","1503","rhyme","<div style=""border: 3px solid #000000; position: fixed;left:14%;top:30%""><img src=""visual/cab.png"" width=""300""></div><div style=""border: 3px solid #000000; position: fixed;left:64%;top:30%""><img src=""visual/crab.png"" width=""300""></div>","arrowup","","true","experiment","visual/cab.png","visual/crab.png","ArrowUp","ortho","","","","","","","","","","","","","","","","","","","","","","","","","",""
"","","","","","html-keyboard-response","113","307004","0.0-6.0-0.32","AKR9067Q09RZS","2022-05-19T23:47:25.451Z","rhyme-same_different-task_switching-phon_sim","","null","rhyme","<div style=""font-size:60px;"">+</div>","null","750","","","","","","","","","","","","","","","","","","","","","","","","","","","","","","","",""
"","","","","","html-keyboard-response","114","307507","0.0-6.0-1.32","AKR9067Q09RZS","2022-05-19T23:47:25.451Z","rhyme-same_different-task_switching-phon_sim","","null","rhyme","<img src=""square.png"" width=""306"" height=""306"" style=""position: fixed;left:14%;top:30%""><img src=""square.png"" width=""306"" height=""306"" style=""position: fixed;left:64%;top:30%"">","null","","","","","","","","","","","","","","","","","","","","","","","","","","","","","","","","",""
"","","","","","html-keyboard-response","115","309989","0.0-6.0-2.32","AKR9067Q09RZS","2022-05-19T23:47:25.451Z","rhyme-same_different-task_switching-phon_sim","","2479","rhyme","<div style=""border: 3px solid #000000; position: fixed;left:14%;top:30%""><img src=""visual/rake.png"" width=""300""></div><div style=""border: 3px solid #000000; position: fixed;left:64%;top:30%""><img src=""visual/park.png"" width=""300""></div>","arrowdown","","true","experiment","visual/rake.png","visual/park.png","ArrowDown","NR","","","","","","","","","","","","","","","","","","","","","","","","","",""
"","","","","","html-keyboard-response","116","310739","0.0-6.0-0.33","AKR9067Q09RZS","2022-05-19T23:47:25.451Z","rhyme-same_different-task_switching-phon_sim","","null","rhyme","<div style=""font-size:60px;"">+</div>","null","750","","","","","","","","","","","","","","","","","","","","","","","","","","","","","","","",""
"","","","","","html-keyboard-response","117","311243","0.0-6.0-1.33","AKR9067Q09RZS","2022-05-19T23:47:25.451Z","rhyme-same_different-task_switching-phon_sim","","null","rhyme","<img src=""square.png"" width=""306"" height=""306"" style=""position: fixed;left:14%;top:30%""><img src=""square.png"" width=""306"" height=""306"" style=""position: fixed;left:64%;top:30%"">","null","","","","","","","","","","","","","","","","","","","","","","","","","","","","","","","","",""
"","","","","","html-keyboard-response","118","314052","0.0-6.0-2.33","AKR9067Q09RZS","2022-05-19T23:47:25.451Z","rhyme-same_different-task_switching-phon_sim","","2807","rhyme","<div style=""border: 3px solid #000000; position: fixed;left:14%;top:30%""><img src=""visual/bin.png"" width=""300""></div><div style=""border: 3px solid #000000; position: fixed;left:64%;top:30%""><img src=""visual/chin.png"" width=""300""></div>","arrowdown","","false","experiment","visual/bin.png","visual/chin.png","ArrowUp","ortho","","","","","","","","","","","","","","","","","","","","","","","","","",""
"","","","","","html-keyboard-response","119","314303","0.0-6.0-0.34","AKR9067Q09RZS","2022-05-19T23:47:25.451Z","rhyme-same_different-task_switching-phon_sim","","null","rhyme","<div style=""font-size:60px;"">+</div>","null","250","","","","","","","","","","","","","","","","","","","","","","","","","","","","","","","",""
"","","","","","html-keyboard-response","120","314805","0.0-6.0-1.34","AKR9067Q09RZS","2022-05-19T23:47:25.451Z","rhyme-same_different-task_switching-phon_sim","","null","rhyme","<img src=""square.png"" width=""306"" height=""306"" style=""position: fixed;left:14%;top:30%""><img src=""square.png"" width=""306"" height=""306"" style=""position: fixed;left:64%;top:30%"">","null","","","","","","","","","","","","","","","","","","","","","","","","","","","","","","","","",""
"","","","","","html-keyboard-response","121","315964","0.0-6.0-2.34","AKR9067Q09RZS","2022-05-19T23:47:25.451Z","rhyme-same_different-task_switching-phon_sim","","1158","rhyme","<div style=""border: 3px solid #000000; position: fixed;left:14%;top:30%""><img src=""visual/screw.png"" width=""300""></div><div style=""border: 3px solid #000000; position: fixed;left:64%;top:30%""><img src=""visual/shoe.png"" width=""300""></div>","arrowup","","true","experiment","visual/screw.png","visual/shoe.png","ArrowUp","non-ortho","","","","","","","","","","","","","","","","","","","","","","","","","",""
"","","","","","html-keyboard-response","122","316465","0.0-6.0-0.35","AKR9067Q09RZS","2022-05-19T23:47:25.451Z","rhyme-same_different-task_switching-phon_sim","","null","rhyme","<div style=""font-size:60px;"">+</div>","null","500","","","","","","","","","","","","","","","","","","","","","","","","","","","","","","","",""
"","","","","","html-keyboard-response","123","316968","0.0-6.0-1.35","AKR9067Q09RZS","2022-05-19T23:47:25.451Z","rhyme-same_different-task_switching-phon_sim","","null","rhyme","<img src=""square.png"" width=""306"" height=""306"" style=""position: fixed;left:14%;top:30%""><img src=""square.png"" width=""306"" height=""306"" style=""position: fixed;left:64%;top:30%"">","null","","","","","","","","","","","","","","","","","","","","","","","","","","","","","","","","",""
"","","","","","html-keyboard-response","124","318604","0.0-6.0-2.35","AKR9067Q09RZS","2022-05-19T23:47:25.451Z","rhyme-same_different-task_switching-phon_sim","","1633","rhyme","<div style=""border: 3px solid #000000; position: fixed;left:14%;top:30%""><img src=""visual/well.png"" width=""300""></div><div style=""border: 3px solid #000000; position: fixed;left:64%;top:30%""><img src=""visual/bell.png"" width=""300""></div>","arrowup","","true","experiment","visual/well.png","visual/bell.png","ArrowUp","ortho","","","","","","","","","","","","","","","","","","","","","","","","","",""
"","","","","","html-keyboard-response","125","319606","0.0-6.0-0.36","AKR9067Q09RZS","2022-05-19T23:47:25.451Z","rhyme-same_different-task_switching-phon_sim","","null","rhyme","<div style=""font-size:60px;"">+</div>","null","1000","","","","","","","","","","","","","","","","","","","","","","","","","","","","","","","",""
"","","","","","html-keyboard-response","126","320108","0.0-6.0-1.36","AKR9067Q09RZS","2022-05-19T23:47:25.451Z","rhyme-same_different-task_switching-phon_sim","","null","rhyme","<img src=""square.png"" width=""306"" height=""306"" style=""position: fixed;left:14%;top:30%""><img src=""square.png"" width=""306"" height=""306"" style=""position: fixed;left:64%;top:30%"">","null","","","","","","","","","","","","","","","","","","","","","","","","","","","","","","","","",""
"","","","","","html-keyboard-response","127","321675","0.0-6.0-2.36","AKR9067Q09RZS","2022-05-19T23:47:25.451Z","rhyme-same_different-task_switching-phon_sim","","1566","rhyme","<div style=""border: 3px solid #000000; position: fixed;left:14%;top:30%""><img src=""visual/drum.png"" width=""300""></div><div style=""border: 3px solid #000000; position: fixed;left:64%;top:30%""><img src=""visual/thumb.png"" width=""300""></div>","arrowup","","true","experiment","visual/drum.png","visual/thumb.png","ArrowUp","non-ortho","","","","","","","","","","","","","","","","","","","","","","","","","",""
"","","","","","html-keyboard-response","128","322427","0.0-6.0-0.37","AKR9067Q09RZS","2022-05-19T23:47:25.451Z","rhyme-same_different-task_switching-phon_sim","","null","rhyme","<div style=""font-size:60px;"">+</div>","null","750","","","","","","","","","","","","","","","","","","","","","","","","","","","","","","","",""
"","","","","","html-keyboard-response","129","322928","0.0-6.0-1.37","AKR9067Q09RZS","2022-05-19T23:47:25.451Z","rhyme-same_different-task_switching-phon_sim","","null","rhyme","<img src=""square.png"" width=""306"" height=""306"" style=""position: fixed;left:14%;top:30%""><img src=""square.png"" width=""306"" height=""306"" style=""position: fixed;left:64%;top:30%"">","null","","","","","","","","","","","","","","","","","","","","","","","","","","","","","","","","",""
"","","","","","html-keyboard-response","130","324307","0.0-6.0-2.37","AKR9067Q09RZS","2022-05-19T23:47:25.451Z","rhyme-same_different-task_switching-phon_sim","","1375","rhyme","<div style=""border: 3px solid #000000; position: fixed;left:14%;top:30%""><img src=""visual/plane.png"" width=""300""></div><div style=""border: 3px solid #000000; position: fixed;left:64%;top:30%""><img src=""visual/train.png"" width=""300""></div>","arrowup","","true","experiment","visual/plane.png","visual/train.png","ArrowUp","non-ortho","","","","","","","","","","","","","","","","","","","","","","","","","",""
"","","","","","html-keyboard-response","131","325058","0.0-6.0-0.38","AKR9067Q09RZS","2022-05-19T23:47:25.451Z","rhyme-same_different-task_switching-phon_sim","","null","rhyme","<div style=""font-size:60px;"">+</div>","null","750","","","","","","","","","","","","","","","","","","","","","","","","","","","","","","","",""
"","","","","","html-keyboard-response","132","325559","0.0-6.0-1.38","AKR9067Q09RZS","2022-05-19T23:47:25.451Z","rhyme-same_different-task_switching-phon_sim","","null","rhyme","<img src=""square.png"" width=""306"" height=""306"" style=""position: fixed;left:14%;top:30%""><img src=""square.png"" width=""306"" height=""306"" style=""position: fixed;left:64%;top:30%"">","null","","","","","","","","","","","","","","","","","","","","","","","","","","","","","","","","",""
"","","","","","html-keyboard-response","133","328026","0.0-6.0-2.38","AKR9067Q09RZS","2022-05-19T23:47:25.451Z","rhyme-same_different-task_switching-phon_sim","","2465","rhyme","<div style=""border: 3px solid #000000; position: fixed;left:14%;top:30%""><img src=""visual/well.png"" width=""300""></div><div style=""border: 3px solid #000000; position: fixed;left:64%;top:30%""><img src=""visual/rose.png"" width=""300""></div>","arrowdown","","true","experiment","visual/well.png","visual/rose.png","ArrowDown","NR","","","","","","","","","","","","","","","","","","","","","","","","","",""
"","","","","","html-keyboard-response","134","328278","0.0-6.0-0.39","AKR9067Q09RZS","2022-05-19T23:47:25.451Z","rhyme-same_different-task_switching-phon_sim","","null","rhyme","<div style=""font-size:60px;"">+</div>","null","250","","","","","","","","","","","","","","","","","","","","","","","","","","","","","","","",""
"","","","","","html-keyboard-response","135","328780","0.0-6.0-1.39","AKR9067Q09RZS","2022-05-19T23:47:25.451Z","rhyme-same_different-task_switching-phon_sim","","null","rhyme","<img src=""square.png"" width=""306"" height=""306"" style=""position: fixed;left:14%;top:30%""><img src=""square.png"" width=""306"" height=""306"" style=""position: fixed;left:64%;top:30%"">","null","","","","","","","","","","","","","","","","","","","","","","","","","","","","","","","","",""
"","","","","","html-keyboard-response","136","330169","0.0-6.0-2.39","AKR9067Q09RZS","2022-05-19T23:47:25.451Z","rhyme-same_different-task_switching-phon_sim","","1387","rhyme","<div style=""border: 3px solid #000000; position: fixed;left:14%;top:30%""><img src=""visual/snail.png"" width=""300""></div><div style=""border: 3px solid #000000; position: fixed;left:64%;top:30%""><img src=""visual/whale.png"" width=""300""></div>","arrowup","","true","experiment","visual/snail.png","visual/whale.png","ArrowUp","non-ortho","","","","","","","","","","","","","","","","","","","","","","","","","",""
"","","","","","html-keyboard-response","137","330921","0.0-6.0-0.40","AKR9067Q09RZS","2022-05-19T23:47:25.451Z","rhyme-same_different-task_switching-phon_sim","","null","rhyme","<div style=""font-size:60px;"">+</div>","null","750","","","","","","","","","","","","","","","","","","","","","","","","","","","","","","","",""
"","","","","","html-keyboard-response","138","331423","0.0-6.0-1.40","AKR9067Q09RZS","2022-05-19T23:47:25.451Z","rhyme-same_different-task_switching-phon_sim","","null","rhyme","<img src=""square.png"" width=""306"" height=""306"" style=""position: fixed;left:14%;top:30%""><img src=""square.png"" width=""306"" height=""306"" style=""position: fixed;left:64%;top:30%"">","null","","","","","","","","","","","","","","","","","","","","","","","","","","","","","","","","",""
"","","","","","html-keyboard-response","139","333730","0.0-6.0-2.40","AKR9067Q09RZS","2022-05-19T23:47:25.451Z","rhyme-same_different-task_switching-phon_sim","","2305","rhyme","<div style=""border: 3px solid #000000; position: fixed;left:14%;top:30%""><img src=""visual/jar.png"" width=""300""></div><div style=""border: 3px solid #000000; position: fixed;left:64%;top:30%""><img src=""visual/whale.png"" width=""300""></div>","arrowdown","","true","experiment","visual/jar.png","visual/whale.png","ArrowDown","NR","","","","","","","","","","","","","","","","","","","","","","","","","",""
"","","","","","html-keyboard-response","140","334480","0.0-6.0-0.41","AKR9067Q09RZS","2022-05-19T23:47:25.451Z","rhyme-same_different-task_switching-phon_sim","","null","rhyme","<div style=""font-size:60px;"">+</div>","null","750","","","","","","","","","","","","","","","","","","","","","","","","","","","","","","","",""
"","","","","","html-keyboard-response","141","334982","0.0-6.0-1.41","AKR9067Q09RZS","2022-05-19T23:47:25.451Z","rhyme-same_different-task_switching-phon_sim","","null","rhyme","<img src=""square.png"" width=""306"" height=""306"" style=""position: fixed;left:14%;top:30%""><img src=""square.png"" width=""306"" height=""306"" style=""position: fixed;left:64%;top:30%"">","null","","","","","","","","","","","","","","","","","","","","","","","","","","","","","","","","",""
"","","","","","html-keyboard-response","142","337258","0.0-6.0-2.41","AKR9067Q09RZS","2022-05-19T23:47:25.451Z","rhyme-same_different-task_switching-phon_sim","","2273","rhyme","<div style=""border: 3px solid #000000; position: fixed;left:14%;top:30%""><img src=""visual/plane.png"" width=""300""></div><div style=""border: 3px solid #000000; position: fixed;left:64%;top:30%""><img src=""visual/chain.png"" width=""300""></div>","arrowup","","true","experiment","visual/plane.png","visual/chain.png","ArrowUp","non-ortho","","","","","","","","","","","","","","","","","","","","","","","","","",""
"","","","","","html-keyboard-response","143","337510","0.0-6.0-0.42","AKR9067Q09RZS","2022-05-19T23:47:25.451Z","rhyme-same_different-task_switching-phon_sim","","null","rhyme","<div style=""font-size:60px;"">+</div>","null","250","","","","","","","","","","","","","","","","","","","","","","","","","","","","","","","",""
"","","","","","html-keyboard-response","144","338011","0.0-6.0-1.42","AKR9067Q09RZS","2022-05-19T23:47:25.451Z","rhyme-same_different-task_switching-phon_sim","","null","rhyme","<img src=""square.png"" width=""306"" height=""306"" style=""position: fixed;left:14%;top:30%""><img src=""square.png"" width=""306"" height=""306"" style=""position: fixed;left:64%;top:30%"">","null","","","","","","","","","","","","","","","","","","","","","","","","","","","","","","","","",""
"","","","","","html-keyboard-response","145","339601","0.0-6.0-2.42","AKR9067Q09RZS","2022-05-19T23:47:25.451Z","rhyme-same_different-task_switching-phon_sim","","1588","rhyme","<div style=""border: 3px solid #000000; position: fixed;left:14%;top:30%""><img src=""visual/shark.png"" width=""300""></div><div style=""border: 3px solid #000000; position: fixed;left:64%;top:30%""><img src=""visual/moon.png"" width=""300""></div>","arrowdown","","true","experiment","visual/shark.png","visual/moon.png","ArrowDown","NR","","","","","","","","","","","","","","","","","","","","","","","","","",""
"","","","","","html-keyboard-response","146","340103","0.0-6.0-0.43","AKR9067Q09RZS","2022-05-19T23:47:25.451Z","rhyme-same_different-task_switching-phon_sim","","null","rhyme","<div style=""font-size:60px;"">+</div>","null","500","","","","","","","","","","","","","","","","","","","","","","","","","","","","","","","",""
"","","","","","html-keyboard-response","147","340604","0.0-6.0-1.43","AKR9067Q09RZS","2022-05-19T23:47:25.451Z","rhyme-same_different-task_switching-phon_sim","","null","rhyme","<img src=""square.png"" width=""306"" height=""306"" style=""position: fixed;left:14%;top:30%""><img src=""square.png"" width=""306"" height=""306"" style=""position: fixed;left:64%;top:30%"">","null","","","","","","","","","","","","","","","","","","","","","","","","","","","","","","","","",""
"","","","","","html-keyboard-response","148","342281","0.0-6.0-2.43","AKR9067Q09RZS","2022-05-19T23:47:25.451Z","rhyme-same_different-task_switching-phon_sim","","1675","rhyme","<div style=""border: 3px solid #000000; position: fixed;left:14%;top:30%""><img src=""visual/bear.png"" width=""300""></div><div style=""border: 3px solid #000000; position: fixed;left:64%;top:30%""><img src=""visual/hair.png"" width=""300""></div>","arrowup","","true","experiment","visual/bear.png","visual/hair.png","ArrowUp","non-ortho","","","","","","","","","","","","","","","","","","","","","","","","","",""
"","","","","","html-keyboard-response","149","343283","0.0-6.0-0.44","AKR9067Q09RZS","2022-05-19T23:47:25.451Z","rhyme-same_different-task_switching-phon_sim","","null","rhyme","<div style=""font-size:60px;"">+</div>","null","1000","","","","","","","","","","","","","","","","","","","","","","","","","","","","","","","",""
"","","","","","html-keyboard-response","150","343785","0.0-6.0-1.44","AKR9067Q09RZS","2022-05-19T23:47:25.451Z","rhyme-same_different-task_switching-phon_sim","","null","rhyme","<img src=""square.png"" width=""306"" height=""306"" style=""position: fixed;left:14%;top:30%""><img src=""square.png"" width=""306"" height=""306"" style=""position: fixed;left:64%;top:30%"">","null","","","","","","","","","","","","","","","","","","","","","","","","","","","","","","","","",""
"","","","","","html-keyboard-response","151","345905","0.0-6.0-2.44","AKR9067Q09RZS","2022-05-19T23:47:25.451Z","rhyme-same_different-task_switching-phon_sim","","2118","rhyme","<div style=""border: 3px solid #000000; position: fixed;left:14%;top:30%""><img src=""visual/dart.png"" width=""300""></div><div style=""border: 3px solid #000000; position: fixed;left:64%;top:30%""><img src=""visual/tie.png"" width=""300""></div>","arrowdown","","true","experiment","visual/dart.png","visual/tie.png","ArrowDown","NR","","","","","","","","","","","","","","","","","","","","","","","","","",""
"","","","","","html-keyboard-response","152","346657","0.0-6.0-0.45","AKR9067Q09RZS","2022-05-19T23:47:25.451Z","rhyme-same_different-task_switching-phon_sim","","null","rhyme","<div style=""font-size:60px;"">+</div>","null","750","","","","","","","","","","","","","","","","","","","","","","","","","","","","","","","",""
"","","","","","html-keyboard-response","153","347159","0.0-6.0-1.45","AKR9067Q09RZS","2022-05-19T23:47:25.451Z","rhyme-same_different-task_switching-phon_sim","","null","rhyme","<img src=""square.png"" width=""306"" height=""306"" style=""position: fixed;left:14%;top:30%""><img src=""square.png"" width=""306"" height=""306"" style=""position: fixed;left:64%;top:30%"">","null","","","","","","","","","","","","","","","","","","","","","","","","","","","","","","","","",""
"","","","","","html-keyboard-response","154","348320","0.0-6.0-2.45","AKR9067Q09RZS","2022-05-19T23:47:25.451Z","rhyme-same_different-task_switching-phon_sim","","1159","rhyme","<div style=""border: 3px solid #000000; position: fixed;left:14%;top:30%""><img src=""visual/rose.png"" width=""300""></div><div style=""border: 3px solid #000000; position: fixed;left:64%;top:30%""><img src=""visual/nose.png"" width=""300""></div>","arrowup","","true","experiment","visual/rose.png","visual/nose.png","ArrowUp","ortho","","","","","","","","","","","","","","","","","","","","","","","","","",""
"","","","","","html-keyboard-response","155","349072","0.0-6.0-0.46","AKR9067Q09RZS","2022-05-19T23:47:25.451Z","rhyme-same_different-task_switching-phon_sim","","null","rhyme","<div style=""font-size:60px;"">+</div>","null","750","","","","","","","","","","","","","","","","","","","","","","","","","","","","","","","",""
"","","","","","html-keyboard-response","156","349575","0.0-6.0-1.46","AKR9067Q09RZS","2022-05-19T23:47:25.451Z","rhyme-same_different-task_switching-phon_sim","","null","rhyme","<img src=""square.png"" width=""306"" height=""306"" style=""position: fixed;left:14%;top:30%""><img src=""square.png"" width=""306"" height=""306"" style=""position: fixed;left:64%;top:30%"">","null","","","","","","","","","","","","","","","","","","","","","","","","","","","","","","","","",""
"","","","","","html-keyboard-response","157","351752","0.0-6.0-2.46","AKR9067Q09RZS","2022-05-19T23:47:25.451Z","rhyme-same_different-task_switching-phon_sim","","2175","rhyme","<div style=""border: 3px solid #000000; position: fixed;left:14%;top:30%""><img src=""visual/pope.png"" width=""300""></div><div style=""border: 3px solid #000000; position: fixed;left:64%;top:30%""><img src=""visual/soap.png"" width=""300""></div>","arrowup","","true","experiment","visual/pope.png","visual/soap.png","ArrowUp","non-ortho","","","","","","","","","","","","","","","","","","","","","","","","","",""
"","","","","","html-keyboard-response","158","352254","0.0-6.0-0.47","AKR9067Q09RZS","2022-05-19T23:47:25.451Z","rhyme-same_different-task_switching-phon_sim","","null","rhyme","<div style=""font-size:60px;"">+</div>","null","500","","","","","","","","","","","","","","","","","","","","","","","","","","","","","","","",""
"","","","","","html-keyboard-response","159","352756","0.0-6.0-1.47","AKR9067Q09RZS","2022-05-19T23:47:25.451Z","rhyme-same_different-task_switching-phon_sim","","null","rhyme","<img src=""square.png"" width=""306"" height=""306"" style=""position: fixed;left:14%;top:30%""><img src=""square.png"" width=""306"" height=""306"" style=""position: fixed;left:64%;top:30%"">","null","","","","","","","","","","","","","","","","","","","","","","","","","","","","","","","","",""
"","","","","","html-keyboard-response","160","354071","0.0-6.0-2.47","AKR9067Q09RZS","2022-05-19T23:47:25.451Z","rhyme-same_different-task_switching-phon_sim","","1314","rhyme","<div style=""border: 3px solid #000000; position: fixed;left:14%;top:30%""><img src=""visual/key.png"" width=""300""></div><div style=""border: 3px solid #000000; position: fixed;left:64%;top:30%""><img src=""visual/snail.png"" width=""300""></div>","arrowdown","","true","experiment","visual/key.png","visual/snail.png","ArrowDown","NR","","","","","","","","","","","","","","","","","","","","","","","","","",""
"","","","","","html-keyboard-response","161","354575","0.0-6.0-0.48","AKR9067Q09RZS","2022-05-19T23:47:25.451Z","rhyme-same_different-task_switching-phon_sim","","null","rhyme","<div style=""font-size:60px;"">+</div>","null","500","","","","","","","","","","","","","","","","","","","","","","","","","","","","","","","",""
"","","","","","html-keyboard-response","162","355076","0.0-6.0-1.48","AKR9067Q09RZS","2022-05-19T23:47:25.451Z","rhyme-same_different-task_switching-phon_sim","","null","rhyme","<img src=""square.png"" width=""306"" height=""306"" style=""position: fixed;left:14%;top:30%""><img src=""square.png"" width=""306"" height=""306"" style=""position: fixed;left:64%;top:30%"">","null","","","","","","","","","","","","","","","","","","","","","","","","","","","","","","","","",""
"","","","","","html-keyboard-response","163","357112","0.0-6.0-2.48","AKR9067Q09RZS","2022-05-19T23:47:25.451Z","rhyme-same_different-task_switching-phon_sim","","2034","rhyme","<div style=""border: 3px solid #000000; position: fixed;left:14%;top:30%""><img src=""visual/shark.png"" width=""300""></div><div style=""border: 3px solid #000000; position: fixed;left:64%;top:30%""><img src=""visual/park.png"" width=""300""></div>","arrowup","","true","experiment","visual/shark.png","visual/park.png","ArrowUp","ortho","","","","","","","","","","","","","","","","","","","","","","","","","",""
"","","","","","html-keyboard-response","164","358114","0.0-6.0-0.49","AKR9067Q09RZS","2022-05-19T23:47:25.451Z","rhyme-same_different-task_switching-phon_sim","","null","rhyme","<div style=""font-size:60px;"">+</div>","null","1000","","","","","","","","","","","","","","","","","","","","","","","","","","","","","","","",""
"","","","","","html-keyboard-response","165","358616","0.0-6.0-1.49","AKR9067Q09RZS","2022-05-19T23:47:25.451Z","rhyme-same_different-task_switching-phon_sim","","null","rhyme","<img src=""square.png"" width=""306"" height=""306"" style=""position: fixed;left:14%;top:30%""><img src=""square.png"" width=""306"" height=""306"" style=""position: fixed;left:64%;top:30%"">","null","","","","","","","","","","","","","","","","","","","","","","","","","","","","","","","","",""
"","","","","","html-keyboard-response","166","359856","0.0-6.0-2.49","AKR9067Q09RZS","2022-05-19T23:47:25.451Z","rhyme-same_different-task_switching-phon_sim","","1238","rhyme","<div style=""border: 3px solid #000000; position: fixed;left:14%;top:30%""><img src=""visual/nose.png"" width=""300""></div><div style=""border: 3px solid #000000; position: fixed;left:64%;top:30%""><img src=""visual/bell.png"" width=""300""></div>","arrowdown","","true","experiment","visual/nose.png","visual/bell.png","ArrowDown","NR","","","","","","","","","","","","","","","","","","","","","","","","","",""
"","","","","","html-keyboard-response","167","360857","0.0-6.0-0.50","AKR9067Q09RZS","2022-05-19T23:47:25.451Z","rhyme-same_different-task_switching-phon_sim","","null","rhyme","<div style=""font-size:60px;"">+</div>","null","1000","","","","","","","","","","","","","","","","","","","","","","","","","","","","","","","",""
"","","","","","html-keyboard-response","168","361359","0.0-6.0-1.50","AKR9067Q09RZS","2022-05-19T23:47:25.451Z","rhyme-same_different-task_switching-phon_sim","","null","rhyme","<img src=""square.png"" width=""306"" height=""306"" style=""position: fixed;left:14%;top:30%""><img src=""square.png"" width=""306"" height=""306"" style=""position: fixed;left:64%;top:30%"">","null","","","","","","","","","","","","","","","","","","","","","","","","","","","","","","","","",""
"","","","","","html-keyboard-response","169","362663","0.0-6.0-2.50","AKR9067Q09RZS","2022-05-19T23:47:25.451Z","rhyme-same_different-task_switching-phon_sim","","1302","rhyme","<div style=""border: 3px solid #000000; position: fixed;left:14%;top:30%""><img src=""visual/egg.png"" width=""300""></div><div style=""border: 3px solid #000000; position: fixed;left:64%;top:30%""><img src=""visual/ring.png"" width=""300""></div>","arrowdown","","true","experiment","visual/egg.png","visual/ring.png","ArrowDown","NR","","","","","","","","","","","","","","","","","","","","","","","","","",""
"","","","","","html-keyboard-response","170","363166","0.0-6.0-0.51","AKR9067Q09RZS","2022-05-19T23:47:25.451Z","rhyme-same_different-task_switching-phon_sim","","null","rhyme","<div style=""font-size:60px;"">+</div>","null","500","","","","","","","","","","","","","","","","","","","","","","","","","","","","","","","",""
"","","","","","html-keyboard-response","171","363668","0.0-6.0-1.51","AKR9067Q09RZS","2022-05-19T23:47:25.451Z","rhyme-same_different-task_switching-phon_sim","","null","rhyme","<img src=""square.png"" width=""306"" height=""306"" style=""position: fixed;left:14%;top:30%""><img src=""square.png"" width=""306"" height=""306"" style=""position: fixed;left:64%;top:30%"">","null","","","","","","","","","","","","","","","","","","","","","","","","","","","","","","","","",""
"","","","","","html-keyboard-response","172","364863","0.0-6.0-2.51","AKR9067Q09RZS","2022-05-19T23:47:25.451Z","rhyme-same_different-task_switching-phon_sim","","1192","rhyme","<div style=""border: 3px solid #000000; position: fixed;left:14%;top:30%""><img src=""visual/box.png"" width=""300""></div><div style=""border: 3px solid #000000; position: fixed;left:64%;top:30%""><img src=""visual/fox.png"" width=""300""></div>","arrowup","","true","experiment","visual/box.png","visual/fox.png","ArrowUp","ortho","","","","","","","","","","","","","","","","","","","","","","","","","",""
"","","","","","html-keyboard-response","173","365114","0.0-6.0-0.52","AKR9067Q09RZS","2022-05-19T23:47:25.451Z","rhyme-same_different-task_switching-phon_sim","","null","rhyme","<div style=""font-size:60px;"">+</div>","null","250","","","","","","","","","","","","","","","","","","","","","","","","","","","","","","","",""
"","","","","","html-keyboard-response","174","365616","0.0-6.0-1.52","AKR9067Q09RZS","2022-05-19T23:47:25.451Z","rhyme-same_different-task_switching-phon_sim","","null","rhyme","<img src=""square.png"" width=""306"" height=""306"" style=""position: fixed;left:14%;top:30%""><img src=""square.png"" width=""306"" height=""306"" style=""position: fixed;left:64%;top:30%"">","null","","","","","","","","","","","","","","","","","","","","","","","","","","","","","","","","",""
"","","","","","html-keyboard-response","175","367455","0.0-6.0-2.52","AKR9067Q09RZS","2022-05-19T23:47:25.451Z","rhyme-same_different-task_switching-phon_sim","","1837","rhyme","<div style=""border: 3px solid #000000; position: fixed;left:14%;top:30%""><img src=""visual/bed.png"" width=""300""></div><div style=""border: 3px solid #000000; position: fixed;left:64%;top:30%""><img src=""visual/bread.png"" width=""300""></div>","arrowup","","true","experiment","visual/bed.png","visual/bread.png","ArrowUp","non-ortho","","","","","","","","","","","","","","","","","","","","","","","","","",""
"","","","","","html-keyboard-response","176","368457","0.0-6.0-0.53","AKR9067Q09RZS","2022-05-19T23:47:25.451Z","rhyme-same_different-task_switching-phon_sim","","null","rhyme","<div style=""font-size:60px;"">+</div>","null","1000","","","","","","","","","","","","","","","","","","","","","","","","","","","","","","","",""
"","","","","","html-keyboard-response","177","368959","0.0-6.0-1.53","AKR9067Q09RZS","2022-05-19T23:47:25.451Z","rhyme-same_different-task_switching-phon_sim","","null","rhyme","<img src=""square.png"" width=""306"" height=""306"" style=""position: fixed;left:14%;top:30%""><img src=""square.png"" width=""306"" height=""306"" style=""position: fixed;left:64%;top:30%"">","null","","","","","","","","","","","","","","","","","","","","","","","","","","","","","","","","",""
"","","","","","html-keyboard-response","178","370390","0.0-6.0-2.53","AKR9067Q09RZS","2022-05-19T23:47:25.451Z","rhyme-same_different-task_switching-phon_sim","","1429","rhyme","<div style=""border: 3px solid #000000; position: fixed;left:14%;top:30%""><img src=""visual/star.png"" width=""300""></div><div style=""border: 3px solid #000000; position: fixed;left:64%;top:30%""><img src=""visual/jar.png"" width=""300""></div>","arrowup","","true","experiment","visual/star.png","visual/jar.png","ArrowUp","ortho","","","","","","","","","","","","","","","","","","","","","","","","","",""
"","","","","","html-keyboard-response","179","371141","0.0-6.0-0.54","AKR9067Q09RZS","2022-05-19T23:47:25.451Z","rhyme-same_different-task_switching-phon_sim","","null","rhyme","<div style=""font-size:60px;"">+</div>","null","750","","","","","","","","","","","","","","","","","","","","","","","","","","","","","","","",""
"","","","","","html-keyboard-response","180","371644","0.0-6.0-1.54","AKR9067Q09RZS","2022-05-19T23:47:25.451Z","rhyme-same_different-task_switching-phon_sim","","null","rhyme","<img src=""square.png"" width=""306"" height=""306"" style=""position: fixed;left:14%;top:30%""><img src=""square.png"" width=""306"" height=""306"" style=""position: fixed;left:64%;top:30%"">","null","","","","","","","","","","","","","","","","","","","","","","","","","","","","","","","","",""
"","","","","","html-keyboard-response","181","373614","0.0-6.0-2.54","AKR9067Q09RZS","2022-05-19T23:47:25.451Z","rhyme-same_different-task_switching-phon_sim","","1968","rhyme","<div style=""border: 3px solid #000000; position: fixed;left:14%;top:30%""><img src=""visual/bear.png"" width=""300""></div><div style=""border: 3px solid #000000; position: fixed;left:64%;top:30%""><img src=""visual/crane.png"" width=""300""></div>","arrowdown","","true","experiment","visual/bear.png","visual/crane.png","ArrowDown","NR","","","","","","","","","","","","","","","","","","","","","","","","","",""
"","","","","","html-keyboard-response","182","374117","0.0-6.0-0.55","AKR9067Q09RZS","2022-05-19T23:47:25.451Z","rhyme-same_different-task_switching-phon_sim","","null","rhyme","<div style=""font-size:60px;"">+</div>","null","500","","","","","","","","","","","","","","","","","","","","","","","","","","","","","","","",""
"","","","","","html-keyboard-response","183","374619","0.0-6.0-1.55","AKR9067Q09RZS","2022-05-19T23:47:25.451Z","rhyme-same_different-task_switching-phon_sim","","null","rhyme","<img src=""square.png"" width=""306"" height=""306"" style=""position: fixed;left:14%;top:30%""><img src=""square.png"" width=""306"" height=""306"" style=""position: fixed;left:64%;top:30%"">","null","","","","","","","","","","","","","","","","","","","","","","","","","","","","","","","","",""
"","","","","","html-keyboard-response","184","375933","0.0-6.0-2.55","AKR9067Q09RZS","2022-05-19T23:47:25.451Z","rhyme-same_different-task_switching-phon_sim","","1313","rhyme","<div style=""border: 3px solid #000000; position: fixed;left:14%;top:30%""><img src=""visual/eye.png"" width=""300""></div><div style=""border: 3px solid #000000; position: fixed;left:64%;top:30%""><img src=""visual/tie.png"" width=""300""></div>","arrowup","","true","experiment","visual/eye.png","visual/tie.png","ArrowUp","non-ortho","","","","","","","","","","","","","","","","","","","","","","","","","",""
"","","","","","html-keyboard-response","185","376186","0.0-6.0-0.56","AKR9067Q09RZS","2022-05-19T23:47:25.451Z","rhyme-same_different-task_switching-phon_sim","","null","rhyme","<div style=""font-size:60px;"">+</div>","null","250","","","","","","","","","","","","","","","","","","","","","","","","","","","","","","","",""
"","","","","","html-keyboard-response","186","376688","0.0-6.0-1.56","AKR9067Q09RZS","2022-05-19T23:47:25.451Z","rhyme-same_different-task_switching-phon_sim","","null","rhyme","<img src=""square.png"" width=""306"" height=""306"" style=""position: fixed;left:14%;top:30%""><img src=""square.png"" width=""306"" height=""306"" style=""position: fixed;left:64%;top:30%"">","null","","","","","","","","","","","","","","","","","","","","","","","","","","","","","","","","",""
"","","","","","html-keyboard-response","187","378350","0.0-6.0-2.56","AKR9067Q09RZS","2022-05-19T23:47:25.451Z","rhyme-same_different-task_switching-phon_sim","","1658","rhyme","<div style=""border: 3px solid #000000; position: fixed;left:14%;top:30%""><img src=""visual/saw.png"" width=""300""></div><div style=""border: 3px solid #000000; position: fixed;left:64%;top:30%""><img src=""visual/claw.png"" width=""300""></div>","arrowup","","true","experiment","visual/saw.png","visual/claw.png","ArrowUp","ortho","","","","","","","","","","","","","","","","","","","","","","","","","",""
"","","","","","html-keyboard-response","188","378850","0.0-6.0-0.57","AKR9067Q09RZS","2022-05-19T23:47:25.451Z","rhyme-same_different-task_switching-phon_sim","","null","rhyme","<div style=""font-size:60px;"">+</div>","null","500","","","","","","","","","","","","","","","","","","","","","","","","","","","","","","","",""
"","","","","","html-keyboard-response","189","379353","0.0-6.0-1.57","AKR9067Q09RZS","2022-05-19T23:47:25.451Z","rhyme-same_different-task_switching-phon_sim","","null","rhyme","<img src=""square.png"" width=""306"" height=""306"" style=""position: fixed;left:14%;top:30%""><img src=""square.png"" width=""306"" height=""306"" style=""position: fixed;left:64%;top:30%"">","null","","","","","","","","","","","","","","","","","","","","","","","","","","","","","","","","",""
"","","","","","html-keyboard-response","190","381101","0.0-6.0-2.57","AKR9067Q09RZS","2022-05-19T23:47:25.451Z","rhyme-same_different-task_switching-phon_sim","","1746","rhyme","<div style=""border: 3px solid #000000; position: fixed;left:14%;top:30%""><img src=""visual/wheel.png"" width=""300""></div><div style=""border: 3px solid #000000; position: fixed;left:64%;top:30%""><img src=""visual/seal.png"" width=""300""></div>","arrowup","","true","experiment","visual/wheel.png","visual/seal.png","ArrowUp","non-ortho","","","","","","","","","","","","","","","","","","","","","","","","","",""
"","","","","","html-keyboard-response","191","381603","0.0-6.0-0.58","AKR9067Q09RZS","2022-05-19T23:47:25.451Z","rhyme-same_different-task_switching-phon_sim","","null","rhyme","<div style=""font-size:60px;"">+</div>","null","500","","","","","","","","","","","","","","","","","","","","","","","","","","","","","","","",""
"","","","","","html-keyboard-response","192","382105","0.0-6.0-1.58","AKR9067Q09RZS","2022-05-19T23:47:25.451Z","rhyme-same_different-task_switching-phon_sim","","null","rhyme","<img src=""square.png"" width=""306"" height=""306"" style=""position: fixed;left:14%;top:30%""><img src=""square.png"" width=""306"" height=""306"" style=""position: fixed;left:64%;top:30%"">","null","","","","","","","","","","","","","","","","","","","","","","","","","","","","","","","","",""
"","","","","","html-keyboard-response","193","383437","0.0-6.0-2.58","AKR9067Q09RZS","2022-05-19T23:47:25.451Z","rhyme-same_different-task_switching-phon_sim","","1331","rhyme","<div style=""border: 3px solid #000000; position: fixed;left:14%;top:30%""><img src=""visual/dart.png"" width=""300""></div><div style=""border: 3px solid #000000; position: fixed;left:64%;top:30%""><img src=""visual/heart.png"" width=""300""></div>","arrowup","","true","experiment","visual/dart.png","visual/heart.png","ArrowUp","non-ortho","","","","","","","","","","","","","","","","","","","","","","","","","",""
"","","","","","html-keyboard-response","194","384190","0.0-6.0-0.59","AKR9067Q09RZS","2022-05-19T23:47:25.451Z","rhyme-same_different-task_switching-phon_sim","","null","rhyme","<div style=""font-size:60px;"">+</div>","null","750","","","","","","","","","","","","","","","","","","","","","","","","","","","","","","","",""
"","","","","","html-keyboard-response","195","384692","0.0-6.0-1.59","AKR9067Q09RZS","2022-05-19T23:47:25.451Z","rhyme-same_different-task_switching-phon_sim","","null","rhyme","<img src=""square.png"" width=""306"" height=""306"" style=""position: fixed;left:14%;top:30%""><img src=""square.png"" width=""306"" height=""306"" style=""position: fixed;left:64%;top:30%"">","null","","","","","","","","","","","","","","","","","","","","","","","","","","","","","","","","",""
"","","","","","html-keyboard-response","196","386278","0.0-6.0-2.59","AKR9067Q09RZS","2022-05-19T23:47:25.451Z","rhyme-same_different-task_switching-phon_sim","","1584","rhyme","<div style=""border: 3px solid #000000; position: fixed;left:14%;top:30%""><img src=""visual/bone.png"" width=""300""></div><div style=""border: 3px solid #000000; position: fixed;left:64%;top:30%""><img src=""visual/cone.png"" width=""300""></div>","arrowup","","true","experiment","visual/bone.png","visual/cone.png","ArrowUp","ortho","","","","","","","","","","","","","","","","","","","","","","","","","",""
"","","","","","survey-multi-choice","197","395802","0.0-7.0","AKR9067Q09RZS","2022-05-19T23:47:25.451Z","rhyme-same_different-task_switching-phon_sim","","9520","rhyme","","{""Q0"":""Yes""}","","","","","","","","[0]","Yes","","","","","","","","","","","","","","","","","","","","","","","",""
"","","","","","survey-text","198","461584","0.0-8.0","AKR9067Q09RZS","2022-05-19T23:47:25.451Z","rhyme-same_different-task_switching-phon_sim","","65776","rhyme","","{""Q0"":""I tried to quickly reference in my mind if I had heard the two words referenced together in rhyme before. I also tried to think ahead about what rhymed with certain words.""}","","","","","","","","","","I tried to quickly reference in my mind if I had heard the two words referenced together in rhyme before. I also tried to think ahead about what rhymed with certain words.","","","","","","","","","","","","","","","","","","","","","","",""
"","","","","","instructions","199","463710","0.0-9.0","AKR9067Q09RZS","2022-05-19T23:47:25.451Z","rhyme-same_different-task_switching-phon_sim","[{""page_index"":0,""viewing_time"":2125}]","2125","rhyme","","","","","","","","","","","","","","","","","","","","","","","","","","","","","","","","","","",""
"","","","","","instructions","200","589002","0.0-10.0","AKR9067Q09RZS","2022-05-19T23:47:25.451Z","rhyme-same_different-task_switching-phon_sim","[{""page_index"":0,""viewing_time"":125303}]","125304","same_different","","","","","","","","","","","","","","","","","","","","","","","","","","","","","","","","","","",""
"","","","","","instructions","201","618391","0.0-11.0","AKR9067Q09RZS","2022-05-19T23:47:25.451Z","rhyme-same_different-task_switching-phon_sim","[{""page_index"":0,""viewing_time"":29389}]","29389","","","","","","","","","","","","","","","","","","","","","","","","","","","","","","","","","","","",""
"","","","","","html-keyboard-response","202","619143","0.0-12.0-0.0","AKR9067Q09RZS","2022-05-19T23:47:25.451Z","rhyme-same_different-task_switching-phon_sim","","null","same_different","<div style=""font-size:60px"">+</div>","null","","","","","","","","","","","","","","","","","","","","","","","","","","","","","","","","",""
"","","","","","html-keyboard-response","203","622624","0.0-12.0-1.0","AKR9067Q09RZS","2022-05-19T23:47:25.451Z","rhyme-same_different-task_switching-phon_sim","","3478","same_different","[""<img src=\""square.png\"" width=\""100\"" height=\""100\"" style=\""position: fixed;left:39%;top:47%\""><img src=\""square.png\"" width=\""100\"" height=\""100\"" style=\""position: fixed;left:54%;top:47%\""><img src=\""square.png\"" width=\""100\"" height=\""100\"" style=\""position: fixed;left:46.5%;top:32%\""><img src=\""square.png\"" width=\""100\"" height=\""100\"" style=\""position: fixed;left:46.5%;top:61%\""><div style=\""font-size:60px; text-align: center;margin-top:45.5%\"">+</div><div id=\""first\"" style=\""position: fixed;visibility: hidden;left:40%;top:48%\""><img src=\""same_diff_imgs/D11.gif\""></div><div id=\""delayed\"" style=\""position: fixed;visibility: hidden;left:48%;top:62%\""><img src=\""same_diff_imgs/D11.gif\""></div>""]","arrowup","","true","","","","","","","","","identical_image","same_diff_imgs/D11.gif","same_diff_imgs/D11.gif","no","same","1","","","","","","","","","","","","","","","","",""
"","","","","","html-keyboard-response","204","622626","0.0-12.0-2.0","AKR9067Q09RZS","2022-05-19T23:47:25.451Z","rhyme-same_different-task_switching-phon_sim","","null",""," ","null","","","","","","","","","","","","","","","","","","","","","","","","","","","","","","","","",""
"","","","","","html-keyboard-response","205","622927","0.0-12.0-3.0","AKR9067Q09RZS","2022-05-19T23:47:25.451Z","rhyme-same_different-task_switching-phon_sim","","null","same_different"," ","null","","","","","","","","","","","","","","","","","","","","","","","","","","","","","","","","",""
"","","","","","html-keyboard-response","206","623679","0.0-12.0-0.1","AKR9067Q09RZS","2022-05-19T23:47:25.451Z","rhyme-same_different-task_switching-phon_sim","","null","same_different","<div style=""font-size:60px"">+</div>","null","","","","","","","","","","","","","","","","","","","","","","","","","","","","","","","","",""
"","","","","","html-keyboard-response","207","625703","0.0-12.0-1.1","AKR9067Q09RZS","2022-05-19T23:47:25.451Z","rhyme-same_different-task_switching-phon_sim","","2022","same_different","[""<img src=\""square.png\"" width=\""100\"" height=\""100\"" style=\""position: fixed;left:39%;top:47%\""><img src=\""square.png\"" width=\""100\"" height=\""100\"" style=\""position: fixed;left:54%;top:47%\""><img src=\""square.png\"" width=\""100\"" height=\""100\"" style=\""position: fixed;left:46.5%;top:32%\""><img src=\""square.png\"" width=\""100\"" height=\""100\"" style=\""position: fixed;left:46.5%;top:61%\""><div style=\""font-size:60px; text-align: center;margin-top:45.5%\"">+</div><div id=\""first\"" style=\""position: fixed;visibility: hidden;left:48%;top:34%\""><img src=\""same_diff_imgs/C09.gif\""></div><div id=\""delayed\"" style=\""position: fixed;visibility: hidden;left:40%;top:48%\""><img src=\""same_diff_imgs/C04.gif\""></div>""]","arrowdown","","true","","","","","","","","","identical_image","same_diff_imgs/C09.gif","same_diff_imgs/C04.gif","no","different","","1","","","","","","","","","","","","","","","",""
"","","","","","html-keyboard-response","208","625705","0.0-12.0-2.1","AKR9067Q09RZS","2022-05-19T23:47:25.451Z","rhyme-same_different-task_switching-phon_sim","","null",""," ","null","","","","","","","","","","","","","","","","","","","","","","","","","","","","","","","","",""
"","","","","","html-keyboard-response","209","626006","0.0-12.0-3.1","AKR9067Q09RZS","2022-05-19T23:47:25.451Z","rhyme-same_different-task_switching-phon_sim","","null","same_different"," ","null","","","","","","","","","","","","","","","","","","","","","","","","","","","","","","","","",""
"","","","","","html-keyboard-response","210","626758","0.0-12.0-0.2","AKR9067Q09RZS","2022-05-19T23:47:25.451Z","rhyme-same_different-task_switching-phon_sim","","null","same_different","<div style=""font-size:60px"">+</div>","null","","","","","","","","","","","","","","","","","","","","","","","","","","","","","","","","",""
"","","","","","html-keyboard-response","211","629247","0.0-12.0-1.2","AKR9067Q09RZS","2022-05-19T23:47:25.451Z","rhyme-same_different-task_switching-phon_sim","","2486","same_different","[""<img src=\""square.png\"" width=\""100\"" height=\""100\"" style=\""position: fixed;left:39%;top:47%\""><img src=\""square.png\"" width=\""100\"" height=\""100\"" style=\""position: fixed;left:54%;top:47%\""><img src=\""square.png\"" width=\""100\"" height=\""100\"" style=\""position: fixed;left:46.5%;top:32%\""><img src=\""square.png\"" width=\""100\"" height=\""100\"" style=\""position: fixed;left:46.5%;top:61%\""><div style=\""font-size:60px; text-align: center;margin-top:45.5%\"">+</div><div id=\""first\"" style=\""position: fixed;visibility: hidden;left:48%;top:62%\""><img src=\""same_diff_imgs/D07.gif\""></div><div id=\""delayed\"" style=\""position: fixed;visibility: hidden;left:40%;top:48%\""><img src=\""same_diff_imgs/D07.gif\""></div>""]","arrowup","","true","","","","","","","","","identical_image","same_diff_imgs/D07.gif","same_diff_imgs/D07.gif","no","same","1","","","","","","","","","","","","","","","","",""
"","","","","","html-keyboard-response","212","629247","0.0-12.0-2.2","AKR9067Q09RZS","2022-05-19T23:47:25.451Z","rhyme-same_different-task_switching-phon_sim","","null",""," ","null","","","","","","","","","","","","","","","","","","","","","","","","","","","","","","","","",""
"","","","","","html-keyboard-response","213","629548","0.0-12.0-3.2","AKR9067Q09RZS","2022-05-19T23:47:25.451Z","rhyme-same_different-task_switching-phon_sim","","null","same_different"," ","null","","","","","","","","","","","","","","","","","","","","","","","","","","","","","","","","",""
