"success","timeout","failed_images","failed_audio","failed_video","trial_type","trial_index","time_elapsed","internal_node_id","worker_id","start_time","experiment_order","view_history","rt","experiment","response","phase","stimulus","condition","answer","correct","operation","trial_no","color_cue","symbol_cue","question_order","talk_out_loud","strategy_free_ans","wait_time","image_1","image_2","cor_key","type","word_1","word_2","word_3","word_4","word_5","original_word_set","response_1","response_2","response_3","response_4","response_5","judgment_type","stim_1","stim_2","inverted","true_pos","true_neg","false_pos","false_neg"
"true","false","[]","[]","[]","preload","0","2884","0.0-0.0","A3SS0C4IVTSIFL","2022-05-19T09:38:41.234Z","task_switching-rhyme-phon_sim-same_different","","","","","","","","","","","","","","","","","","","","","","","","","","","","","","","","","","","","","","","",""
"","","","","","instructions","1","7298","0.0-1.0","A3SS0C4IVTSIFL","2022-05-19T09:38:41.234Z","task_switching-rhyme-phon_sim-same_different","[{""page_index"":0,""viewing_time"":4412.100000008941}]","4413.20000000298","","","","","","","","","","","","","","","","","","","","","","","","","","","","","","","","","","","","","",""
"true","","","","","fullscreen","2","10920","0.0-2.0","A3SS0C4IVTSIFL","2022-05-19T09:38:41.234Z","task_switching-rhyme-phon_sim-same_different","","","","","","","","","","","","","","","","","","","","","","","","","","","","","","","","","","","","","","","",""
"","","","","","instructions","3","142821","0.0-3.0","A3SS0C4IVTSIFL","2022-05-19T09:38:41.234Z","task_switching-rhyme-phon_sim-same_different","[{""page_index"":0,""viewing_time"":131899.5}]","131899.70000000298","task_switching","","","","","","","","","","","","","","","","","","","","","","","","","","","","","","","","","","","","",""
"","","","","","instructions","4","149857","0.0-4.0","A3SS0C4IVTSIFL","2022-05-19T09:38:41.234Z","task_switching-rhyme-phon_sim-same_different","[{""page_index"":0,""viewing_time"":7035.29999999702}]","7035.4000000059605","task_switching","","","","","","","","","","","","","","","","","","","","","","","","","","","","","","","","","","","","",""
"","","","","","survey-text","5","152904","0.0-5.0","A3SS0C4IVTSIFL","2022-05-19T09:38:41.234Z","task_switching-rhyme-phon_sim-same_different","","3036.800000011921","task_switching","{""subtraction_ans"":""12""}","training","15","subtraction","12","true","subtract","","","","","","","","","","","","","","","","","","","","","","","","","","","","","",""
"","","","","","html-keyboard-response","6","153907","0.0-6.0","A3SS0C4IVTSIFL","2022-05-19T09:38:41.234Z","task_switching-rhyme-phon_sim-same_different","","null","task_switching","null","training","<div style=""color:darkgreen; font-size:60px"">Well done!</div>","subtraction","","","","","","","","","","","","","","","","","","","","","","","","","","","","","","","","",""
"","","","","","survey-text","7","156898","0.0-7.0","A3SS0C4IVTSIFL","2022-05-19T09:38:41.234Z","task_switching-rhyme-phon_sim-same_different","","2989","task_switching","{""subtraction_ans"":""90""}","training","93","subtraction","90","true","subtract","","","","","","","","","","","","","","","","","","","","","","","","","","","","","",""
"","","","","","html-keyboard-response","8","157901","0.0-8.0","A3SS0C4IVTSIFL","2022-05-19T09:38:41.234Z","task_switching-rhyme-phon_sim-same_different","","null","task_switching","null","training","<div style=""color:darkgreen; font-size:60px"">Well done!</div>","subtraction","","","","","","","","","","","","","","","","","","","","","","","","","","","","","","","","",""
"","","","","","survey-text","9","160434","0.0-9.0","A3SS0C4IVTSIFL","2022-05-19T09:38:41.234Z","task_switching-rhyme-phon_sim-same_different","","2530.4000000059605","task_switching","{""subtraction_ans"":""16""}","training","19","subtraction","16","true","subtract","","","","","","","","","","","","","","","","","","","","","","","","","","","","","",""
"","","","","","html-keyboard-response","10","161436","0.0-10.0","A3SS0C4IVTSIFL","2022-05-19T09:38:41.234Z","task_switching-rhyme-phon_sim-same_different","","null","task_switching","null","training","<div style=""color:darkgreen; font-size:60px"">Well done!</div>","subtraction","","","","","","","","","","","","","","","","","","","","","","","","","","","","","","","","",""
"","","","","","survey-text","11","164255","0.0-11.0","A3SS0C4IVTSIFL","2022-05-19T09:38:41.234Z","task_switching-rhyme-phon_sim-same_different","","2816.0999999940395","task_switching","{""subtraction_ans"":""46""}","training","49","subtraction","46","true","subtract","","","","","","","","","","","","","","","","","","","","","","","","","","","","","",""
"","","","","","html-keyboard-response","12","165257","0.0-12.0","A3SS0C4IVTSIFL","2022-05-19T09:38:41.234Z","task_switching-rhyme-phon_sim-same_different","","null","task_switching","null","training","<div style=""color:darkgreen; font-size:60px"">Well done!</div>","subtraction","","","","","","","","","","","","","","","","","","","","","","","","","","","","","","","","",""
"","","","","","survey-text","13","168075","0.0-13.0","A3SS0C4IVTSIFL","2022-05-19T09:38:41.234Z","task_switching-rhyme-phon_sim-same_different","","2815.2000000029802","task_switching","{""subtraction_ans"":""41""}","training","44","subtraction","41","true","subtract","","","","","","","","","","","","","","","","","","","","","","","","","","","","","",""
"","","","","","html-keyboard-response","14","169078","0.0-14.0","A3SS0C4IVTSIFL","2022-05-19T09:38:41.234Z","task_switching-rhyme-phon_sim-same_different","","null","task_switching","null","training","<div style=""color:darkgreen; font-size:60px"">Well done!</div>","subtraction","","","","","","","","","","","","","","","","","","","","","","","","","","","","","","","","",""
"","","","","","survey-text","15","172073","0.0-15.0","A3SS0C4IVTSIFL","2022-05-19T09:38:41.234Z","task_switching-rhyme-phon_sim-same_different","","2992","task_switching","{""subtraction_ans"":""53""}","training","56","subtraction","53","true","subtract","","","","","","","","","","","","","","","","","","","","","","","","","","","","","",""
"","","","","","html-keyboard-response","16","173075","0.0-16.0","A3SS0C4IVTSIFL","2022-05-19T09:38:41.234Z","task_switching-rhyme-phon_sim-same_different","","null","task_switching","null","training","<div style=""color:darkgreen; font-size:60px"">Well done!</div>","subtraction","","","","","","","","","","","","","","","","","","","","","","","","","","","","","","","","",""
"","","","","","survey-text","17","176208","0.0-17.0","A3SS0C4IVTSIFL","2022-05-19T09:38:41.234Z","task_switching-rhyme-phon_sim-same_different","","3130.2999999970198","task_switching","{""subtraction_ans"":""87""}","training","90","subtraction","87","true","subtract","","","","","","","","","","","","","","","","","","","","","","","","","","","","","",""
"","","","","","html-keyboard-response","18","177209","0.0-18.0","A3SS0C4IVTSIFL","2022-05-19T09:38:41.234Z","task_switching-rhyme-phon_sim-same_different","","null","task_switching","null","training","<div style=""color:darkgreen; font-size:60px"">Well done!</div>","subtraction","","","","","","","","","","","","","","","","","","","","","","","","","","","","","","","","",""
"","","","","","survey-text","19","179617","0.0-19.0","A3SS0C4IVTSIFL","2022-05-19T09:38:41.234Z","task_switching-rhyme-phon_sim-same_different","","2404.5999999940395","task_switching","{""subtraction_ans"":""22""}","training","25","subtraction","22","true","subtract","","","","","","","","","","","","","","","","","","","","","","","","","","","","","",""
"","","","","","html-keyboard-response","20","180619","0.0-20.0","A3SS0C4IVTSIFL","2022-05-19T09:38:41.234Z","task_switching-rhyme-phon_sim-same_different","","null","task_switching","null","training","<div style=""color:darkgreen; font-size:60px"">Well done!</div>","subtraction","","","","","","","","","","","","","","","","","","","","","","","","","","","","","","","","",""
"","","","","","survey-text","21","182940","0.0-21.0","A3SS0C4IVTSIFL","2022-05-19T09:38:41.234Z","task_switching-rhyme-phon_sim-same_different","","2316.699999988079","task_switching","{""subtraction_ans"":""31""}","training","34","subtraction","31","true","subtract","","","","","","","","","","","","","","","","","","","","","","","","","","","","","",""
"","","","","","html-keyboard-response","22","183942","0.0-22.0","A3SS0C4IVTSIFL","2022-05-19T09:38:41.234Z","task_switching-rhyme-phon_sim-same_different","","null","task_switching","null","training","<div style=""color:darkgreen; font-size:60px"">Well done!</div>","subtraction","","","","","","","","","","","","","","","","","","","","","","","","","","","","","","","","",""
"","","","","","survey-text","23","186767","0.0-23.0","A3SS0C4IVTSIFL","2022-05-19T09:38:41.234Z","task_switching-rhyme-phon_sim-same_different","","2821.7999999970198","task_switching","{""subtraction_ans"":""67""}","training","70","subtraction","67","true","subtract","","","","","","","","","","","","","","","","","","","","","","","","","","","","","",""
"","","","","","html-keyboard-response","24","187769","0.0-24.0","A3SS0C4IVTSIFL","2022-05-19T09:38:41.234Z","task_switching-rhyme-phon_sim-same_different","","null","task_switching","null","training","<div style=""color:darkgreen; font-size:60px"">Well done!</div>","subtraction","","","","","","","","","","","","","","","","","","","","","","","","","","","","","","","","",""
"","","","","","instructions","25","208942","0.0-25.0","A3SS0C4IVTSIFL","2022-05-19T09:38:41.234Z","task_switching-rhyme-phon_sim-same_different","[{""page_index"":0,""viewing_time"":21171.39999999106}]","21172","task_switching","","","","","","","","","","","","","","","","","","","","","","","","","","","","","","","","","","","","",""
"","","","","","survey-text","26","213067","0.0-26.0","A3SS0C4IVTSIFL","2022-05-19T09:38:41.234Z","task_switching-rhyme-phon_sim-same_different","","4120.9000000059605","task_switching","{""subtraction_ans"":""74""}","experiment","77","subtraction","74","true","subtract","","","","","","","","","","","","","","","","","","","","","","","","","","","","","",""
"","","","","","survey-text","27","216093","0.0-27.0","A3SS0C4IVTSIFL","2022-05-19T09:38:41.234Z","task_switching-rhyme-phon_sim-same_different","","3020.5","task_switching","{""subtraction_ans"":""90""}","experiment","93","subtraction","90","true","subtract","","","","","","","","","","","","","","","","","","","","","","","","","","","","","",""
"","","","","","survey-text","28","218538","0.0-28.0","A3SS0C4IVTSIFL","2022-05-19T09:38:41.234Z","task_switching-rhyme-phon_sim-same_different","","2441.9000000059605","task_switching","{""subtraction_ans"":""87""}","experiment","80","subtraction","87","false","subtract","","","","","","","","","","","","","","","","","","","","","","","","","","","","","",""
"","","","","","survey-text","29","221604","0.0-29.0","A3SS0C4IVTSIFL","2022-05-19T09:38:41.234Z","task_switching-rhyme-phon_sim-same_different","","3062.5","task_switching","{""subtraction_ans"":""83""}","experiment","86","subtraction","83","true","subtract","","","","","","","","","","","","","","","","","","","","","","","","","","","","","",""
"","","","","","survey-text","30","224895","0.0-30.0","A3SS0C4IVTSIFL","2022-05-19T09:38:41.234Z","task_switching-rhyme-phon_sim-same_different","","3285.9000000059605","task_switching","{""subtraction_ans"":""62""}","experiment","65","subtraction","62","true","subtract","","","","","","","","","","","","","","","","","","","","","","","","","","","","","",""
"","","","","","survey-text","31","228519","0.0-31.0","A3SS0C4IVTSIFL","2022-05-19T09:38:41.234Z","task_switching-rhyme-phon_sim-same_different","","3621.199999988079","task_switching","{""subtraction_ans"":""86""}","experiment","89","subtraction","86","true","subtract","","","","","","","","","","","","","","","","","","","","","","","","","","","","","",""
"","","","","","survey-text","32","232008","0.0-32.0","A3SS0C4IVTSIFL","2022-05-19T09:38:41.234Z","task_switching-rhyme-phon_sim-same_different","","3485.9000000059605","task_switching","{""subtraction_ans"":""19""}","experiment","22","subtraction","19","true","subtract","","","","","","","","","","","","","","","","","","","","","","","","","","","","","",""
"","","","","","survey-text","33","235103","0.0-33.0","A3SS0C4IVTSIFL","2022-05-19T09:38:41.234Z","task_switching-rhyme-phon_sim-same_different","","3092.2000000029802","task_switching","{""subtraction_ans"":""15""}","experiment","18","subtraction","15","true","subtract","","","","","","","","","","","","","","","","","","","","","","","","","","","","","",""
"","","","","","survey-text","34","238327","0.0-34.0","A3SS0C4IVTSIFL","2022-05-19T09:38:41.234Z","task_switching-rhyme-phon_sim-same_different","","3220.5999999940395","task_switching","{""subtraction_ans"":""93""}","experiment","96","subtraction","93","true","subtract","","","","","","","","","","","","","","","","","","","","","","","","","","","","","",""
"","","","","","survey-text","35","241451","0.0-35.0","A3SS0C4IVTSIFL","2022-05-19T09:38:41.234Z","task_switching-rhyme-phon_sim-same_different","","3120.0999999940395","task_switching","{""subtraction_ans"":""72""}","experiment","75","subtraction","72","true","subtract","","","","","","","","","","","","","","","","","","","","","","","","","","","","","",""
"","","","","","survey-text","36","244302","0.0-36.0","A3SS0C4IVTSIFL","2022-05-19T09:38:41.234Z","task_switching-rhyme-phon_sim-same_different","","2847.7000000029802","task_switching","{""subtraction_ans"":""51""}","experiment","54","subtraction","51","true","subtract","","","","","","","","","","","","","","","","","","","","","","","","","","","","","",""
"","","","","","survey-text","37","246858","0.0-37.0","A3SS0C4IVTSIFL","2022-05-19T09:38:41.234Z","task_switching-rhyme-phon_sim-same_different","","2551.2000000029802","task_switching","{""subtraction_ans"":""65""}","experiment","68","subtraction","65","true","subtract","","","","","","","","","","","","","","","","","","","","","","","","","","","","","",""
"","","","","","survey-text","38","249893","0.0-38.0","A3SS0C4IVTSIFL","2022-05-19T09:38:41.234Z","task_switching-rhyme-phon_sim-same_different","","3030.4000000059605","task_switching","{""subtraction_ans"":""61""}","experiment","64","subtraction","61","true","subtract","","","","","","","","","","","","","","","","","","","","","","","","","","","","","",""
"","","","","","survey-text","39","252928","0.0-39.0","A3SS0C4IVTSIFL","2022-05-19T09:38:41.234Z","task_switching-rhyme-phon_sim-same_different","","3030.8999999910593","task_switching","{""subtraction_ans"":""89""}","experiment","92","subtraction","89","true","subtract","","","","","","","","","","","","","","","","","","","","","","","","","","","","","",""
"","","","","","survey-text","40","255917","0.0-40.0","A3SS0C4IVTSIFL","2022-05-19T09:38:41.234Z","task_switching-rhyme-phon_sim-same_different","","2985.4000000059605","task_switching","{""subtraction_ans"":""80""}","experiment","83","subtraction","80","true","subtract","","","","","","","","","","","","","","","","","","","","","","","","","","","","","",""
"","","","","","survey-text","41","258972","0.0-41.0","A3SS0C4IVTSIFL","2022-05-19T09:38:41.234Z","task_switching-rhyme-phon_sim-same_different","","3051.2000000029802","task_switching","{""subtraction_ans"":""28""}","experiment","31","subtraction","28","true","subtract","","","","","","","","","","","","","","","","","","","","","","","","","","","","","",""
"","","","","","survey-text","42","262332","0.0-42.0","A3SS0C4IVTSIFL","2022-05-19T09:38:41.234Z","task_switching-rhyme-phon_sim-same_different","","3356.5999999940395","task_switching","{""subtraction_ans"":""27""}","experiment","30","subtraction","27","true","subtract","","","","","","","","","","","","","","","","","","","","","","","","","","","","","",""
"","","","","","survey-text","43","264739","0.0-43.0","A3SS0C4IVTSIFL","2022-05-19T09:38:41.234Z","task_switching-rhyme-phon_sim-same_different","","2402.7999999970198","task_switching","{""subtraction_ans"":""67""}","experiment","70","subtraction","67","true","subtract","","","","","","","","","","","","","","","","","","","","","","","","","","","","","",""
"","","","","","survey-text","44","267619","0.0-44.0","A3SS0C4IVTSIFL","2022-05-19T09:38:41.234Z","task_switching-rhyme-phon_sim-same_different","","2876.2999999970198","task_switching","{""subtraction_ans"":""59""}","experiment","62","subtraction","59","true","subtract","","","","","","","","","","","","","","","","","","","","","","","","","","","","","",""
"","","","","","survey-text","45","271657","0.0-45.0","A3SS0C4IVTSIFL","2022-05-19T09:38:41.234Z","task_switching-rhyme-phon_sim-same_different","","4035.0999999940395","task_switching","{""subtraction_ans"":""70""}","experiment","73","subtraction","70","true","subtract","","","","","","","","","","","","","","","","","","","","","","","","","","","","","",""
"","","","","","survey-text","46","274821","0.0-46.0","A3SS0C4IVTSIFL","2022-05-19T09:38:41.234Z","task_switching-rhyme-phon_sim-same_different","","3160.2000000029802","task_switching","{""subtraction_ans"":""48""}","experiment","51","subtraction","48","true","subtract","","","","","","","","","","","","","","","","","","","","","","","","","","","","","",""
"","","","","","survey-text","47","278124","0.0-47.0","A3SS0C4IVTSIFL","2022-05-19T09:38:41.234Z","task_switching-rhyme-phon_sim-same_different","","3298.1000000089407","task_switching","{""subtraction_ans"":""64""}","experiment","67","subtraction","64","true","subtract","","","","","","","","","","","","","","","","","","","","","","","","","","","","","",""
"","","","","","survey-text","48","281169","0.0-48.0","A3SS0C4IVTSIFL","2022-05-19T09:38:41.234Z","task_switching-rhyme-phon_sim-same_different","","3040.300000011921","task_switching","{""subtraction_ans"":""24""}","experiment","27","subtraction","24","true","subtract","","","","","","","","","","","","","","","","","","","","","","","","","","","","","",""
"","","","","","survey-text","49","284373","0.0-49.0","A3SS0C4IVTSIFL","2022-05-19T09:38:41.234Z","task_switching-rhyme-phon_sim-same_different","","3199.7000000029802","task_switching","{""subtraction_ans"":""63""}","experiment","66","subtraction","63","true","subtract","","","","","","","","","","","","","","","","","","","","","","","","","","","","","",""
"","","","","","survey-text","50","288096","0.0-50.0","A3SS0C4IVTSIFL","2022-05-19T09:38:41.234Z","task_switching-rhyme-phon_sim-same_different","","3719","task_switching","{""subtraction_ans"":""91""}","experiment","94","subtraction","91","true","subtract","","","","","","","","","","","","","","","","","","","","","","","","","","","","","",""
"","","","","","survey-text","51","291496","0.0-51.0","A3SS0C4IVTSIFL","2022-05-19T09:38:41.234Z","task_switching-rhyme-phon_sim-same_different","","3396.5","task_switching","{""subtraction_ans"":""50""}","experiment","53","subtraction","50","true","subtract","","","","","","","","","","","","","","","","","","","","","","","","","","","","","",""
"","","","","","survey-text","52","294630","0.0-52.0","A3SS0C4IVTSIFL","2022-05-19T09:38:41.234Z","task_switching-rhyme-phon_sim-same_different","","3130.7000000029802","task_switching","{""subtraction_ans"":""66""}","experiment","69","subtraction","66","true","subtract","","","","","","","","","","","","","","","","","","","","","","","","","","","","","",""
"","","","","","survey-text","53","297891","0.0-53.0","A3SS0C4IVTSIFL","2022-05-19T09:38:41.234Z","task_switching-rhyme-phon_sim-same_different","","3256.5999999940395","task_switching","{""subtraction_ans"":""29""}","experiment","32","subtraction","29","true","subtract","","","","","","","","","","","","","","","","","","","","","","","","","","","","","",""
"","","","","","survey-text","54","301154","0.0-54.0","A3SS0C4IVTSIFL","2022-05-19T09:38:41.234Z","task_switching-rhyme-phon_sim-same_different","","3260.0999999940395","task_switching","{""subtraction_ans"":""96""}","experiment","99","subtraction","96","true","subtract","","","","","","","","","","","","","","","","","","","","","","","","","","","","","",""
"","","","","","survey-text","55","304375","0.0-55.0","A3SS0C4IVTSIFL","2022-05-19T09:38:41.234Z","task_switching-rhyme-phon_sim-same_different","","3216.7999999970198","task_switching","{""subtraction_ans"":""76""}","experiment","79","subtraction","76","true","subtract","","","","","","","","","","","","","","","","","","","","","","","","","","","","","",""
"","","","","","instructions","56","322870","0.0-56.0","A3SS0C4IVTSIFL","2022-05-19T09:38:41.234Z","task_switching-rhyme-phon_sim-same_different","[{""page_index"":0,""viewing_time"":18493.70000000298}]","18494.09999999404","task_switching","","","","","","","","","","","","","","","","","","","","","","","","","","","","","","","","","","","","",""
"","","","","","survey-text","57","325571","0.0-57.0","A3SS0C4IVTSIFL","2022-05-19T09:38:41.234Z","task_switching-rhyme-phon_sim-same_different","","2696.5","task_switching","{""addition_ans"":""53""}","training","50","addition","53","true","add","","","","","","","","","","","","","","","","","","","","","","","","","","","","","",""
"","","","","","html-keyboard-response","58","326573","0.0-58.0","A3SS0C4IVTSIFL","2022-05-19T09:38:41.234Z","task_switching-rhyme-phon_sim-same_different","","null","task_switching","null","training","<div style=""color:darkgreen; font-size:60px"">Well done!</div>","addition","","","","","","","","","","","","","","","","","","","","","","","","","","","","","","","","",""
"","","","","","survey-text","59","329471","0.0-59.0","A3SS0C4IVTSIFL","2022-05-19T09:38:41.234Z","task_switching-rhyme-phon_sim-same_different","","2895.3999999910593","task_switching","{""addition_ans"":""74""}","training","71","addition","74","true","add","","","","","","","","","","","","","","","","","","","","","","","","","","","","","",""
"","","","","","html-keyboard-response","60","330474","0.0-60.0","A3SS0C4IVTSIFL","2022-05-19T09:38:41.234Z","task_switching-rhyme-phon_sim-same_different","","null","task_switching","null","training","<div style=""color:darkgreen; font-size:60px"">Well done!</div>","addition","","","","","","","","","","","","","","","","","","","","","","","","","","","","","","","","",""
"","","","","","survey-text","61","333154","0.0-61.0","A3SS0C4IVTSIFL","2022-05-19T09:38:41.234Z","task_switching-rhyme-phon_sim-same_different","","2678.1000000089407","task_switching","{""addition_ans"":""24""}","training","21","addition","24","true","add","","","","","","","","","","","","","","","","","","","","","","","","","","","","","",""
"","","","","","html-keyboard-response","62","334156","0.0-62.0","A3SS0C4IVTSIFL","2022-05-19T09:38:41.234Z","task_switching-rhyme-phon_sim-same_different","","null","task_switching","null","training","<div style=""color:darkgreen; font-size:60px"">Well done!</div>","addition","","","","","","","","","","","","","","","","","","","","","","","","","","","","","","","","",""
"","","","","","survey-text","63","336995","0.0-63.0","A3SS0C4IVTSIFL","2022-05-19T09:38:41.234Z","task_switching-rhyme-phon_sim-same_different","","2836.199999988079","task_switching","{""addition_ans"":""86""}","training","83","addition","86","true","add","","","","","","","","","","","","","","","","","","","","","","","","","","","","","",""
"","","","","","html-keyboard-response","64","337997","0.0-64.0","A3SS0C4IVTSIFL","2022-05-19T09:38:41.234Z","task_switching-rhyme-phon_sim-same_different","","null","task_switching","null","training","<div style=""color:darkgreen; font-size:60px"">Well done!</div>","addition","","","","","","","","","","","","","","","","","","","","","","","","","","","","","","","","",""
"","","","","","survey-text","65","340837","0.0-65.0","A3SS0C4IVTSIFL","2022-05-19T09:38:41.234Z","task_switching-rhyme-phon_sim-same_different","","2835.5999999940395","task_switching","{""addition_ans"":""48""}","training","45","addition","48","true","add","","","","","","","","","","","","","","","","","","","","","","","","","","","","","",""
"","","","","","html-keyboard-response","66","341840","0.0-66.0","A3SS0C4IVTSIFL","2022-05-19T09:38:41.234Z","task_switching-rhyme-phon_sim-same_different","","null","task_switching","null","training","<div style=""color:darkgreen; font-size:60px"">Well done!</div>","addition","","","","","","","","","","","","","","","","","","","","","","","","","","","","","","","","",""
"","","","","","survey-text","67","344598","0.0-67.0","A3SS0C4IVTSIFL","2022-05-19T09:38:41.234Z","task_switching-rhyme-phon_sim-same_different","","2755.5999999940395","task_switching","{""addition_ans"":""99""}","training","96","addition","99","true","add","","","","","","","","","","","","","","","","","","","","","","","","","","","","","",""
"","","","","","html-keyboard-response","68","345600","0.0-68.0","A3SS0C4IVTSIFL","2022-05-19T09:38:41.234Z","task_switching-rhyme-phon_sim-same_different","","null","task_switching","null","training","<div style=""color:darkgreen; font-size:60px"">Well done!</div>","addition","","","","","","","","","","","","","","","","","","","","","","","","","","","","","","","","",""
"","","","","","survey-text","69","348400","0.0-69.0","A3SS0C4IVTSIFL","2022-05-19T09:38:41.234Z","task_switching-rhyme-phon_sim-same_different","","2796.7999999970198","task_switching","{""addition_ans"":""94""}","training","91","addition","94","true","add","","","","","","","","","","","","","","","","","","","","","","","","","","","","","",""
"","","","","","html-keyboard-response","70","349402","0.0-70.0","A3SS0C4IVTSIFL","2022-05-19T09:38:41.234Z","task_switching-rhyme-phon_sim-same_different","","null","task_switching","null","training","<div style=""color:darkgreen; font-size:60px"">Well done!</div>","addition","","","","","","","","","","","","","","","","","","","","","","","","","","","","","","","","",""
"","","","","","survey-text","71","352143","0.0-71.0","A3SS0C4IVTSIFL","2022-05-19T09:38:41.234Z","task_switching-rhyme-phon_sim-same_different","","2737.8999999910593","task_switching","{""addition_ans"":""84""}","training","81","addition","84","true","add","","","","","","","","","","","","","","","","","","","","","","","","","","","","","",""
"","","","","","html-keyboard-response","72","353145","0.0-72.0","A3SS0C4IVTSIFL","2022-05-19T09:38:41.234Z","task_switching-rhyme-phon_sim-same_different","","null","task_switching","null","training","<div style=""color:darkgreen; font-size:60px"">Well done!</div>","addition","","","","","","","","","","","","","","","","","","","","","","","","","","","","","","","","",""
"","","","","","survey-text","73","356339","0.0-73.0","A3SS0C4IVTSIFL","2022-05-19T09:38:41.234Z","task_switching-rhyme-phon_sim-same_different","","3190.9000000059605","task_switching","{""addition_ans"":""54""}","training","51","addition","54","true","add","","","","","","","","","","","","","","","","","","","","","","","","","","","","","",""
"","","","","","html-keyboard-response","74","357343","0.0-74.0","A3SS0C4IVTSIFL","2022-05-19T09:38:41.234Z","task_switching-rhyme-phon_sim-same_different","","null","task_switching","null","training","<div style=""color:darkgreen; font-size:60px"">Well done!</div>","addition","","","","","","","","","","","","","","","","","","","","","","","","","","","","","","","","",""
"","","","","","survey-text","75","360669","0.0-75.0","A3SS0C4IVTSIFL","2022-05-19T09:38:41.234Z","task_switching-rhyme-phon_sim-same_different","","3322.8999999910593","task_switching","{""addition_ans"":""64""}","training","61","addition","64","true","add","","","","","","","","","","","","","","","","","","","","","","","","","","","","","",""
"","","","","","html-keyboard-response","76","361671","0.0-76.0","A3SS0C4IVTSIFL","2022-05-19T09:38:41.234Z","task_switching-rhyme-phon_sim-same_different","","null","task_switching","null","training","<div style=""color:darkgreen; font-size:60px"">Well done!</div>","addition","","","","","","","","","","","","","","","","","","","","","","","","","","","","","","","","",""
"","","","","","instructions","77","368667","0.0-77.0","A3SS0C4IVTSIFL","2022-05-19T09:38:41.234Z","task_switching-rhyme-phon_sim-same_different","[{""page_index"":0,""viewing_time"":6994.20000000298}]","6994.70000000298","task_switching","","","","","","","","","","","","","","","","","","","","","","","","","","","","","","","","","","","","",""
"","","","","","survey-text","78","371771","0.0-78.0","A3SS0C4IVTSIFL","2022-05-19T09:38:41.234Z","task_switching-rhyme-phon_sim-same_different","","3100.7999999970198","task_switching","{""addition_ans"":""62""}","experiment","59","addition","62","true","add","","","","","","","","","","","","","","","","","","","","","","","","","","","","","",""
"","","","","","survey-text","79","374434","0.0-79.0","A3SS0C4IVTSIFL","2022-05-19T09:38:41.234Z","task_switching-rhyme-phon_sim-same_different","","2658.5","task_switching","{""addition_ans"":""41""}","experiment","38","addition","41","true","add","","","","","","","","","","","","","","","","","","","","","","","","","","","","","",""
"","","","","","survey-text","80","377255","0.0-80.0","A3SS0C4IVTSIFL","2022-05-19T09:38:41.234Z","task_switching-rhyme-phon_sim-same_different","","2816.2999999970198","task_switching","{""addition_ans"":""20""}","experiment","17","addition","20","true","add","","","","","","","","","","","","","","","","","","","","","","","","","","","","","",""
"","","","","","survey-text","81","380408","0.0-81.0","A3SS0C4IVTSIFL","2022-05-19T09:38:41.234Z","task_switching-rhyme-phon_sim-same_different","","3149.4000000059605","task_switching","{""addition_ans"":""50""}","experiment","47","addition","50","true","add","","","","","","","","","","","","","","","","","","","","","","","","","","","","","",""
"","","","","","survey-text","82","383229","0.0-82.0","A3SS0C4IVTSIFL","2022-05-19T09:38:41.234Z","task_switching-rhyme-phon_sim-same_different","","2818.2000000029802","task_switching","{""addition_ans"":""81""}","experiment","78","addition","81","true","add","","","","","","","","","","","","","","","","","","","","","","","","","","","","","",""
"","","","","","survey-text","83","386658","0.0-83.0","A3SS0C4IVTSIFL","2022-05-19T09:38:41.234Z","task_switching-rhyme-phon_sim-same_different","","3425.5","task_switching","{""addition_ans"":""35""}","experiment","32","addition","35","true","add","","","","","","","","","","","","","","","","","","","","","","","","","","","","","",""
"","","","","","survey-text","84","389412","0.0-84.0","A3SS0C4IVTSIFL","2022-05-19T09:38:41.234Z","task_switching-rhyme-phon_sim-same_different","","2750.199999988079","task_switching","{""addition_ans"":""53""}","experiment","50","addition","53","true","add","","","","","","","","","","","","","","","","","","","","","","","","","","","","","",""
"","","","","","survey-text","85","391906","0.0-85.0","A3SS0C4IVTSIFL","2022-05-19T09:38:41.234Z","task_switching-rhyme-phon_sim-same_different","","2489.0999999940395","task_switching","{""addition_ans"":""25""}","experiment","22","addition","25","true","add","","","","","","","","","","","","","","","","","","","","","","","","","","","","","",""
"","","","","","survey-text","86","395836","0.0-86.0","A3SS0C4IVTSIFL","2022-05-19T09:38:41.234Z","task_switching-rhyme-phon_sim-same_different","","3927.2999999970198","task_switching","{""addition_ans"":""68""}","experiment","65","addition","68","true","add","","","","","","","","","","","","","","","","","","","","","","","","","","","","","",""
"","","","","","survey-text","87","398666","0.0-87.0","A3SS0C4IVTSIFL","2022-05-19T09:38:41.234Z","task_switching-rhyme-phon_sim-same_different","","2826.7000000029802","task_switching","{""addition_ans"":""90""}","experiment","87","addition","90","true","add","","","","","","","","","","","","","","","","","","","","","","","","","","","","","",""
"","","","","","survey-text","88","401909","0.0-88.0","A3SS0C4IVTSIFL","2022-05-19T09:38:41.234Z","task_switching-rhyme-phon_sim-same_different","","3240","task_switching","{""addition_ans"":""47""}","experiment","44","addition","47","true","add","","","","","","","","","","","","","","","","","","","","","","","","","","","","","",""
"","","","","","survey-text","89","405526","0.0-89.0","A3SS0C4IVTSIFL","2022-05-19T09:38:41.234Z","task_switching-rhyme-phon_sim-same_different","","3613.8999999910593","task_switching","{""addition_ans"":""70""}","experiment","67","addition","70","true","add","","","","","","","","","","","","","","","","","","","","","","","","","","","","","",""
"","","","","","survey-text","90","408208","0.0-90.0","A3SS0C4IVTSIFL","2022-05-19T09:38:41.234Z","task_switching-rhyme-phon_sim-same_different","","2677.5","task_switching","{""addition_ans"":""77""}","experiment","74","addition","77","true","add","","","","","","","","","","","","","","","","","","","","","","","","","","","","","",""
"","","","","","survey-text","91","411138","0.0-91.0","A3SS0C4IVTSIFL","2022-05-19T09:38:41.234Z","task_switching-rhyme-phon_sim-same_different","","2927.4000000059605","task_switching","{""addition_ans"":""26""}","experiment","23","addition","26","true","add","","","","","","","","","","","","","","","","","","","","","","","","","","","","","",""
"","","","","","survey-text","92","413898","0.0-92.0","A3SS0C4IVTSIFL","2022-05-19T09:38:41.234Z","task_switching-rhyme-phon_sim-same_different","","2755.1000000089407","task_switching","{""addition_ans"":""49""}","experiment","46","addition","49","true","add","","","","","","","","","","","","","","","","","","","","","","","","","","","","","",""
"","","","","","survey-text","93","416728","0.0-93.0","A3SS0C4IVTSIFL","2022-05-19T09:38:41.234Z","task_switching-rhyme-phon_sim-same_different","","2826.5","task_switching","{""addition_ans"":""16""}","experiment","13","addition","16","true","add","","","","","","","","","","","","","","","","","","","","","","","","","","","","","",""
"","","","","","survey-text","94","419853","0.0-94.0","A3SS0C4IVTSIFL","2022-05-19T09:38:41.234Z","task_switching-rhyme-phon_sim-same_different","","3120.7999999970198","task_switching","{""addition_ans"":""66""}","experiment","63","addition","66","true","add","","","","","","","","","","","","","","","","","","","","","","","","","","","","","",""
"","","","","","survey-text","95","423086","0.0-95.0","A3SS0C4IVTSIFL","2022-05-19T09:38:41.234Z","task_switching-rhyme-phon_sim-same_different","","3229.2999999970198","task_switching","{""addition_ans"":""65""}","experiment","62","addition","65","true","add","","","","","","","","","","","","","","","","","","","","","","","","","","","","","",""
"","","","","","survey-text","96","426457","0.0-96.0","A3SS0C4IVTSIFL","2022-05-19T09:38:41.234Z","task_switching-rhyme-phon_sim-same_different","","3368","task_switching","{""addition_ans"":""79""}","experiment","76","addition","79","true","add","","","","","","","","","","","","","","","","","","","","","","","","","","","","","",""
"","","","","","survey-text","97","429552","0.0-97.0","A3SS0C4IVTSIFL","2022-05-19T09:38:41.234Z","task_switching-rhyme-phon_sim-same_different","","3091.0999999940395","task_switching","{""addition_ans"":""37""}","experiment","34","addition","37","true","add","","","","","","","","","","","","","","","","","","","","","","","","","","","","","",""
"","","","","","survey-text","98","432344","0.0-98.0","A3SS0C4IVTSIFL","2022-05-19T09:38:41.234Z","task_switching-rhyme-phon_sim-same_different","","2788.2999999970198","task_switching","{""addition_ans"":""39""}","experiment","36","addition","39","true","add","","","","","","","","","","","","","","","","","","","","","","","","","","","","","",""
"","","","","","survey-text","99","435400","0.0-99.0","A3SS0C4IVTSIFL","2022-05-19T09:38:41.234Z","task_switching-rhyme-phon_sim-same_different","","3051.2999999970198","task_switching","{""addition_ans"":""38""}","experiment","35","addition","38","true","add","","","","","","","","","","","","","","","","","","","","","","","","","","","","","",""
"","","","","","survey-text","100","437973","0.0-100.0","A3SS0C4IVTSIFL","2022-05-19T09:38:41.234Z","task_switching-rhyme-phon_sim-same_different","","2569.2999999970198","task_switching","{""addition_ans"":""24""}","experiment","21","addition","24","true","add","","","","","","","","","","","","","","","","","","","","","","","","","","","","","",""
"","","","","","survey-text","101","440774","0.0-101.0","A3SS0C4IVTSIFL","2022-05-19T09:38:41.234Z","task_switching-rhyme-phon_sim-same_different","","2797.7999999970198","task_switching","{""addition_ans"":""92""}","experiment","89","addition","92","true","add","","","","","","","","","","","","","","","","","","","","","","","","","","","","","",""
"","","","","","survey-text","102","443761","0.0-102.0","A3SS0C4IVTSIFL","2022-05-19T09:38:41.234Z","task_switching-rhyme-phon_sim-same_different","","2983.9000000059605","task_switching","{""addition_ans"":""46""}","experiment","43","addition","46","true","add","","","","","","","","","","","","","","","","","","","","","","","","","","","","","",""
"","","","","","survey-text","103","446276","0.0-103.0","A3SS0C4IVTSIFL","2022-05-19T09:38:41.234Z","task_switching-rhyme-phon_sim-same_different","","2512.300000011921","task_switching","{""addition_ans"":""31""}","experiment","28","addition","31","true","add","","","","","","","","","","","","","","","","","","","","","","","","","","","","","",""
"","","","","","survey-text","104","448950","0.0-104.0","A3SS0C4IVTSIFL","2022-05-19T09:38:41.234Z","task_switching-rhyme-phon_sim-same_different","","2670.0999999940395","task_switching","{""addition_ans"":""33""}","experiment","30","addition","33","true","add","","","","","","","","","","","","","","","","","","","","","","","","","","","","","",""
"","","","","","survey-text","105","451681","0.0-105.0","A3SS0C4IVTSIFL","2022-05-19T09:38:41.234Z","task_switching-rhyme-phon_sim-same_different","","2727.2000000029802","task_switching","{""addition_ans"":""30""}","experiment","27","addition","30","true","add","","","","","","","","","","","","","","","","","","","","","","","","","","","","","",""
"","","","","","survey-text","106","454217","0.0-106.0","A3SS0C4IVTSIFL","2022-05-19T09:38:41.234Z","task_switching-rhyme-phon_sim-same_different","","2533.2000000029802","task_switching","{""addition_ans"":""29""}","experiment","26","addition","29","true","add","","","","","","","","","","","","","","","","","","","","","","","","","","","","","",""
"","","","","","survey-text","107","456860","0.0-107.0","A3SS0C4IVTSIFL","2022-05-19T09:38:41.234Z","task_switching-rhyme-phon_sim-same_different","","2639.6000000089407","task_switching","{""addition_ans"":""60""}","experiment","57","addition","60","true","add","","","","","","","","","","","","","","","","","","","","","","","","","","","","","",""
"","","","","","instructions","108","504975","0.0-108.0","A3SS0C4IVTSIFL","2022-05-19T09:38:41.234Z","task_switching-rhyme-phon_sim-same_different","[{""page_index"":0,""viewing_time"":48113.09999999404}]","48113.69999998808","task_switching","","","","","","","","","","","","","","","","","","","","","","","","","","","","","","","","","","","","",""
"","","","","","survey-text","109","508156","0.0-109.0","A3SS0C4IVTSIFL","2022-05-19T09:38:41.234Z","task_switching-rhyme-phon_sim-same_different","","3175.3999999910593","task_switching","{""uncued_switch_ans"":""63""}","training","60","uncued_switch","63","true","add","0","","","","","","","","","","","","","","","","","","","","","","","","","","","","",""
"","","","","","html-keyboard-response","110","509159","0.0-110.0","A3SS0C4IVTSIFL","2022-05-19T09:38:41.234Z","task_switching-rhyme-phon_sim-same_different","","null","task_switching","null","training","<div style=""color:darkgreen; font-size:60px"">Well done!</div>","uncued_switch","","","","","","","","","","","","","","","","","","","","","","","","","","","","","","","","",""
"","","","","","survey-text","111","511496","0.0-111.0","A3SS0C4IVTSIFL","2022-05-19T09:38:41.234Z","task_switching-rhyme-phon_sim-same_different","","2334.7000000029802","task_switching","{""uncued_switch_ans"":""21""}","training","24","uncued_switch","21","true","subtract","1","","","","","","","","","","","","","","","","","","","","","","","","","","","","",""
"","","","","","html-keyboard-response","112","512498","0.0-112.0","A3SS0C4IVTSIFL","2022-05-19T09:38:41.234Z","task_switching-rhyme-phon_sim-same_different","","null","task_switching","null","training","<div style=""color:darkgreen; font-size:60px"">Well done!</div>","uncued_switch","","","","","","","","","","","","","","","","","","","","","","","","","","","","","","","","",""
"","","","","","survey-text","113","515092","0.0-113.0","A3SS0C4IVTSIFL","2022-05-19T09:38:41.234Z","task_switching-rhyme-phon_sim-same_different","","2591.4000000059605","task_switching","{""uncued_switch_ans"":""33""}","training","30","uncued_switch","33","true","add","2","","","","","","","","","","","","","","","","","","","","","","","","","","","","",""
"","","","","","html-keyboard-response","114","516094","0.0-114.0","A3SS0C4IVTSIFL","2022-05-19T09:38:41.234Z","task_switching-rhyme-phon_sim-same_different","","null","task_switching","null","training","<div style=""color:darkgreen; font-size:60px"">Well done!</div>","uncued_switch","","","","","","","","","","","","","","","","","","","","","","","","","","","","","","","","",""
"","","","","","survey-text","115","519503","0.0-115.0","A3SS0C4IVTSIFL","2022-05-19T09:38:41.234Z","task_switching-rhyme-phon_sim-same_different","","3406.5","task_switching","{""uncued_switch_ans"":""64""}","training","67","uncued_switch","64","true","subtract","3","","","","","","","","","","","","","","","","","","","","","","","","","","","","",""
"","","","","","html-keyboard-response","116","520505","0.0-116.0","A3SS0C4IVTSIFL","2022-05-19T09:38:41.234Z","task_switching-rhyme-phon_sim-same_different","","null","task_switching","null","training","<div style=""color:darkgreen; font-size:60px"">Well done!</div>","uncued_switch","","","","","","","","","","","","","","","","","","","","","","","","","","","","","","","","",""
"","","","","","survey-text","117","523119","0.0-117.0","A3SS0C4IVTSIFL","2022-05-19T09:38:41.234Z","task_switching-rhyme-phon_sim-same_different","","2611.5","task_switching","{""uncued_switch_ans"":""88""}","training","85","uncued_switch","88","true","add","4","","","","","","","","","","","","","","","","","","","","","","","","","","","","",""
"","","","","","html-keyboard-response","118","524122","0.0-118.0","A3SS0C4IVTSIFL","2022-05-19T09:38:41.234Z","task_switching-rhyme-phon_sim-same_different","","null","task_switching","null","training","<div style=""color:darkgreen; font-size:60px"">Well done!</div>","uncued_switch","","","","","","","","","","","","","","","","","","","","","","","","","","","","","","","","",""
"","","","","","survey-text","119","526597","0.0-119.0","A3SS0C4IVTSIFL","2022-05-19T09:38:41.234Z","task_switching-rhyme-phon_sim-same_different","","2471.7999999970198","task_switching","{""uncued_switch_ans"":""24""}","training","27","uncued_switch","24","true","subtract","5","","","","","","","","","","","","","","","","","","","","","","","","","","","","",""
"","","","","","html-keyboard-response","120","527599","0.0-120.0","A3SS0C4IVTSIFL","2022-05-19T09:38:41.234Z","task_switching-rhyme-phon_sim-same_different","","null","task_switching","null","training","<div style=""color:darkgreen; font-size:60px"">Well done!</div>","uncued_switch","","","","","","","","","","","","","","","","","","","","","","","","","","","","","","","","",""
"","","","","","survey-text","121","530920","0.0-121.0","A3SS0C4IVTSIFL","2022-05-19T09:38:41.234Z","task_switching-rhyme-phon_sim-same_different","","3317","task_switching","{""uncued_switch_ans"":""18""}","training","15","uncued_switch","18","true","add","6","","","","","","","","","","","","","","","","","","","","","","","","","","","","",""
"","","","","","html-keyboard-response","122","531922","0.0-122.0","A3SS0C4IVTSIFL","2022-05-19T09:38:41.234Z","task_switching-rhyme-phon_sim-same_different","","null","task_switching","null","training","<div style=""color:darkgreen; font-size:60px"">Well done!</div>","uncued_switch","","","","","","","","","","","","","","","","","","","","","","","","","","","","","","","","",""
"","","","","","survey-text","123","535314","0.0-123.0","A3SS0C4IVTSIFL","2022-05-19T09:38:41.234Z","task_switching-rhyme-phon_sim-same_different","","3389.3999999910593","task_switching","{""uncued_switch_ans"":""80""}","training","83","uncued_switch","80","true","subtract","7","","","","","","","","","","","","","","","","","","","","","","","","","","","","",""
"","","","","","html-keyboard-response","124","536317","0.0-124.0","A3SS0C4IVTSIFL","2022-05-19T09:38:41.234Z","task_switching-rhyme-phon_sim-same_different","","null","task_switching","null","training","<div style=""color:darkgreen; font-size:60px"">Well done!</div>","uncued_switch","","","","","","","","","","","","","","","","","","","","","","","","","","","","","","","","",""
"","","","","","survey-text","125","539214","0.0-125.0","A3SS0C4IVTSIFL","2022-05-19T09:38:41.234Z","task_switching-rhyme-phon_sim-same_different","","2893.7000000029802","task_switching","{""uncued_switch_ans"":""37""}","training","34","uncued_switch","37","true","add","8","","","","","","","","","","","","","","","","","","","","","","","","","","","","",""
"","","","","","html-keyboard-response","126","540217","0.0-126.0","A3SS0C4IVTSIFL","2022-05-19T09:38:41.234Z","task_switching-rhyme-phon_sim-same_different","","null","task_switching","null","training","<div style=""color:darkgreen; font-size:60px"">Well done!</div>","uncued_switch","","","","","","","","","","","","","","","","","","","","","","","","","","","","","","","","",""
"","","","","","survey-text","127","543321","0.0-127.0","A3SS0C4IVTSIFL","2022-05-19T09:38:41.234Z","task_switching-rhyme-phon_sim-same_different","","3100.2000000029802","task_switching","{""uncued_switch_ans"":""36""}","training","39","uncued_switch","36","true","subtract","9","","","","","","","","","","","","","","","","","","","","","","","","","","","","",""
"","","","","","html-keyboard-response","128","544324","0.0-128.0","A3SS0C4IVTSIFL","2022-05-19T09:38:41.234Z","task_switching-rhyme-phon_sim-same_different","","null","task_switching","null","training","<div style=""color:darkgreen; font-size:60px"">Well done!</div>","uncued_switch","","","","","","","","","","","","","","","","","","","","","","","","","","","","","","","","",""
"","","","","","instructions","129","546210","0.0-129.0","A3SS0C4IVTSIFL","2022-05-19T09:38:41.234Z","task_switching-rhyme-phon_sim-same_different","[{""page_index"":0,""viewing_time"":1885.7000000029802}]","1886","task_switching","","","","","","","","","","","","","","","","","","","","","","","","","","","","","","","","","","","","",""
"","","","","","survey-text","130","549070","0.0-130.0","A3SS0C4IVTSIFL","2022-05-19T09:38:41.234Z","task_switching-rhyme-phon_sim-same_different","","2856.1000000089407","task_switching","{""uncued_switch_ans"":""86""}","experiment","83","uncued_switch","86","true","add","0","","","","","","","","","","","","","","","","","","","","","","","","","","","","",""
"","","","","","survey-text","131","551801","0.0-131.0","A3SS0C4IVTSIFL","2022-05-19T09:38:41.234Z","task_switching-rhyme-phon_sim-same_different","","2727.4000000059605","task_switching","{""uncued_switch_ans"":""49""}","experiment","52","uncued_switch","49","true","subtract","1","","","","","","","","","","","","","","","","","","","","","","","","","","","","",""
"","","","","","survey-text","132","554582","0.0-132.0","A3SS0C4IVTSIFL","2022-05-19T09:38:41.234Z","task_switching-rhyme-phon_sim-same_different","","2777.5999999940395","task_switching","{""uncued_switch_ans"":""49""}","experiment","46","uncued_switch","49","true","add","2","","","","","","","","","","","","","","","","","","","","","","","","","","","","",""
"","","","","","survey-text","133","557384","0.0-133.0","A3SS0C4IVTSIFL","2022-05-19T09:38:41.234Z","task_switching-rhyme-phon_sim-same_different","","2798.4000000059605","task_switching","{""uncued_switch_ans"":""28""}","experiment","31","uncued_switch","28","true","subtract","3","","","","","","","","","","","","","","","","","","","","","","","","","","","","",""
"","","","","","survey-text","134","560362","0.0-134.0","A3SS0C4IVTSIFL","2022-05-19T09:38:41.234Z","task_switching-rhyme-phon_sim-same_different","","2973.5999999940395","task_switching","{""uncued_switch_ans"":""98""}","experiment","95","uncued_switch","98","true","add","4","","","","","","","","","","","","","","","","","","","","","","","","","","","","",""
"","","","","","survey-text","135","563702","0.0-135.0","A3SS0C4IVTSIFL","2022-05-19T09:38:41.234Z","task_switching-rhyme-phon_sim-same_different","","3335","task_switching","{""uncued_switch_ans"":""35""}","experiment","38","uncued_switch","35","true","subtract","5","","","","","","","","","","","","","","","","","","","","","","","","","","","","",""
"","","","","","survey-text","136","566228","0.0-136.0","A3SS0C4IVTSIFL","2022-05-19T09:38:41.234Z","task_switching-rhyme-phon_sim-same_different","","2522","task_switching","{""uncued_switch_ans"":""88""}","experiment","85","uncued_switch","88","true","add","6","","","","","","","","","","","","","","","","","","","","","","","","","","","","",""
"","","","","","survey-text","137","569529","0.0-137.0","A3SS0C4IVTSIFL","2022-05-19T09:38:41.234Z","task_switching-rhyme-phon_sim-same_different","","3296.7999999970198","task_switching","{""uncued_switch_ans"":""24""}","experiment","27","uncued_switch","24","true","subtract","7","","","","","","","","","","","","","","","","","","","","","","","","","","","","",""
"","","","","","survey-text","138","573775","0.0-138.0","A3SS0C4IVTSIFL","2022-05-19T09:38:41.234Z","task_switching-rhyme-phon_sim-same_different","","4240.70000000298","task_switching","{""uncued_switch_ans"":""84""}","experiment","81","uncued_switch","84","true","add","8","","","","","","","","","","","","","","","","","","","","","","","","","","","","",""
"","","","","","survey-text","139","576880","0.0-139.0","A3SS0C4IVTSIFL","2022-05-19T09:38:41.234Z","task_switching-rhyme-phon_sim-same_different","","3101.7999999970198","task_switching","{""uncued_switch_ans"":""87""}","experiment","90","uncued_switch","87","true","subtract","9","","","","","","","","","","","","","","","","","","","","","","","","","","","","",""
"","","","","","survey-text","140","582069","0.0-140.0","A3SS0C4IVTSIFL","2022-05-19T09:38:41.234Z","task_switching-rhyme-phon_sim-same_different","","5185.0999999940395","task_switching","{""uncued_switch_ans"":""35""}","experiment","32","uncued_switch","35","true","add","10","","","","","","","","","","","","","","","","","","","","","","","","","","","","",""
"","","","","","survey-text","141","584782","0.0-141.0","A3SS0C4IVTSIFL","2022-05-19T09:38:41.234Z","task_switching-rhyme-phon_sim-same_different","","2709.5","task_switching","{""uncued_switch_ans"":""57""}","experiment","60","uncued_switch","57","true","subtract","11","","","","","","","","","","","","","","","","","","","","","","","","","","","","",""
"","","","","","survey-text","142","587467","0.0-142.0","A3SS0C4IVTSIFL","2022-05-19T09:38:41.234Z","task_switching-rhyme-phon_sim-same_different","","2679.7999999970198","task_switching","{""uncued_switch_ans"":""16""}","experiment","13","uncued_switch","16","true","add","12","","","","","","","","","","","","","","","","","","","","","","","","","","","","",""
"","","","","","survey-text","143","590197","0.0-143.0","A3SS0C4IVTSIFL","2022-05-19T09:38:41.234Z","task_switching-rhyme-phon_sim-same_different","","2725.5999999940395","task_switching","{""uncued_switch_ans"":""27""}","experiment","30","uncued_switch","27","true","subtract","13","","","","","","","","","","","","","","","","","","","","","","","","","","","","",""
"","","","","","survey-text","144","593302","0.0-144.0","A3SS0C4IVTSIFL","2022-05-19T09:38:41.234Z","task_switching-rhyme-phon_sim-same_different","","3101.8999999910593","task_switching","{""uncued_switch_ans"":""40""}","experiment","43","uncued_switch","40","false","add","14","","","","","","","","","","","","","","","","","","","","","","","","","","","","",""
"","","","","","survey-text","145","595642","0.0-145.0","A3SS0C4IVTSIFL","2022-05-19T09:38:41.234Z","task_switching-rhyme-phon_sim-same_different","","2335.4000000059605","task_switching","{""uncued_switch_ans"":""32""}","experiment","29","uncued_switch","32","false","subtract","15","","","","","","","","","","","","","","","","","","","","","","","","","","","","",""
"","","","","","survey-text","146","598943","0.0-146.0","A3SS0C4IVTSIFL","2022-05-19T09:38:41.234Z","task_switching-rhyme-phon_sim-same_different","","3296.0999999940395","task_switching","{""uncued_switch_ans"":""46""}","experiment","49","uncued_switch","46","false","add","16","","","","","","","","","","","","","","","","","","","","","","","","","","","","",""
"","","","","","survey-text","147","601556","0.0-147.0","A3SS0C4IVTSIFL","2022-05-19T09:38:41.234Z","task_switching-rhyme-phon_sim-same_different","","2610","task_switching","{""uncued_switch_ans"":""54""}","experiment","51","uncued_switch","54","false","subtract","17","","","","","","","","","","","","","","","","","","","","","","","","","","","","",""
"","","","","","survey-text","148","604210","0.0-148.0","A3SS0C4IVTSIFL","2022-05-19T09:38:41.234Z","task_switching-rhyme-phon_sim-same_different","","2650.2999999970198","task_switching","{""uncued_switch_ans"":""45""}","experiment","48","uncued_switch","45","false","add","18","","","","","","","","","","","","","","","","","","","","","","","","","","","","",""
"","","","","","survey-text","149","606510","0.0-149.0","A3SS0C4IVTSIFL","2022-05-19T09:38:41.234Z","task_switching-rhyme-phon_sim-same_different","","2295.2000000029802","task_switching","{""uncued_switch_ans"":""23""}","experiment","20","uncued_switch","23","false","subtract","19","","","","","","","","","","","","","","","","","","","","","","","","","","","","",""
"","","","","","survey-text","150","609449","0.0-150.0","A3SS0C4IVTSIFL","2022-05-19T09:38:41.234Z","task_switching-rhyme-phon_sim-same_different","","2935.6000000089407","task_switching","{""uncued_switch_ans"":""93""}","experiment","96","uncued_switch","93","false","add","20","","","","","","","","","","","","","","","","","","","","","","","","","","","","",""
"","","","","","survey-text","151","612299","0.0-151.0","A3SS0C4IVTSIFL","2022-05-19T09:38:41.234Z","task_switching-rhyme-phon_sim-same_different","","2844.8999999910593","task_switching","{""uncued_switch_ans"":""40""}","experiment","37","uncued_switch","40","false","subtract","21","","","","","","","","","","","","","","","","","","","","","","","","","","","","",""
"","","","","","survey-text","152","614765","0.0-152.0","A3SS0C4IVTSIFL","2022-05-19T09:38:41.234Z","task_switching-rhyme-phon_sim-same_different","","2462.699999988079","task_switching","{""uncued_switch_ans"":""56""}","experiment","59","uncued_switch","56","false","add","22","","","","","","","","","","","","","","","","","","","","","","","","","","","","",""
"","","","","","survey-text","153","617525","0.0-153.0","A3SS0C4IVTSIFL","2022-05-19T09:38:41.234Z","task_switching-rhyme-phon_sim-same_different","","2757.4000000059605","task_switching","{""uncued_switch_ans"":""64""}","experiment","61","uncued_switch","64","false","subtract","23","","","","","","","","","","","","","","","","","","","","","","","","","","","","",""
"","","","","","survey-text","154","620751","0.0-154.0","A3SS0C4IVTSIFL","2022-05-19T09:38:41.234Z","task_switching-rhyme-phon_sim-same_different","","3222","task_switching","{""uncued_switch_ans"":""52""}","experiment","55","uncued_switch","52","false","add","24","","","","","","","","","","","","","","","","","","","","","","","","","","","","",""
"","","","","","survey-text","155","623826","0.0-155.0","A3SS0C4IVTSIFL","2022-05-19T09:38:41.234Z","task_switching-rhyme-phon_sim-same_different","","3071.6000000089407","task_switching","{""uncued_switch_ans"":""48""}","experiment","45","uncued_switch","48","false","subtract","25","","","","","","","","","","","","","","","","","","","","","","","","","","","","",""
"","","","","","survey-text","156","626656","0.0-156.0","A3SS0C4IVTSIFL","2022-05-19T09:38:41.234Z","task_switching-rhyme-phon_sim-same_different","","2827.800000011921","task_switching","{""uncued_switch_ans"":""16""}","experiment","19","uncued_switch","16","false","add","26","","","","","","","","","","","","","","","","","","","","","","","","","","","","",""
"","","","","","survey-text","157","628838","0.0-157.0","A3SS0C4IVTSIFL","2022-05-19T09:38:41.234Z","task_switching-rhyme-phon_sim-same_different","","2179.3999999910593","task_switching","{""uncued_switch_ans"":""44""}","experiment","41","uncued_switch","44","false","subtract","27","","","","","","","","","","","","","","","","","","","","","","","","","","","","",""
"","","","","","survey-text","158","631307","0.0-158.0","A3SS0C4IVTSIFL","2022-05-19T09:38:41.234Z","task_switching-rhyme-phon_sim-same_different","","2464.5999999940395","task_switching","{""uncued_switch_ans"":""41""}","experiment","44","uncued_switch","41","false","add","28","","","","","","","","","","","","","","","","","","","","","","","","","","","","",""
"","","","","","survey-text","159","634489","0.0-159.0","A3SS0C4IVTSIFL","2022-05-19T09:38:41.234Z","task_switching-rhyme-phon_sim-same_different","","3179.199999988079","task_switching","{""uncued_switch_ans"":""94""}","experiment","91","uncued_switch","94","false","subtract","29","","","","","","","","","","","","","","","","","","","","","","","","","","","","",""
"","","","","","instructions","160","763980","0.0-160.0","A3SS0C4IVTSIFL","2022-05-19T09:38:41.234Z","task_switching-rhyme-phon_sim-same_different","[{""page_index"":0,""viewing_time"":129490}]","129490.39999999106","task_switching","","","","","","","","","","","","","","","","","","","","","","","","","","","","","","","","","","","","",""
"","","","","","survey-text","161","767055","0.0-161.0","A3SS0C4IVTSIFL","2022-05-19T09:38:41.234Z","task_switching-rhyme-phon_sim-same_different","","3071","task_switching","{""colorcue_switch_ans"":""63""}","training","60","colorcue_switch","63","true","add","0","red","","","","","","","","","","","","","","","","","","","","","","","","","","","",""
"","","","","","html-keyboard-response","162","768057","0.0-162.0","A3SS0C4IVTSIFL","2022-05-19T09:38:41.234Z","task_switching-rhyme-phon_sim-same_different","","null","task_switching","null","training","<div style=""color:darkgreen; font-size:60px"">Well done!</div>","colorcue_switch","","","","","","","","","","","","","","","","","","","","","","","","","","","","","","","","",""
"","","","","","survey-text","163","770493","0.0-163.0","A3SS0C4IVTSIFL","2022-05-19T09:38:41.234Z","task_switching-rhyme-phon_sim-same_different","","2433.1000000089407","task_switching","{""colorcue_switch_ans"":""51""}","training","54","colorcue_switch","51","true","subtract","1","blue","","","","","","","","","","","","","","","","","","","","","","","","","","","",""
"","","","","","html-keyboard-response","164","771496","0.0-164.0","A3SS0C4IVTSIFL","2022-05-19T09:38:41.234Z","task_switching-rhyme-phon_sim-same_different","","null","task_switching","null","training","<div style=""color:darkgreen; font-size:60px"">Well done!</div>","colorcue_switch","","","","","","","","","","","","","","","","","","","","","","","","","","","","","","","","",""
"","","","","","survey-text","165","774069","0.0-165.0","A3SS0C4IVTSIFL","2022-05-19T09:38:41.234Z","task_switching-rhyme-phon_sim-same_different","","2570.7000000029802","task_switching","{""colorcue_switch_ans"":""47""}","training","44","colorcue_switch","47","true","add","2","red","","","","","","","","","","","","","","","","","","","","","","","","","","","",""
"","","","","","html-keyboard-response","166","775072","0.0-166.0","A3SS0C4IVTSIFL","2022-05-19T09:38:41.234Z","task_switching-rhyme-phon_sim-same_different","","null","task_switching","null","training","<div style=""color:darkgreen; font-size:60px"">Well done!</div>","colorcue_switch","","","","","","","","","","","","","","","","","","","","","","","","","","","","","","","","",""
"","","","","","survey-text","167","777842","0.0-167.0","A3SS0C4IVTSIFL","2022-05-19T09:38:41.234Z","task_switching-rhyme-phon_sim-same_different","","2767.3999999910593","task_switching","{""colorcue_switch_ans"":""19""}","training","22","colorcue_switch","19","true","subtract","3","blue","","","","","","","","","","","","","","","","","","","","","","","","","","","",""
"","","","","","html-keyboard-response","168","778844","0.0-168.0","A3SS0C4IVTSIFL","2022-05-19T09:38:41.234Z","task_switching-rhyme-phon_sim-same_different","","null","task_switching","null","training","<div style=""color:darkgreen; font-size:60px"">Well done!</div>","colorcue_switch","","","","","","","","","","","","","","","","","","","","","","","","","","","","","","","","",""
"","","","","","survey-text","169","781596","0.0-169.0","A3SS0C4IVTSIFL","2022-05-19T09:38:41.234Z","task_switching-rhyme-phon_sim-same_different","","2748.7999999970198","task_switching","{""colorcue_switch_ans"":""78""}","training","75","colorcue_switch","78","true","add","4","red","","","","","","","","","","","","","","","","","","","","","","","","","","","",""
"","","","","","html-keyboard-response","170","782598","0.0-170.0","A3SS0C4IVTSIFL","2022-05-19T09:38:41.234Z","task_switching-rhyme-phon_sim-same_different","","null","task_switching","null","training","<div style=""color:darkgreen; font-size:60px"">Well done!</div>","colorcue_switch","","","","","","","","","","","","","","","","","","","","","","","","","","","","","","","","",""
"","","","","","survey-text","171","785291","0.0-171.0","A3SS0C4IVTSIFL","2022-05-19T09:38:41.234Z","task_switching-rhyme-phon_sim-same_different","","2689.800000011921","task_switching","{""colorcue_switch_ans"":""25""}","training","28","colorcue_switch","25","true","subtract","5","blue","","","","","","","","","","","","","","","","","","","","","","","","","","","",""
"","","","","","html-keyboard-response","172","786293","0.0-172.0","A3SS0C4IVTSIFL","2022-05-19T09:38:41.234Z","task_switching-rhyme-phon_sim-same_different","","null","task_switching","null","training","<div style=""color:darkgreen; font-size:60px"">Well done!</div>","colorcue_switch","","","","","","","","","","","","","","","","","","","","","","","","","","","","","","","","",""
"","","","","","survey-text","173","788562","0.0-173.0","A3SS0C4IVTSIFL","2022-05-19T09:38:41.234Z","task_switching-rhyme-phon_sim-same_different","","2265.5999999940395","task_switching","{""colorcue_switch_ans"":""44""}","training","41","colorcue_switch","44","true","add","6","red","","","","","","","","","","","","","","","","","","","","","","","","","","","",""
"","","","","","html-keyboard-response","174","789565","0.0-174.0","A3SS0C4IVTSIFL","2022-05-19T09:38:41.234Z","task_switching-rhyme-phon_sim-same_different","","null","task_switching","null","training","<div style=""color:darkgreen; font-size:60px"">Well done!</div>","colorcue_switch","","","","","","","","","","","","","","","","","","","","","","","","","","","","","","","","",""
"","","","","","survey-text","175","792974","0.0-175.0","A3SS0C4IVTSIFL","2022-05-19T09:38:41.234Z","task_switching-rhyme-phon_sim-same_different","","3405.2000000029802","task_switching","{""colorcue_switch_ans"":""50""}","training","53","colorcue_switch","50","true","subtract","7","blue","","","","","","","","","","","","","","","","","","","","","","","","","","","",""
"","","","","","html-keyboard-response","176","793976","0.0-176.0","A3SS0C4IVTSIFL","2022-05-19T09:38:41.234Z","task_switching-rhyme-phon_sim-same_different","","null","task_switching","null","training","<div style=""color:darkgreen; font-size:60px"">Well done!</div>","colorcue_switch","","","","","","","","","","","","","","","","","","","","","","","","","","","","","","","","",""
"","","","","","survey-text","177","796876","0.0-177.0","A3SS0C4IVTSIFL","2022-05-19T09:38:41.234Z","task_switching-rhyme-phon_sim-same_different","","2896.6000000089407","task_switching","{""colorcue_switch_ans"":""68""}","training","65","colorcue_switch","68","true","add","8","red","","","","","","","","","","","","","","","","","","","","","","","","","","","",""
"","","","","","html-keyboard-response","178","797879","0.0-178.0","A3SS0C4IVTSIFL","2022-05-19T09:38:41.234Z","task_switching-rhyme-phon_sim-same_different","","null","task_switching","null","training","<div style=""color:darkgreen; font-size:60px"">Well done!</div>","colorcue_switch","","","","","","","","","","","","","","","","","","","","","","","","","","","","","","","","",""
"","","","","","survey-text","179","800826","0.0-179.0","A3SS0C4IVTSIFL","2022-05-19T09:38:41.234Z","task_switching-rhyme-phon_sim-same_different","","2944.0999999940395","task_switching","{""colorcue_switch_ans"":""64""}","training","67","colorcue_switch","64","true","subtract","9","blue","","","","","","","","","","","","","","","","","","","","","","","","","","","",""
"","","","","","html-keyboard-response","180","801829","0.0-180.0","A3SS0C4IVTSIFL","2022-05-19T09:38:41.234Z","task_switching-rhyme-phon_sim-same_different","","null","task_switching","null","training","<div style=""color:darkgreen; font-size:60px"">Well done!</div>","colorcue_switch","","","","","","","","","","","","","","","","","","","","","","","","","","","","","","","","",""
"","","","","","instructions","181","806250","0.0-181.0","A3SS0C4IVTSIFL","2022-05-19T09:38:41.234Z","task_switching-rhyme-phon_sim-same_different","[{""page_index"":0,""viewing_time"":4420}]","4420.5","task_switching","","","","","","","","","","","","","","","","","","","","","","","","","","","","","","","","","","","","",""
"","","","","","survey-text","182","809560","0.0-182.0","A3SS0C4IVTSIFL","2022-05-19T09:38:41.234Z","task_switching-rhyme-phon_sim-same_different","","3307.2000000029802","task_switching","{""colorcue_switch_ans"":""49""}","experiment","46","colorcue_switch","49","true","add","0","red","","","","","","","","","","","","","","","","","","","","","","","","","","","",""
"","","","","","survey-text","183","812901","0.0-183.0","A3SS0C4IVTSIFL","2022-05-19T09:38:41.234Z","task_switching-rhyme-phon_sim-same_different","","3337.2999999970198","task_switching","{""colorcue_switch_ans"":""41""}","experiment","44","colorcue_switch","41","true","subtract","1","blue","","","","","","","","","","","","","","","","","","","","","","","","","","","",""
"","","","","","survey-text","184","815554","0.0-184.0","A3SS0C4IVTSIFL","2022-05-19T09:38:41.234Z","task_switching-rhyme-phon_sim-same_different","","2649.9000000059605","task_switching","{""colorcue_switch_ans"":""38""}","experiment","35","colorcue_switch","38","true","add","2","red","","","","","","","","","","","","","","","","","","","","","","","","","","","",""
"","","","","","survey-text","185","818698","0.0-185.0","A3SS0C4IVTSIFL","2022-05-19T09:38:41.234Z","task_switching-rhyme-phon_sim-same_different","","3141.5","task_switching","{""colorcue_switch_ans"":""49""}","experiment","52","colorcue_switch","49","true","subtract","3","blue","","","","","","","","","","","","","","","","","","","","","","","","","","","",""
"","","","","","survey-text","186","821146","0.0-186.0","A3SS0C4IVTSIFL","2022-05-19T09:38:41.234Z","task_switching-rhyme-phon_sim-same_different","","2444.1000000089407","task_switching","{""colorcue_switch_ans"":""23""}","experiment","20","colorcue_switch","23","true","add","4","red","","","","","","","","","","","","","","","","","","","","","","","","","","","",""
"","","","","","survey-text","187","824161","0.0-187.0","A3SS0C4IVTSIFL","2022-05-19T09:38:41.234Z","task_switching-rhyme-phon_sim-same_different","","3011.3999999910593","task_switching","{""colorcue_switch_ans"":""56""}","experiment","59","colorcue_switch","56","true","subtract","5","blue","","","","","","","","","","","","","","","","","","","","","","","","","","","",""
"","","","","","survey-text","188","826896","0.0-188.0","A3SS0C4IVTSIFL","2022-05-19T09:38:41.234Z","task_switching-rhyme-phon_sim-same_different","","2731.2999999970198","task_switching","{""colorcue_switch_ans"":""19""}","experiment","16","colorcue_switch","19","true","add","6","red","","","","","","","","","","","","","","","","","","","","","","","","","","","",""
"","","","","","survey-text","189","829715","0.0-189.0","A3SS0C4IVTSIFL","2022-05-19T09:38:41.234Z","task_switching-rhyme-phon_sim-same_different","","2812.199999988079","task_switching","{""colorcue_switch_ans"":""92""}","experiment","95","colorcue_switch","92","true","subtract","7","blue","","","","","","","","","","","","","","","","","","","","","","","","","","","",""
"","","","","","survey-text","190","832073","0.0-190.0","A3SS0C4IVTSIFL","2022-05-19T09:38:41.234Z","task_switching-rhyme-phon_sim-same_different","","2354.7999999970198","task_switching","{""colorcue_switch_ans"":""44""}","experiment","41","colorcue_switch","44","true","add","8","red","","","","","","","","","","","","","","","","","","","","","","","","","","","",""
"","","","","","survey-text","191","835738","0.0-191.0","A3SS0C4IVTSIFL","2022-05-19T09:38:41.234Z","task_switching-rhyme-phon_sim-same_different","","3662.4000000059605","task_switching","{""colorcue_switch_ans"":""60""}","experiment","63","colorcue_switch","60","true","subtract","9","blue","","","","","","","","","","","","","","","","","","","","","","","","","","","",""
"","","","","","survey-text","192","839081","0.0-192.0","A3SS0C4IVTSIFL","2022-05-19T09:38:41.234Z","task_switching-rhyme-phon_sim-same_different","","3338.2999999970198","task_switching","{""colorcue_switch_ans"":""75""}","experiment","72","colorcue_switch","75","true","add","10","red","","","","","","","","","","","","","","","","","","","","","","","","","","","",""
"","","","","","survey-text","193","842225","0.0-193.0","A3SS0C4IVTSIFL","2022-05-19T09:38:41.234Z","task_switching-rhyme-phon_sim-same_different","","3139.9000000059605","task_switching","{""colorcue_switch_ans"":""36""}","experiment","39","colorcue_switch","36","true","subtract","11","blue","","","","","","","","","","","","","","","","","","","","","","","","","","","",""
"","","","","","survey-text","194","845320","0.0-194.0","A3SS0C4IVTSIFL","2022-05-19T09:38:41.234Z","task_switching-rhyme-phon_sim-same_different","","3091.1000000089407","task_switching","{""colorcue_switch_ans"":""82""}","experiment","79","colorcue_switch","82","true","add","12","red","","","","","","","","","","","","","","","","","","","","","","","","","","","",""
"","","","","","survey-text","195","848308","0.0-195.0","A3SS0C4IVTSIFL","2022-05-19T09:38:41.234Z","task_switching-rhyme-phon_sim-same_different","","2984.7999999970198","task_switching","{""colorcue_switch_ans"":""47""}","experiment","50","colorcue_switch","47","true","subtract","13","blue","","","","","","","","","","","","","","","","","","","","","","","","","","","",""
"","","","","","survey-text","196","851453","0.0-196.0","A3SS0C4IVTSIFL","2022-05-19T09:38:41.234Z","task_switching-rhyme-phon_sim-same_different","","3140.199999988079","task_switching","{""colorcue_switch_ans"":""56""}","experiment","53","colorcue_switch","56","true","add","14","red","","","","","","","","","","","","","","","","","","","","","","","","","","","",""
"","","","","","survey-text","197","854637","0.0-197.0","A3SS0C4IVTSIFL","2022-05-19T09:38:41.234Z","task_switching-rhyme-phon_sim-same_different","","3178.7999999970198","task_switching","{""colorcue_switch_ans"":""73""}","experiment","76","colorcue_switch","73","true","subtract","15","blue","","","","","","","","","","","","","","","","","","","","","","","","","","","",""
"","","","","","survey-text","198","857635","0.0-198.0","A3SS0C4IVTSIFL","2022-05-19T09:38:41.234Z","task_switching-rhyme-phon_sim-same_different","","2993.6000000089407","task_switching","{""colorcue_switch_ans"":""35""}","experiment","32","colorcue_switch","35","true","add","16","red","","","","","","","","","","","","","","","","","","","","","","","","","","","",""
"","","","","","survey-text","199","861625","0.0-199.0","A3SS0C4IVTSIFL","2022-05-19T09:38:41.234Z","task_switching-rhyme-phon_sim-same_different","","3986.2999999970198","task_switching","{""colorcue_switch_ans"":""52""}","experiment","55","colorcue_switch","52","true","subtract","17","blue","","","","","","","","","","","","","","","","","","","","","","","","","","","",""
"","","","","","survey-text","200","864131","0.0-200.0","A3SS0C4IVTSIFL","2022-05-19T09:38:41.234Z","task_switching-rhyme-phon_sim-same_different","","2499.9000000059605","task_switching","{""colorcue_switch_ans"":""33""}","experiment","30","colorcue_switch","33","true","add","18","red","","","","","","","","","","","","","","","","","","","","","","","","","","","",""
"","","","","","survey-text","201","868060","0.0-201.0","A3SS0C4IVTSIFL","2022-05-19T09:38:41.234Z","task_switching-rhyme-phon_sim-same_different","","3924.6000000089407","task_switching","{""colorcue_switch_ans"":""70""}","experiment","73","colorcue_switch","70","true","subtract","19","blue","","","","","","","","","","","","","","","","","","","","","","","","","","","",""
"","","","","","survey-text","202","870479","0.0-202.0","A3SS0C4IVTSIFL","2022-05-19T09:38:41.234Z","task_switching-rhyme-phon_sim-same_different","","2415.2000000029802","task_switching","{""colorcue_switch_ans"":""46""}","experiment","43","colorcue_switch","46","true","add","20","red","","","","","","","","","","","","","","","","","","","","","","","","","","","",""
"","","","","","survey-text","203","873101","0.0-203.0","A3SS0C4IVTSIFL","2022-05-19T09:38:41.234Z","task_switching-rhyme-phon_sim-same_different","","2619.2000000029802","task_switching","{""colorcue_switch_ans"":""51""}","experiment","54","colorcue_switch","51","true","subtract","21","blue","","","","","","","","","","","","","","","","","","","","","","","","","","","",""
"","","","","","survey-text","204","875892","0.0-204.0","A3SS0C4IVTSIFL","2022-05-19T09:38:41.234Z","task_switching-rhyme-phon_sim-same_different","","2787.2000000029802","task_switching","{""colorcue_switch_ans"":""92""}","experiment","89","colorcue_switch","92","true","add","22","red","","","","","","","","","","","","","","","","","","","","","","","","","","","",""
"","","","","","survey-text","205","878536","0.0-205.0","A3SS0C4IVTSIFL","2022-05-19T09:38:41.234Z","task_switching-rhyme-phon_sim-same_different","","2641.2999999970198","task_switching","{""colorcue_switch_ans"":""53""}","experiment","56","colorcue_switch","53","true","subtract","23","blue","","","","","","","","","","","","","","","","","","","","","","","","","","","",""
"","","","","","survey-text","206","881211","0.0-206.0","A3SS0C4IVTSIFL","2022-05-19T09:38:41.234Z","task_switching-rhyme-phon_sim-same_different","","2671","task_switching","{""colorcue_switch_ans"":""88""}","experiment","85","colorcue_switch","88","true","add","24","red","","","","","","","","","","","","","","","","","","","","","","","","","","","",""
"","","","","","survey-text","207","884070","0.0-207.0","A3SS0C4IVTSIFL","2022-05-19T09:38:41.234Z","task_switching-rhyme-phon_sim-same_different","","2856.1000000089407","task_switching","{""colorcue_switch_ans"":""81""}","experiment","84","colorcue_switch","81","true","subtract","25","blue","","","","","","","","","","","","","","","","","","","","","","","","","","","",""
"","","","","","survey-text","208","886823","0.0-208.0","A3SS0C4IVTSIFL","2022-05-19T09:38:41.234Z","task_switching-rhyme-phon_sim-same_different","","2748.4000000059605","task_switching","{""colorcue_switch_ans"":""32""}","experiment","29","colorcue_switch","32","true","add","26","red","","","","","","","","","","","","","","","","","","","","","","","","","","","",""
"","","","","","survey-text","209","890184","0.0-209.0","A3SS0C4IVTSIFL","2022-05-19T09:38:41.234Z","task_switching-rhyme-phon_sim-same_different","","3356.199999988079","task_switching","{""colorcue_switch_ans"":""18""}","experiment","21","colorcue_switch","18","true","subtract","27","blue","","","","","","","","","","","","","","","","","","","","","","","","","","","",""
"","","","","","survey-text","210","893859","0.0-210.0","A3SS0C4IVTSIFL","2022-05-19T09:38:41.234Z","task_switching-rhyme-phon_sim-same_different","","3672.5999999940395","task_switching","{""colorcue_switch_ans"":""22""}","experiment","19","colorcue_switch","22","true","add","28","red","","","","","","","","","","","","","","","","","","","","","","","","","","","",""
"","","","","","survey-text","211","896750","0.0-211.0","A3SS0C4IVTSIFL","2022-05-19T09:38:41.234Z","task_switching-rhyme-phon_sim-same_different","","2886.9000000059605","task_switching","{""colorcue_switch_ans"":""37""}","experiment","40","colorcue_switch","37","true","subtract","29","blue","","","","","","","","","","","","","","","","","","","","","","","","","","","",""
"","","","","","instructions","212","1327691","0.0-212.0","A3SS0C4IVTSIFL","2022-05-19T09:38:41.234Z","task_switching-rhyme-phon_sim-same_different","[{""page_index"":0,""viewing_time"":409074.5}]","409074.90000000596","task_switching","","","","","","","","","","","","","","","","","","","","","","","","","","","","","","","","","","","","",""
"","","","","","survey-text","213","1330639","0.0-213.0","A3SS0C4IVTSIFL","2022-05-19T09:38:41.234Z","task_switching-rhyme-phon_sim-same_different","","2942.8999999910593","task_switching","{""symbolcue_switch_ans"":""89""}","training","86","symbolcue_switch","89","true","add","0","","+","","","","","","","","","","","","","","","","","","","","","","","","","","",""
"","","","","","html-keyboard-response","214","1331641","0.0-214.0","A3SS0C4IVTSIFL","2022-05-19T09:38:41.234Z","task_switching-rhyme-phon_sim-same_different","","null","task_switching","null","training","<div style=""color:darkgreen; font-size:60px"">Well done!</div>","symbolcue_switch","","","","","","","","","","","","","","","","","","","","","","","","","","","","","","","","",""
"","","","","","survey-text","215","1334262","0.0-215.0","A3SS0C4IVTSIFL","2022-05-19T09:38:41.234Z","task_switching-rhyme-phon_sim-same_different","","2618.4000000059605","task_switching","{""symbolcue_switch_ans"":""82""}","training","85","symbolcue_switch","82","true","subtract","1","","-","","","","","","","","","","","","","","","","","","","","","","","","","","",""
"","","","","","html-keyboard-response","216","1335264","0.0-216.0","A3SS0C4IVTSIFL","2022-05-19T09:38:41.234Z","task_switching-rhyme-phon_sim-same_different","","null","task_switching","null","training","<div style=""color:darkgreen; font-size:60px"">Well done!</div>","symbolcue_switch","","","","","","","","","","","","","","","","","","","","","","","","","","","","","","","","",""
"","","","","","survey-text","217","1337928","0.0-217.0","A3SS0C4IVTSIFL","2022-05-19T09:38:41.234Z","task_switching-rhyme-phon_sim-same_different","","2660.7999999970198","task_switching","{""symbolcue_switch_ans"":""51""}","training","48","symbolcue_switch","51","true","add","2","","+","","","","","","","","","","","","","","","","","","","","","","","","","","",""
"","","","","","html-keyboard-response","218","1338930","0.0-218.0","A3SS0C4IVTSIFL","2022-05-19T09:38:41.234Z","task_switching-rhyme-phon_sim-same_different","","null","task_switching","null","training","<div style=""color:darkgreen; font-size:60px"">Well done!</div>","symbolcue_switch","","","","","","","","","","","","","","","","","","","","","","","","","","","","","","","","",""
"","","","","","survey-text","219","1341720","0.0-219.0","A3SS0C4IVTSIFL","2022-05-19T09:38:41.234Z","task_switching-rhyme-phon_sim-same_different","","2786.9000000059605","task_switching","{""symbolcue_switch_ans"":""55""}","training","58","symbolcue_switch","55","true","subtract","3","","-","","","","","","","","","","","","","","","","","","","","","","","","","","",""
"","","","","","html-keyboard-response","220","1342723","0.0-220.0","A3SS0C4IVTSIFL","2022-05-19T09:38:41.234Z","task_switching-rhyme-phon_sim-same_different","","null","task_switching","null","training","<div style=""color:darkgreen; font-size:60px"">Well done!</div>","symbolcue_switch","","","","","","","","","","","","","","","","","","","","","","","","","","","","","","","","",""
"","","","","","survey-text","221","1345720","0.0-221.0","A3SS0C4IVTSIFL","2022-05-19T09:38:41.234Z","task_switching-rhyme-phon_sim-same_different","","2993.6000000089407","task_switching","{""symbolcue_switch_ans"":""68""}","training","65","symbolcue_switch","68","true","add","4","","+","","","","","","","","","","","","","","","","","","","","","","","","","","",""
"","","","","","html-keyboard-response","222","1346723","0.0-222.0","A3SS0C4IVTSIFL","2022-05-19T09:38:41.234Z","task_switching-rhyme-phon_sim-same_different","","null","task_switching","null","training","<div style=""color:darkgreen; font-size:60px"">Well done!</div>","symbolcue_switch","","","","","","","","","","","","","","","","","","","","","","","","","","","","","","","","",""
"","","","","","survey-text","223","1349660","0.0-223.0","A3SS0C4IVTSIFL","2022-05-19T09:38:41.234Z","task_switching-rhyme-phon_sim-same_different","","2934.0999999940395","task_switching","{""symbolcue_switch_ans"":""36""}","training","39","symbolcue_switch","36","true","subtract","5","","-","","","","","","","","","","","","","","","","","","","","","","","","","","",""
"","","","","","html-keyboard-response","224","1350663","0.0-224.0","A3SS0C4IVTSIFL","2022-05-19T09:38:41.234Z","task_switching-rhyme-phon_sim-same_different","","null","task_switching","null","training","<div style=""color:darkgreen; font-size:60px"">Well done!</div>","symbolcue_switch","","","","","","","","","","","","","","","","","","","","","","","","","","","","","","","","",""
"","","","","","survey-text","225","1353679","0.0-225.0","A3SS0C4IVTSIFL","2022-05-19T09:38:41.234Z","task_switching-rhyme-phon_sim-same_different","","3012.6000000089407","task_switching","{""symbolcue_switch_ans"":""54""}","training","51","symbolcue_switch","54","true","add","6","","+","","","","","","","","","","","","","","","","","","","","","","","","","","",""
"","","","","","html-keyboard-response","226","1354681","0.0-226.0","A3SS0C4IVTSIFL","2022-05-19T09:38:41.234Z","task_switching-rhyme-phon_sim-same_different","","null","task_switching","null","training","<div style=""color:darkgreen; font-size:60px"">Well done!</div>","symbolcue_switch","","","","","","","","","","","","","","","","","","","","","","","","","","","","","","","","",""
"","","","","","survey-text","227","1357078","0.0-227.0","A3SS0C4IVTSIFL","2022-05-19T09:38:41.234Z","task_switching-rhyme-phon_sim-same_different","","2394.2000000029802","task_switching","{""symbolcue_switch_ans"":""88""}","training","91","symbolcue_switch","88","true","subtract","7","","-","","","","","","","","","","","","","","","","","","","","","","","","","","",""
"","","","","","html-keyboard-response","228","1358080","0.0-228.0","A3SS0C4IVTSIFL","2022-05-19T09:38:41.234Z","task_switching-rhyme-phon_sim-same_different","","null","task_switching","null","training","<div style=""color:darkgreen; font-size:60px"">Well done!</div>","symbolcue_switch","","","","","","","","","","","","","","","","","","","","","","","","","","","","","","","","",""
"","","","","","survey-text","229","1361304","0.0-229.0","A3SS0C4IVTSIFL","2022-05-19T09:38:41.234Z","task_switching-rhyme-phon_sim-same_different","","3221.1000000089407","task_switching","{""symbolcue_switch_ans"":""50""}","training","47","symbolcue_switch","50","true","add","8","","+","","","","","","","","","","","","","","","","","","","","","","","","","","",""
"","","","","","html-keyboard-response","230","1362307","0.0-230.0","A3SS0C4IVTSIFL","2022-05-19T09:38:41.234Z","task_switching-rhyme-phon_sim-same_different","","null","task_switching","null","training","<div style=""color:darkgreen; font-size:60px"">Well done!</div>","symbolcue_switch","","","","","","","","","","","","","","","","","","","","","","","","","","","","","","","","",""
"","","","","","survey-text","231","1365096","0.0-231.0","A3SS0C4IVTSIFL","2022-05-19T09:38:41.234Z","task_switching-rhyme-phon_sim-same_different","","2785.800000011921","task_switching","{""symbolcue_switch_ans"":""49""}","training","52","symbolcue_switch","49","true","subtract","9","","-","","","","","","","","","","","","","","","","","","","","","","","","","","",""
"","","","","","html-keyboard-response","232","1366098","0.0-232.0","A3SS0C4IVTSIFL","2022-05-19T09:38:41.234Z","task_switching-rhyme-phon_sim-same_different","","null","task_switching","null","training","<div style=""color:darkgreen; font-size:60px"">Well done!</div>","symbolcue_switch","","","","","","","","","","","","","","","","","","","","","","","","","","","","","","","","",""
"","","","","","instructions","233","1367679","0.0-233.0","A3SS0C4IVTSIFL","2022-05-19T09:38:41.234Z","task_switching-rhyme-phon_sim-same_different","[{""page_index"":0,""viewing_time"":1580.2999999970198}]","1580.5999999940395","task_switching","","","","","","","","","","","","","","","","","","","","","","","","","","","","","","","","","","","","",""
"","","","","","survey-text","234","1370667","0.0-234.0","A3SS0C4IVTSIFL","2022-05-19T09:38:41.234Z","task_switching-rhyme-phon_sim-same_different","","2985.2999999970198","task_switching","{""symbolcue_switch_ans"":""92""}","experiment","89","symbolcue_switch","92","true","add","0","","+","","","","","","","","","","","","","","","","","","","","","","","","","","",""
"","","","","","survey-text","235","1373634","0.0-235.0","A3SS0C4IVTSIFL","2022-05-19T09:38:41.234Z","task_switching-rhyme-phon_sim-same_different","","2963.8999999910593","task_switching","{""symbolcue_switch_ans"":""44""}","experiment","47","symbolcue_switch","44","true","subtract","1","","-","","","","","","","","","","","","","","","","","","","","","","","","","","",""
"","","","","","survey-text","236","1376504","0.0-236.0","A3SS0C4IVTSIFL","2022-05-19T09:38:41.234Z","task_switching-rhyme-phon_sim-same_different","","2866","task_switching","{""symbolcue_switch_ans"":""97""}","experiment","94","symbolcue_switch","97","true","add","2","","+","","","","","","","","","","","","","","","","","","","","","","","","","","",""
"","","","","","survey-text","237","1379069","0.0-237.0","A3SS0C4IVTSIFL","2022-05-19T09:38:41.234Z","task_switching-rhyme-phon_sim-same_different","","2561.0999999940395","task_switching","{""symbolcue_switch_ans"":""32""}","experiment","35","symbolcue_switch","32","true","subtract","3","","-","","","","","","","","","","","","","","","","","","","","","","","","","","",""
"","","","","","survey-text","238","1381693","0.0-238.0","A3SS0C4IVTSIFL","2022-05-19T09:38:41.234Z","task_switching-rhyme-phon_sim-same_different","","2620.2000000029802","task_switching","{""symbolcue_switch_ans"":""22""}","experiment","19","symbolcue_switch","22","true","add","4","","+","","","","","","","","","","","","","","","","","","","","","","","","","","",""
"","","","","","survey-text","239","1384042","0.0-239.0","A3SS0C4IVTSIFL","2022-05-19T09:38:41.234Z","task_switching-rhyme-phon_sim-same_different","","2344","task_switching","{""symbolcue_switch_ans"":""33""}","experiment","36","symbolcue_switch","33","true","subtract","5","","-","","","","","","","","","","","","","","","","","","","","","","","","","","",""
"","","","","","survey-text","240","1386549","0.0-240.0","A3SS0C4IVTSIFL","2022-05-19T09:38:41.234Z","task_switching-rhyme-phon_sim-same_different","","2503","task_switching","{""symbolcue_switch_ans"":""23""}","experiment","20","symbolcue_switch","23","true","add","6","","+","","","","","","","","","","","","","","","","","","","","","","","","","","",""
"","","","","","survey-text","241","1389222","0.0-241.0","A3SS0C4IVTSIFL","2022-05-19T09:38:41.234Z","task_switching-rhyme-phon_sim-same_different","","2669.7000000029802","task_switching","{""symbolcue_switch_ans"":""21""}","experiment","24","symbolcue_switch","21","true","subtract","7","","-","","","","","","","","","","","","","","","","","","","","","","","","","","",""
"","","","","","survey-text","242","1392565","0.0-242.0","A3SS0C4IVTSIFL","2022-05-19T09:38:41.234Z","task_switching-rhyme-phon_sim-same_different","","3338.4000000059605","task_switching","{""symbolcue_switch_ans"":""78""}","experiment","75","symbolcue_switch","78","true","add","8","","+","","","","","","","","","","","","","","","","","","","","","","","","","","",""
"","","","","","survey-text","243","1394883","0.0-243.0","A3SS0C4IVTSIFL","2022-05-19T09:38:41.234Z","task_switching-rhyme-phon_sim-same_different","","2312.7999999970198","task_switching","{""symbolcue_switch_ans"":""12""}","experiment","15","symbolcue_switch","12","true","subtract","9","","-","","","","","","","","","","","","","","","","","","","","","","","","","","",""
"","","","","","survey-text","244","1397692","0.0-244.0","A3SS0C4IVTSIFL","2022-05-19T09:38:41.234Z","task_switching-rhyme-phon_sim-same_different","","2804.7999999970198","task_switching","{""symbolcue_switch_ans"":""98""}","experiment","95","symbolcue_switch","98","true","add","10","","+","","","","","","","","","","","","","","","","","","","","","","","","","","",""
"","","","","","survey-text","245","1400976","0.0-245.0","A3SS0C4IVTSIFL","2022-05-19T09:38:41.234Z","task_switching-rhyme-phon_sim-same_different","","3280.5","task_switching","{""symbolcue_switch_ans"":""39""}","experiment","42","symbolcue_switch","39","true","subtract","11","","-","","","","","","","","","","","","","","","","","","","","","","","","","","",""
"","","","","","survey-text","246","1403952","0.0-246.0","A3SS0C4IVTSIFL","2022-05-19T09:38:41.234Z","task_switching-rhyme-phon_sim-same_different","","2972.6000000089407","task_switching","{""symbolcue_switch_ans"":""96""}","experiment","93","symbolcue_switch","96","true","add","12","","+","","","","","","","","","","","","","","","","","","","","","","","","","","",""
"","","","","","survey-text","247","1407097","0.0-247.0","A3SS0C4IVTSIFL","2022-05-19T09:38:41.234Z","task_switching-rhyme-phon_sim-same_different","","3141.5999999940395","task_switching","{""symbolcue_switch_ans"":""45""}","experiment","48","symbolcue_switch","45","true","subtract","13","","-","","","","","","","","","","","","","","","","","","","","","","","","","","",""
"","","","","","survey-text","248","1410114","0.0-248.0","A3SS0C4IVTSIFL","2022-05-19T09:38:41.234Z","task_switching-rhyme-phon_sim-same_different","","3012.7999999970198","task_switching","{""symbolcue_switch_ans"":""76""}","experiment","73","symbolcue_switch","76","true","add","14","","+","","","","","","","","","","","","","","","","","","","","","","","","","","",""
"","","","","","survey-text","249","1413249","0.0-249.0","A3SS0C4IVTSIFL","2022-05-19T09:38:41.234Z","task_switching-rhyme-phon_sim-same_different","","3130.5","task_switching","{""symbolcue_switch_ans"":""69""}","experiment","72","symbolcue_switch","69","true","subtract","15","","-","","","","","","","","","","","","","","","","","","","","","","","","","","",""
"","","","","","survey-text","250","1415971","0.0-250.0","A3SS0C4IVTSIFL","2022-05-19T09:38:41.234Z","task_switching-rhyme-phon_sim-same_different","","2719.0999999940395","task_switching","{""symbolcue_switch_ans"":""36""}","experiment","33","symbolcue_switch","36","true","add","16","","+","","","","","","","","","","","","","","","","","","","","","","","","","","",""
"","","","","","survey-text","251","1424404","0.0-251.0","A3SS0C4IVTSIFL","2022-05-19T09:38:41.234Z","task_switching-rhyme-phon_sim-same_different","","8428.20000000298","task_switching","{""symbolcue_switch_ans"":""29""}","experiment","32","symbolcue_switch","29","true","subtract","17","","-","","","","","","","","","","","","","","","","","","","","","","","","","","",""
"","","","","","survey-text","252","1427518","0.0-252.0","A3SS0C4IVTSIFL","2022-05-19T09:38:41.234Z","task_switching-rhyme-phon_sim-same_different","","3110.5","task_switching","{""symbolcue_switch_ans"":""25""}","experiment","22","symbolcue_switch","25","true","add","18","","+","","","","","","","","","","","","","","","","","","","","","","","","","","",""
"","","","","","survey-text","253","1430272","0.0-253.0","A3SS0C4IVTSIFL","2022-05-19T09:38:41.234Z","task_switching-rhyme-phon_sim-same_different","","2748.7999999970198","task_switching","{""symbolcue_switch_ans"":""55""}","experiment","58","symbolcue_switch","55","true","subtract","19","","-","","","","","","","","","","","","","","","","","","","","","","","","","","",""
"","","","","","survey-text","254","1433385","0.0-254.0","A3SS0C4IVTSIFL","2022-05-19T09:38:41.234Z","task_switching-rhyme-phon_sim-same_different","","3108.6000000089407","task_switching","{""symbolcue_switch_ans"":""57""}","experiment","54","symbolcue_switch","57","true","add","20","","+","","","","","","","","","","","","","","","","","","","","","","","","","","",""
"","","","","","survey-text","255","1436774","0.0-255.0","A3SS0C4IVTSIFL","2022-05-19T09:38:41.234Z","task_switching-rhyme-phon_sim-same_different","","3385.5","task_switching","{""symbolcue_switch_ans"":""59""}","experiment","62","symbolcue_switch","59","true","subtract","21","","-","","","","","","","","","","","","","","","","","","","","","","","","","","",""
"","","","","","survey-text","256","1439949","0.0-256.0","A3SS0C4IVTSIFL","2022-05-19T09:38:41.234Z","task_switching-rhyme-phon_sim-same_different","","3172.4000000059605","task_switching","{""symbolcue_switch_ans"":""68""}","experiment","65","symbolcue_switch","68","true","add","22","","+","","","","","","","","","","","","","","","","","","","","","","","","","","",""
"","","","","","survey-text","257","1443662","0.0-257.0","A3SS0C4IVTSIFL","2022-05-19T09:38:41.234Z","task_switching-rhyme-phon_sim-same_different","","3708.5","task_switching","{""symbolcue_switch_ans"":""14""}","experiment","17","symbolcue_switch","14","true","subtract","23","","-","","","","","","","","","","","","","","","","","","","","","","","","","","",""
"","","","","","survey-text","258","1446504","0.0-258.0","A3SS0C4IVTSIFL","2022-05-19T09:38:41.234Z","task_switching-rhyme-phon_sim-same_different","","2839","task_switching","{""symbolcue_switch_ans"":""77""}","experiment","74","symbolcue_switch","77","true","add","24","","+","","","","","","","","","","","","","","","","","","","","","","","","","","",""
"","","","","","survey-text","259","1449598","0.0-259.0","A3SS0C4IVTSIFL","2022-05-19T09:38:41.234Z","task_switching-rhyme-phon_sim-same_different","","3088.7999999970198","task_switching","{""symbolcue_switch_ans"":""46""}","experiment","49","symbolcue_switch","46","true","subtract","25","","-","","","","","","","","","","","","","","","","","","","","","","","","","","",""
"","","","","","survey-text","260","1455287","0.0-260.0","A3SS0C4IVTSIFL","2022-05-19T09:38:41.234Z","task_switching-rhyme-phon_sim-same_different","","5685","task_switching","{""symbolcue_switch_ans"":""79""}","experiment","76","symbolcue_switch","79","true","add","26","","+","","","","","","","","","","","","","","","","","","","","","","","","","","",""
"","","","","","survey-text","261","1458658","0.0-261.0","A3SS0C4IVTSIFL","2022-05-19T09:38:41.234Z","task_switching-rhyme-phon_sim-same_different","","3367","task_switching","{""symbolcue_switch_ans"":""84""}","experiment","87","symbolcue_switch","84","true","subtract","27","","-","","","","","","","","","","","","","","","","","","","","","","","","","","",""
"","","","","","survey-text","262","1461951","0.0-262.0","A3SS0C4IVTSIFL","2022-05-19T09:38:41.234Z","task_switching-rhyme-phon_sim-same_different","","3290","task_switching","{""symbolcue_switch_ans"":""30""}","experiment","27","symbolcue_switch","30","true","add","28","","+","","","","","","","","","","","","","","","","","","","","","","","","","","",""
"","","","","","survey-text","263","1472632","0.0-263.0","A3SS0C4IVTSIFL","2022-05-19T09:38:41.234Z","task_switching-rhyme-phon_sim-same_different","","10676","task_switching","{""symbolcue_switch_ans"":""76""}","experiment","79","symbolcue_switch","76","true","subtract","29","","-","","","","","","","","","","","","","","","","","","","","","","","","","","",""
"","","","","","survey-multi-choice","264","1478892","0.0-264.0","A3SS0C4IVTSIFL","2022-05-19T09:38:41.234Z","task_switching-rhyme-phon_sim-same_different","","6257.5","task_switching","{""Q0"":""Yes""}","","","","","","","","","","[0]","Yes","","","","","","","","","","","","","","","","","","","","","","","","",""
"","","","","","survey-text","265","1504187","0.0-265.0","A3SS0C4IVTSIFL","2022-05-19T09:38:41.234Z","task_switching-rhyme-phon_sim-same_different","","25290.79999999702","task_switching","{""Q0"":""I try to think before I type""}","","","","","","","","","","","","I try to think before I type","","","","","","","","","","","","","","","","","","","","","","","",""
"","","","","","instructions","266","1506287","0.0-266.0","A3SS0C4IVTSIFL","2022-05-19T09:38:41.234Z","task_switching-rhyme-phon_sim-same_different","[{""page_index"":0,""viewing_time"":2098.3999999910593}]","2098.8999999910593","task_switching","","","","","","","","","","","","","","","","","","","","","","","","","","","","","","","","","","","","",""
"","","","","","instructions","267","1697020","0.0-267.0","A3SS0C4IVTSIFL","2022-05-19T09:38:41.234Z","task_switching-rhyme-phon_sim-same_different","[{""page_index"":0,""viewing_time"":190731.20000000298}]","190731.70000000298","rhyme","","","","","","","","","","","","","","","","","","","","","","","","","","","","","","","","","","","","",""
"","","","","","html-keyboard-response","268","1697522","0.0-268.0-0.0","A3SS0C4IVTSIFL","2022-05-19T09:38:41.234Z","task_switching-rhyme-phon_sim-same_different","","null","rhyme","null","","<div style=""font-size:60px;"">+</div>","","","","","","","","","","","500","","","","","","","","","","","","","","","","","","","","","","",""
"","","","","","html-keyboard-response","269","1698025","0.0-268.0-1.0","A3SS0C4IVTSIFL","2022-05-19T09:38:41.234Z","task_switching-rhyme-phon_sim-same_different","","null","rhyme","null","","<img src=""square.png"" width=""306"" height=""306"" style=""position: fixed;left:14%;top:30%""><img src=""square.png"" width=""306"" height=""306"" style=""position: fixed;left:64%;top:30%"">","","","","","","","","","","","","","","","","","","","","","","","","","","","","","","","","","",""
