"success","timeout","failed_images","failed_audio","failed_video","trial_type","trial_index","time_elapsed","internal_node_id","worker_id","start_time","experiment_order","view_history","rt","experiment","stimulus","response","wait_time","correct","phase","image_1","image_2","cor_key","type","question_order","talk_out_loud","strategy_free_ans","word_1","word_2","word_3","word_4","word_5","original_word_set","response_1","response_2","response_3","response_4","response_5","condition","answer","operation","symbol_cue","trial_no","color_cue","judgment_type","stim_1","stim_2","inverted","true_neg","true_pos","false_neg","false_pos"
"true","false","[]","[]","[]","preload","0","3695","0.0-0.0","A2M183CETUMR96","2022-05-26T23:55:49.603Z","rhyme-phon_sim-task_switching-same_different","","","","","","","","","","","","","","","","","","","","","","","","","","","","","","","","","","","","","","","",""
"","","","","","instructions","1","66123","0.0-1.0","A2M183CETUMR96","2022-05-26T23:55:49.603Z","rhyme-phon_sim-task_switching-same_different","[{""page_index"":0,""viewing_time"":62428.10000000149}]","62428.10000000149","","","","","","","","","","","","","","","","","","","","","","","","","","","","","","","","","","","","","",""
"true","","","","","fullscreen","2","74979","0.0-2.0","A2M183CETUMR96","2022-05-26T23:55:49.603Z","rhyme-phon_sim-task_switching-same_different","","","","","","","","","","","","","","","","","","","","","","","","","","","","","","","","","","","","","","","",""
"","","","","","instructions","3","102379","0.0-3.0","A2M183CETUMR96","2022-05-26T23:55:49.603Z","rhyme-phon_sim-task_switching-same_different","[{""page_index"":0,""viewing_time"":27399.60000000149}]","27399.69999999553","rhyme","","","","","","","","","","","","","","","","","","","","","","","","","","","","","","","","","","","","",""
"","","","","","html-keyboard-response","4","102880","0.0-4.0-0.0","A2M183CETUMR96","2022-05-26T23:55:49.603Z","rhyme-phon_sim-task_switching-same_different","","null","rhyme","<div style=""font-size:60px;"">+</div>","null","500","","","","","","","","","","","","","","","","","","","","","","","","","","","","","","","","","",""
"","","","","","html-keyboard-response","5","103381","0.0-4.0-1.0","A2M183CETUMR96","2022-05-26T23:55:49.603Z","rhyme-phon_sim-task_switching-same_different","","null","rhyme","<img src=""square.png"" width=""306"" height=""306"" style=""position: fixed;left:14%;top:30%""><img src=""square.png"" width=""306"" height=""306"" style=""position: fixed;left:64%;top:30%"">","null","","","","","","","","","","","","","","","","","","","","","","","","","","","","","","","","","","",""
"","","","","","categorize-html","6","107128","0.0-4.0-2.0","A2M183CETUMR96","2022-05-26T23:55:49.603Z","rhyme-phon_sim-task_switching-same_different","","2746.2000000029802","rhyme","<div style=""border: 3px solid #000000; position: fixed;left:14%;top:30%""><img src=""visual/dress.png"" width=""300""></div><div style=""border: 3px solid #000000; position: fixed;left:64%;top:30%""><img src=""visual/chess.png"" width=""300""></div>","arrowdown","","false","training","visual/dress.png","visual/chess.png","ArrowUp","NA","","","","","","","","","","","","","","","","","","","","","","","","","","","",""
"","","","","","html-keyboard-response","7","107379","0.0-4.0-0.1","A2M183CETUMR96","2022-05-26T23:55:49.603Z","rhyme-phon_sim-task_switching-same_different","","null","rhyme","<div style=""font-size:60px;"">+</div>","null","250","","","","","","","","","","","","","","","","","","","","","","","","","","","","","","","","","",""
"","","","","","html-keyboard-response","8","107880","0.0-4.0-1.1","A2M183CETUMR96","2022-05-26T23:55:49.603Z","rhyme-phon_sim-task_switching-same_different","","null","rhyme","<img src=""square.png"" width=""306"" height=""306"" style=""position: fixed;left:14%;top:30%""><img src=""square.png"" width=""306"" height=""306"" style=""position: fixed;left:64%;top:30%"">","null","","","","","","","","","","","","","","","","","","","","","","","","","","","","","","","","","","",""
"","","","","","categorize-html","9","110414","0.0-4.0-2.1","A2M183CETUMR96","2022-05-26T23:55:49.603Z","rhyme-phon_sim-task_switching-same_different","","1533.5999999940395","rhyme","<div style=""border: 3px solid #000000; position: fixed;left:14%;top:30%""><img src=""visual/chess.png"" width=""300""></div><div style=""border: 3px solid #000000; position: fixed;left:64%;top:30%""><img src=""visual/suit.png"" width=""300""></div>","arrowdown","","true","training","visual/chess.png","visual/suit.png","ArrowDown","NA","","","","","","","","","","","","","","","","","","","","","","","","","","","",""
"","","","","","html-keyboard-response","10","111415","0.0-4.0-0.2","A2M183CETUMR96","2022-05-26T23:55:49.603Z","rhyme-phon_sim-task_switching-same_different","","null","rhyme","<div style=""font-size:60px;"">+</div>","null","1000","","","","","","","","","","","","","","","","","","","","","","","","","","","","","","","","","",""
"","","","","","html-keyboard-response","11","111915","0.0-4.0-1.2","A2M183CETUMR96","2022-05-26T23:55:49.603Z","rhyme-phon_sim-task_switching-same_different","","null","rhyme","<img src=""square.png"" width=""306"" height=""306"" style=""position: fixed;left:14%;top:30%""><img src=""square.png"" width=""306"" height=""306"" style=""position: fixed;left:64%;top:30%"">","null","","","","","","","","","","","","","","","","","","","","","","","","","","","","","","","","","","",""
"","","","","","categorize-html","12","115346","0.0-4.0-2.2","A2M183CETUMR96","2022-05-26T23:55:49.603Z","rhyme-phon_sim-task_switching-same_different","","2430.2000000029802","rhyme","<div style=""border: 3px solid #000000; position: fixed;left:14%;top:30%""><img src=""visual/mouse.png"" width=""300""></div><div style=""border: 3px solid #000000; position: fixed;left:64%;top:30%""><img src=""visual/dress.png"" width=""300""></div>","arrowdown","","true","training","visual/mouse.png","visual/dress.png","ArrowDown","NA","","","","","","","","","","","","","","","","","","","","","","","","","","","",""
"","","","","","html-keyboard-response","13","115597","0.0-4.0-0.3","A2M183CETUMR96","2022-05-26T23:55:49.603Z","rhyme-phon_sim-task_switching-same_different","","null","rhyme","<div style=""font-size:60px;"">+</div>","null","250","","","","","","","","","","","","","","","","","","","","","","","","","","","","","","","","","",""
"","","","","","html-keyboard-response","14","116097","0.0-4.0-1.3","A2M183CETUMR96","2022-05-26T23:55:49.603Z","rhyme-phon_sim-task_switching-same_different","","null","rhyme","<img src=""square.png"" width=""306"" height=""306"" style=""position: fixed;left:14%;top:30%""><img src=""square.png"" width=""306"" height=""306"" style=""position: fixed;left:64%;top:30%"">","null","","","","","","","","","","","","","","","","","","","","","","","","","","","","","","","","","","",""
"","","","","","categorize-html","15","118308","0.0-4.0-2.3","A2M183CETUMR96","2022-05-26T23:55:49.603Z","rhyme-phon_sim-task_switching-same_different","","1209.7999999970198","rhyme","<div style=""border: 3px solid #000000; position: fixed;left:14%;top:30%""><img src=""visual/house.png"" width=""300""></div><div style=""border: 3px solid #000000; position: fixed;left:64%;top:30%""><img src=""visual/mouse.png"" width=""300""></div>","arrowup","","true","training","visual/house.png","visual/mouse.png","ArrowUp","NA","","","","","","","","","","","","","","","","","","","","","","","","","","","",""
"","","","","","instructions","16","120620","0.0-5.0","A2M183CETUMR96","2022-05-26T23:55:49.603Z","rhyme-phon_sim-task_switching-same_different","[{""page_index"":0,""viewing_time"":2311.5}]","2311.60000000149","","","","","","","","","","","","","","","","","","","","","","","","","","","","","","","","","","","","","",""
"","","","","","html-keyboard-response","17","121620","0.0-6.0-0.0","A2M183CETUMR96","2022-05-26T23:55:49.603Z","rhyme-phon_sim-task_switching-same_different","","null","rhyme","<div style=""font-size:60px;"">+</div>","null","1000","","","","","","","","","","","","","","","","","","","","","","","","","","","","","","","","","",""
"","","","","","html-keyboard-response","18","122121","0.0-6.0-1.0","A2M183CETUMR96","2022-05-26T23:55:49.603Z","rhyme-phon_sim-task_switching-same_different","","null","rhyme","<img src=""square.png"" width=""306"" height=""306"" style=""position: fixed;left:14%;top:30%""><img src=""square.png"" width=""306"" height=""306"" style=""position: fixed;left:64%;top:30%"">","null","","","","","","","","","","","","","","","","","","","","","","","","","","","","","","","","","","",""
"","","","","","html-keyboard-response","19","124006","0.0-6.0-2.0","A2M183CETUMR96","2022-05-26T23:55:49.603Z","rhyme-phon_sim-task_switching-same_different","","1884.2000000029802","rhyme","<div style=""border: 3px solid #000000; position: fixed;left:14%;top:30%""><img src=""visual/cake.png"" width=""300""></div><div style=""border: 3px solid #000000; position: fixed;left:64%;top:30%""><img src=""visual/rake.png"" width=""300""></div>","arrowdown","","false","experiment","visual/cake.png","visual/rake.png","ArrowUp","ortho","","","","","","","","","","","","","","","","","","","","","","","","","","","",""
"","","","","","html-keyboard-response","20","124257","0.0-6.0-0.1","A2M183CETUMR96","2022-05-26T23:55:49.603Z","rhyme-phon_sim-task_switching-same_different","","null","rhyme","<div style=""font-size:60px;"">+</div>","null","250","","","","","","","","","","","","","","","","","","","","","","","","","","","","","","","","","",""
"","","","","","html-keyboard-response","21","124757","0.0-6.0-1.1","A2M183CETUMR96","2022-05-26T23:55:49.603Z","rhyme-phon_sim-task_switching-same_different","","null","rhyme","<img src=""square.png"" width=""306"" height=""306"" style=""position: fixed;left:14%;top:30%""><img src=""square.png"" width=""306"" height=""306"" style=""position: fixed;left:64%;top:30%"">","null","","","","","","","","","","","","","","","","","","","","","","","","","","","","","","","","","","",""
"","","","","","html-keyboard-response","22","126011","0.0-6.0-2.1","A2M183CETUMR96","2022-05-26T23:55:49.603Z","rhyme-phon_sim-task_switching-same_different","","1253.6000000014901","rhyme","<div style=""border: 3px solid #000000; position: fixed;left:14%;top:30%""><img src=""visual/soap.png"" width=""300""></div><div style=""border: 3px solid #000000; position: fixed;left:64%;top:30%""><img src=""visual/rope.png"" width=""300""></div>","arrowup","","true","experiment","visual/soap.png","visual/rope.png","ArrowUp","non-ortho","","","","","","","","","","","","","","","","","","","","","","","","","","","",""
"","","","","","html-keyboard-response","23","126762","0.0-6.0-0.2","A2M183CETUMR96","2022-05-26T23:55:49.603Z","rhyme-phon_sim-task_switching-same_different","","null","rhyme","<div style=""font-size:60px;"">+</div>","null","750","","","","","","","","","","","","","","","","","","","","","","","","","","","","","","","","","",""
"","","","","","html-keyboard-response","24","127262","0.0-6.0-1.2","A2M183CETUMR96","2022-05-26T23:55:49.603Z","rhyme-phon_sim-task_switching-same_different","","null","rhyme","<img src=""square.png"" width=""306"" height=""306"" style=""position: fixed;left:14%;top:30%""><img src=""square.png"" width=""306"" height=""306"" style=""position: fixed;left:64%;top:30%"">","null","","","","","","","","","","","","","","","","","","","","","","","","","","","","","","","","","","",""
"","","","","","html-keyboard-response","25","128338","0.0-6.0-2.2","A2M183CETUMR96","2022-05-26T23:55:49.603Z","rhyme-phon_sim-task_switching-same_different","","1075.6000000014901","rhyme","<div style=""border: 3px solid #000000; position: fixed;left:14%;top:30%""><img src=""visual/flag.png"" width=""300""></div><div style=""border: 3px solid #000000; position: fixed;left:64%;top:30%""><img src=""visual/bag.png"" width=""300""></div>","arrowup","","true","experiment","visual/flag.png","visual/bag.png","ArrowUp","ortho","","","","","","","","","","","","","","","","","","","","","","","","","","","",""
"","","","","","html-keyboard-response","26","128589","0.0-6.0-0.3","A2M183CETUMR96","2022-05-26T23:55:49.603Z","rhyme-phon_sim-task_switching-same_different","","null","rhyme","<div style=""font-size:60px;"">+</div>","null","250","","","","","","","","","","","","","","","","","","","","","","","","","","","","","","","","","",""
"","","","","","html-keyboard-response","27","129089","0.0-6.0-1.3","A2M183CETUMR96","2022-05-26T23:55:49.603Z","rhyme-phon_sim-task_switching-same_different","","null","rhyme","<img src=""square.png"" width=""306"" height=""306"" style=""position: fixed;left:14%;top:30%""><img src=""square.png"" width=""306"" height=""306"" style=""position: fixed;left:64%;top:30%"">","null","","","","","","","","","","","","","","","","","","","","","","","","","","","","","","","","","","",""
"","","","","","html-keyboard-response","28","130408","0.0-6.0-2.3","A2M183CETUMR96","2022-05-26T23:55:49.603Z","rhyme-phon_sim-task_switching-same_different","","1318.6000000014901","rhyme","<div style=""border: 3px solid #000000; position: fixed;left:14%;top:30%""><img src=""visual/dart.png"" width=""300""></div><div style=""border: 3px solid #000000; position: fixed;left:64%;top:30%""><img src=""visual/tie.png"" width=""300""></div>","arrowdown","","true","experiment","visual/dart.png","visual/tie.png","ArrowDown","NR","","","","","","","","","","","","","","","","","","","","","","","","","","","",""
"","","","","","html-keyboard-response","29","131409","0.0-6.0-0.4","A2M183CETUMR96","2022-05-26T23:55:49.603Z","rhyme-phon_sim-task_switching-same_different","","null","rhyme","<div style=""font-size:60px;"">+</div>","null","1000","","","","","","","","","","","","","","","","","","","","","","","","","","","","","","","","","",""
"","","","","","html-keyboard-response","30","131909","0.0-6.0-1.4","A2M183CETUMR96","2022-05-26T23:55:49.603Z","rhyme-phon_sim-task_switching-same_different","","null","rhyme","<img src=""square.png"" width=""306"" height=""306"" style=""position: fixed;left:14%;top:30%""><img src=""square.png"" width=""306"" height=""306"" style=""position: fixed;left:64%;top:30%"">","null","","","","","","","","","","","","","","","","","","","","","","","","","","","","","","","","","","",""
"","","","","","html-keyboard-response","31","133705","0.0-6.0-2.4","A2M183CETUMR96","2022-05-26T23:55:49.603Z","rhyme-phon_sim-task_switching-same_different","","1795.7999999970198","rhyme","<div style=""border: 3px solid #000000; position: fixed;left:14%;top:30%""><img src=""visual/wave.png"" width=""300""></div><div style=""border: 3px solid #000000; position: fixed;left:64%;top:30%""><img src=""visual/cave.png"" width=""300""></div>","arrowdown","","false","experiment","visual/wave.png","visual/cave.png","ArrowUp","ortho","","","","","","","","","","","","","","","","","","","","","","","","","","","",""
"","","","","","html-keyboard-response","32","134456","0.0-6.0-0.5","A2M183CETUMR96","2022-05-26T23:55:49.603Z","rhyme-phon_sim-task_switching-same_different","","null","rhyme","<div style=""font-size:60px;"">+</div>","null","750","","","","","","","","","","","","","","","","","","","","","","","","","","","","","","","","","",""
"","","","","","html-keyboard-response","33","134956","0.0-6.0-1.5","A2M183CETUMR96","2022-05-26T23:55:49.603Z","rhyme-phon_sim-task_switching-same_different","","null","rhyme","<img src=""square.png"" width=""306"" height=""306"" style=""position: fixed;left:14%;top:30%""><img src=""square.png"" width=""306"" height=""306"" style=""position: fixed;left:64%;top:30%"">","null","","","","","","","","","","","","","","","","","","","","","","","","","","","","","","","","","","",""
"","","","","","html-keyboard-response","34","137411","0.0-6.0-2.5","A2M183CETUMR96","2022-05-26T23:55:49.603Z","rhyme-phon_sim-task_switching-same_different","","2453.7000000029802","rhyme","<div style=""border: 3px solid #000000; position: fixed;left:14%;top:30%""><img src=""visual/egg.png"" width=""300""></div><div style=""border: 3px solid #000000; position: fixed;left:64%;top:30%""><img src=""visual/leg.png"" width=""300""></div>","arrowup","","true","experiment","visual/egg.png","visual/leg.png","ArrowUp","ortho","","","","","","","","","","","","","","","","","","","","","","","","","","","",""
"","","","","","html-keyboard-response","35","137911","0.0-6.0-0.6","A2M183CETUMR96","2022-05-26T23:55:49.603Z","rhyme-phon_sim-task_switching-same_different","","null","rhyme","<div style=""font-size:60px;"">+</div>","null","500","","","","","","","","","","","","","","","","","","","","","","","","","","","","","","","","","",""
"","","","","","html-keyboard-response","36","138411","0.0-6.0-1.6","A2M183CETUMR96","2022-05-26T23:55:49.603Z","rhyme-phon_sim-task_switching-same_different","","null","rhyme","<img src=""square.png"" width=""306"" height=""306"" style=""position: fixed;left:14%;top:30%""><img src=""square.png"" width=""306"" height=""306"" style=""position: fixed;left:64%;top:30%"">","null","","","","","","","","","","","","","","","","","","","","","","","","","","","","","","","","","","",""
"","","","","","html-keyboard-response","37","140068","0.0-6.0-2.6","A2M183CETUMR96","2022-05-26T23:55:49.603Z","rhyme-phon_sim-task_switching-same_different","","1656.2999999970198","rhyme","<div style=""border: 3px solid #000000; position: fixed;left:14%;top:30%""><img src=""visual/bear.png"" width=""300""></div><div style=""border: 3px solid #000000; position: fixed;left:64%;top:30%""><img src=""visual/square_rhyme.png"" width=""300""></div>","arrowup","","true","experiment","visual/bear.png","visual/square_rhyme.png","ArrowUp","non-ortho","","","","","","","","","","","","","","","","","","","","","","","","","","","",""
"","","","","","html-keyboard-response","38","141069","0.0-6.0-0.7","A2M183CETUMR96","2022-05-26T23:55:49.603Z","rhyme-phon_sim-task_switching-same_different","","null","rhyme","<div style=""font-size:60px;"">+</div>","null","1000","","","","","","","","","","","","","","","","","","","","","","","","","","","","","","","","","",""
"","","","","","html-keyboard-response","39","141569","0.0-6.0-1.7","A2M183CETUMR96","2022-05-26T23:55:49.603Z","rhyme-phon_sim-task_switching-same_different","","null","rhyme","<img src=""square.png"" width=""306"" height=""306"" style=""position: fixed;left:14%;top:30%""><img src=""square.png"" width=""306"" height=""306"" style=""position: fixed;left:64%;top:30%"">","null","","","","","","","","","","","","","","","","","","","","","","","","","","","","","","","","","","",""
"","","","","","html-keyboard-response","40","143773","0.0-6.0-2.7","A2M183CETUMR96","2022-05-26T23:55:49.603Z","rhyme-phon_sim-task_switching-same_different","","2202.7999999970198","rhyme","<div style=""border: 3px solid #000000; position: fixed;left:14%;top:30%""><img src=""visual/rake.png"" width=""300""></div><div style=""border: 3px solid #000000; position: fixed;left:64%;top:30%""><img src=""visual/park.png"" width=""300""></div>","arrowdown","","true","experiment","visual/rake.png","visual/park.png","ArrowDown","NR","","","","","","","","","","","","","","","","","","","","","","","","","","","",""
"","","","","","html-keyboard-response","41","144773","0.0-6.0-0.8","A2M183CETUMR96","2022-05-26T23:55:49.603Z","rhyme-phon_sim-task_switching-same_different","","null","rhyme","<div style=""font-size:60px;"">+</div>","null","1000","","","","","","","","","","","","","","","","","","","","","","","","","","","","","","","","","",""
"","","","","","html-keyboard-response","42","145273","0.0-6.0-1.8","A2M183CETUMR96","2022-05-26T23:55:49.603Z","rhyme-phon_sim-task_switching-same_different","","null","rhyme","<img src=""square.png"" width=""306"" height=""306"" style=""position: fixed;left:14%;top:30%""><img src=""square.png"" width=""306"" height=""306"" style=""position: fixed;left:64%;top:30%"">","null","","","","","","","","","","","","","","","","","","","","","","","","","","","","","","","","","","",""
"","","","","","html-keyboard-response","43","146756","0.0-6.0-2.8","A2M183CETUMR96","2022-05-26T23:55:49.603Z","rhyme-phon_sim-task_switching-same_different","","1482.3999999985099","rhyme","<div style=""border: 3px solid #000000; position: fixed;left:14%;top:30%""><img src=""visual/train.png"" width=""300""></div><div style=""border: 3px solid #000000; position: fixed;left:64%;top:30%""><img src=""visual/screw.png"" width=""300""></div>","arrowdown","","true","experiment","visual/train.png","visual/screw.png","ArrowDown","NR","","","","","","","","","","","","","","","","","","","","","","","","","","","",""
"","","","","","html-keyboard-response","44","147507","0.0-6.0-0.9","A2M183CETUMR96","2022-05-26T23:55:49.603Z","rhyme-phon_sim-task_switching-same_different","","null","rhyme","<div style=""font-size:60px;"">+</div>","null","750","","","","","","","","","","","","","","","","","","","","","","","","","","","","","","","","","",""
"","","","","","html-keyboard-response","45","148007","0.0-6.0-1.9","A2M183CETUMR96","2022-05-26T23:55:49.603Z","rhyme-phon_sim-task_switching-same_different","","null","rhyme","<img src=""square.png"" width=""306"" height=""306"" style=""position: fixed;left:14%;top:30%""><img src=""square.png"" width=""306"" height=""306"" style=""position: fixed;left:64%;top:30%"">","null","","","","","","","","","","","","","","","","","","","","","","","","","","","","","","","","","","",""
"","","","","","html-keyboard-response","46","150592","0.0-6.0-2.9","A2M183CETUMR96","2022-05-26T23:55:49.603Z","rhyme-phon_sim-task_switching-same_different","","2584.1999999955297","rhyme","<div style=""border: 3px solid #000000; position: fixed;left:14%;top:30%""><img src=""visual/king.png"" width=""300""></div><div style=""border: 3px solid #000000; position: fixed;left:64%;top:30%""><img src=""visual/cab.png"" width=""300""></div>","arrowdown","","true","experiment","visual/king.png","visual/cab.png","ArrowDown","NR","","","","","","","","","","","","","","","","","","","","","","","","","","","",""
"","","","","","html-keyboard-response","47","151342","0.0-6.0-0.10","A2M183CETUMR96","2022-05-26T23:55:49.603Z","rhyme-phon_sim-task_switching-same_different","","null","rhyme","<div style=""font-size:60px;"">+</div>","null","750","","","","","","","","","","","","","","","","","","","","","","","","","","","","","","","","","",""
"","","","","","html-keyboard-response","48","151843","0.0-6.0-1.10","A2M183CETUMR96","2022-05-26T23:55:49.603Z","rhyme-phon_sim-task_switching-same_different","","null","rhyme","<img src=""square.png"" width=""306"" height=""306"" style=""position: fixed;left:14%;top:30%""><img src=""square.png"" width=""306"" height=""306"" style=""position: fixed;left:64%;top:30%"">","null","","","","","","","","","","","","","","","","","","","","","","","","","","","","","","","","","","",""
"","","","","","html-keyboard-response","49","153154","0.0-6.0-2.10","A2M183CETUMR96","2022-05-26T23:55:49.603Z","rhyme-phon_sim-task_switching-same_different","","1310","rhyme","<div style=""border: 3px solid #000000; position: fixed;left:14%;top:30%""><img src=""visual/bone.png"" width=""300""></div><div style=""border: 3px solid #000000; position: fixed;left:64%;top:30%""><img src=""visual/cone.png"" width=""300""></div>","arrowup","","true","experiment","visual/bone.png","visual/cone.png","ArrowUp","ortho","","","","","","","","","","","","","","","","","","","","","","","","","","","",""
"","","","","","html-keyboard-response","50","153654","0.0-6.0-0.11","A2M183CETUMR96","2022-05-26T23:55:49.603Z","rhyme-phon_sim-task_switching-same_different","","null","rhyme","<div style=""font-size:60px;"">+</div>","null","500","","","","","","","","","","","","","","","","","","","","","","","","","","","","","","","","","",""
"","","","","","html-keyboard-response","51","154154","0.0-6.0-1.11","A2M183CETUMR96","2022-05-26T23:55:49.603Z","rhyme-phon_sim-task_switching-same_different","","null","rhyme","<img src=""square.png"" width=""306"" height=""306"" style=""position: fixed;left:14%;top:30%""><img src=""square.png"" width=""306"" height=""306"" style=""position: fixed;left:64%;top:30%"">","null","","","","","","","","","","","","","","","","","","","","","","","","","","","","","","","","","","",""
"","","","","","html-keyboard-response","52","157156","0.0-6.0-2.11","A2M183CETUMR96","2022-05-26T23:55:49.603Z","rhyme-phon_sim-task_switching-same_different","","3000.8000000044703","rhyme","<div style=""border: 3px solid #000000; position: fixed;left:14%;top:30%""><img src=""visual/train.png"" width=""300""></div><div style=""border: 3px solid #000000; position: fixed;left:64%;top:30%""><img src=""visual/crane.png"" width=""300""></div>","arrowdown","","false","experiment","visual/train.png","visual/crane.png","ArrowUp","non-ortho","","","","","","","","","","","","","","","","","","","","","","","","","","","",""
"","","","","","html-keyboard-response","53","157906","0.0-6.0-0.12","A2M183CETUMR96","2022-05-26T23:55:49.603Z","rhyme-phon_sim-task_switching-same_different","","null","rhyme","<div style=""font-size:60px;"">+</div>","null","750","","","","","","","","","","","","","","","","","","","","","","","","","","","","","","","","","",""
"","","","","","html-keyboard-response","54","158407","0.0-6.0-1.12","A2M183CETUMR96","2022-05-26T23:55:49.603Z","rhyme-phon_sim-task_switching-same_different","","null","rhyme","<img src=""square.png"" width=""306"" height=""306"" style=""position: fixed;left:14%;top:30%""><img src=""square.png"" width=""306"" height=""306"" style=""position: fixed;left:64%;top:30%"">","null","","","","","","","","","","","","","","","","","","","","","","","","","","","","","","","","","","",""
"","","","","","html-keyboard-response","55","159289","0.0-6.0-2.12","A2M183CETUMR96","2022-05-26T23:55:49.603Z","rhyme-phon_sim-task_switching-same_different","","881.3000000044703","rhyme","<div style=""border: 3px solid #000000; position: fixed;left:14%;top:30%""><img src=""visual/cat.png"" width=""300""></div><div style=""border: 3px solid #000000; position: fixed;left:64%;top:30%""><img src=""visual/hat.png"" width=""300""></div>","arrowup","","true","experiment","visual/cat.png","visual/hat.png","ArrowUp","ortho","","","","","","","","","","","","","","","","","","","","","","","","","","","",""
"","","","","","html-keyboard-response","56","159789","0.0-6.0-0.13","A2M183CETUMR96","2022-05-26T23:55:49.603Z","rhyme-phon_sim-task_switching-same_different","","null","rhyme","<div style=""font-size:60px;"">+</div>","null","500","","","","","","","","","","","","","","","","","","","","","","","","","","","","","","","","","",""
"","","","","","html-keyboard-response","57","160289","0.0-6.0-1.13","A2M183CETUMR96","2022-05-26T23:55:49.603Z","rhyme-phon_sim-task_switching-same_different","","null","rhyme","<img src=""square.png"" width=""306"" height=""306"" style=""position: fixed;left:14%;top:30%""><img src=""square.png"" width=""306"" height=""306"" style=""position: fixed;left:64%;top:30%"">","null","","","","","","","","","","","","","","","","","","","","","","","","","","","","","","","","","","",""
"","","","","","html-keyboard-response","58","161343","0.0-6.0-2.13","A2M183CETUMR96","2022-05-26T23:55:49.603Z","rhyme-phon_sim-task_switching-same_different","","1053.2000000029802","rhyme","<div style=""border: 3px solid #000000; position: fixed;left:14%;top:30%""><img src=""visual/shark.png"" width=""300""></div><div style=""border: 3px solid #000000; position: fixed;left:64%;top:30%""><img src=""visual/moon.png"" width=""300""></div>","arrowdown","","true","experiment","visual/shark.png","visual/moon.png","ArrowDown","NR","","","","","","","","","","","","","","","","","","","","","","","","","","","",""
"","","","","","html-keyboard-response","59","161843","0.0-6.0-0.14","A2M183CETUMR96","2022-05-26T23:55:49.603Z","rhyme-phon_sim-task_switching-same_different","","null","rhyme","<div style=""font-size:60px;"">+</div>","null","500","","","","","","","","","","","","","","","","","","","","","","","","","","","","","","","","","",""
"","","","","","html-keyboard-response","60","162344","0.0-6.0-1.14","A2M183CETUMR96","2022-05-26T23:55:49.603Z","rhyme-phon_sim-task_switching-same_different","","null","rhyme","<img src=""square.png"" width=""306"" height=""306"" style=""position: fixed;left:14%;top:30%""><img src=""square.png"" width=""306"" height=""306"" style=""position: fixed;left:64%;top:30%"">","null","","","","","","","","","","","","","","","","","","","","","","","","","","","","","","","","","","",""
"","","","","","html-keyboard-response","61","164398","0.0-6.0-2.14","A2M183CETUMR96","2022-05-26T23:55:49.603Z","rhyme-phon_sim-task_switching-same_different","","2053.5","rhyme","<div style=""border: 3px solid #000000; position: fixed;left:14%;top:30%""><img src=""visual/drawer.png"" width=""300""></div><div style=""border: 3px solid #000000; position: fixed;left:64%;top:30%""><img src=""visual/chair.png"" width=""300""></div>","arrowdown","","true","experiment","visual/drawer.png","visual/chair.png","ArrowDown","NR","","","","","","","","","","","","","","","","","","","","","","","","","","","",""
"","","","","","html-keyboard-response","62","164898","0.0-6.0-0.15","A2M183CETUMR96","2022-05-26T23:55:49.603Z","rhyme-phon_sim-task_switching-same_different","","null","rhyme","<div style=""font-size:60px;"">+</div>","null","500","","","","","","","","","","","","","","","","","","","","","","","","","","","","","","","","","",""
"","","","","","html-keyboard-response","63","165399","0.0-6.0-1.15","A2M183CETUMR96","2022-05-26T23:55:49.603Z","rhyme-phon_sim-task_switching-same_different","","null","rhyme","<img src=""square.png"" width=""306"" height=""306"" style=""position: fixed;left:14%;top:30%""><img src=""square.png"" width=""306"" height=""306"" style=""position: fixed;left:64%;top:30%"">","null","","","","","","","","","","","","","","","","","","","","","","","","","","","","","","","","","","",""
"","","","","","html-keyboard-response","64","166552","0.0-6.0-2.15","A2M183CETUMR96","2022-05-26T23:55:49.603Z","rhyme-phon_sim-task_switching-same_different","","1152.2000000029802","rhyme","<div style=""border: 3px solid #000000; position: fixed;left:14%;top:30%""><img src=""visual/plane.png"" width=""300""></div><div style=""border: 3px solid #000000; position: fixed;left:64%;top:30%""><img src=""visual/chain.png"" width=""300""></div>","arrowup","","true","experiment","visual/plane.png","visual/chain.png","ArrowUp","non-ortho","","","","","","","","","","","","","","","","","","","","","","","","","","","",""
"","","","","","html-keyboard-response","65","167302","0.0-6.0-0.16","A2M183CETUMR96","2022-05-26T23:55:49.603Z","rhyme-phon_sim-task_switching-same_different","","null","rhyme","<div style=""font-size:60px;"">+</div>","null","750","","","","","","","","","","","","","","","","","","","","","","","","","","","","","","","","","",""
"","","","","","html-keyboard-response","66","167803","0.0-6.0-1.16","A2M183CETUMR96","2022-05-26T23:55:49.603Z","rhyme-phon_sim-task_switching-same_different","","null","rhyme","<img src=""square.png"" width=""306"" height=""306"" style=""position: fixed;left:14%;top:30%""><img src=""square.png"" width=""306"" height=""306"" style=""position: fixed;left:64%;top:30%"">","null","","","","","","","","","","","","","","","","","","","","","","","","","","","","","","","","","","",""
"","","","","","html-keyboard-response","67","168806","0.0-6.0-2.16","A2M183CETUMR96","2022-05-26T23:55:49.603Z","rhyme-phon_sim-task_switching-same_different","","1002.6999999955297","rhyme","<div style=""border: 3px solid #000000; position: fixed;left:14%;top:30%""><img src=""visual/spoon.png"" width=""300""></div><div style=""border: 3px solid #000000; position: fixed;left:64%;top:30%""><img src=""visual/crab.png"" width=""300""></div>","arrowdown","","true","experiment","visual/spoon.png","visual/crab.png","ArrowDown","NR","","","","","","","","","","","","","","","","","","","","","","","","","","","",""
"","","","","","html-keyboard-response","68","169556","0.0-6.0-0.17","A2M183CETUMR96","2022-05-26T23:55:49.603Z","rhyme-phon_sim-task_switching-same_different","","null","rhyme","<div style=""font-size:60px;"">+</div>","null","750","","","","","","","","","","","","","","","","","","","","","","","","","","","","","","","","","",""
"","","","","","html-keyboard-response","69","170057","0.0-6.0-1.17","A2M183CETUMR96","2022-05-26T23:55:49.603Z","rhyme-phon_sim-task_switching-same_different","","null","rhyme","<img src=""square.png"" width=""306"" height=""306"" style=""position: fixed;left:14%;top:30%""><img src=""square.png"" width=""306"" height=""306"" style=""position: fixed;left:64%;top:30%"">","null","","","","","","","","","","","","","","","","","","","","","","","","","","","","","","","","","","",""
"","","","","","html-keyboard-response","70","171001","0.0-6.0-2.17","A2M183CETUMR96","2022-05-26T23:55:49.603Z","rhyme-phon_sim-task_switching-same_different","","943.7999999970198","rhyme","<div style=""border: 3px solid #000000; position: fixed;left:14%;top:30%""><img src=""visual/spoon.png"" width=""300""></div><div style=""border: 3px solid #000000; position: fixed;left:64%;top:30%""><img src=""visual/moon.png"" width=""300""></div>","arrowup","","true","experiment","visual/spoon.png","visual/moon.png","ArrowUp","ortho","","","","","","","","","","","","","","","","","","","","","","","","","","","",""
"","","","","","html-keyboard-response","71","171751","0.0-6.0-0.18","A2M183CETUMR96","2022-05-26T23:55:49.603Z","rhyme-phon_sim-task_switching-same_different","","null","rhyme","<div style=""font-size:60px;"">+</div>","null","750","","","","","","","","","","","","","","","","","","","","","","","","","","","","","","","","","",""
"","","","","","html-keyboard-response","72","172252","0.0-6.0-1.18","A2M183CETUMR96","2022-05-26T23:55:49.603Z","rhyme-phon_sim-task_switching-same_different","","null","rhyme","<img src=""square.png"" width=""306"" height=""306"" style=""position: fixed;left:14%;top:30%""><img src=""square.png"" width=""306"" height=""306"" style=""position: fixed;left:64%;top:30%"">","null","","","","","","","","","","","","","","","","","","","","","","","","","","","","","","","","","","",""
"","","","","","html-keyboard-response","73","173902","0.0-6.0-2.18","A2M183CETUMR96","2022-05-26T23:55:49.603Z","rhyme-phon_sim-task_switching-same_different","","1650.1000000014901","rhyme","<div style=""border: 3px solid #000000; position: fixed;left:14%;top:30%""><img src=""visual/fly.png"" width=""300""></div><div style=""border: 3px solid #000000; position: fixed;left:64%;top:30%""><img src=""visual/plane.png"" width=""300""></div>","arrowdown","","true","experiment","visual/fly.png","visual/plane.png","ArrowDown","NR","","","","","","","","","","","","","","","","","","","","","","","","","","","",""
"","","","","","html-keyboard-response","74","174153","0.0-6.0-0.19","A2M183CETUMR96","2022-05-26T23:55:49.603Z","rhyme-phon_sim-task_switching-same_different","","null","rhyme","<div style=""font-size:60px;"">+</div>","null","250","","","","","","","","","","","","","","","","","","","","","","","","","","","","","","","","","",""
"","","","","","html-keyboard-response","75","174653","0.0-6.0-1.19","A2M183CETUMR96","2022-05-26T23:55:49.603Z","rhyme-phon_sim-task_switching-same_different","","null","rhyme","<img src=""square.png"" width=""306"" height=""306"" style=""position: fixed;left:14%;top:30%""><img src=""square.png"" width=""306"" height=""306"" style=""position: fixed;left:64%;top:30%"">","null","","","","","","","","","","","","","","","","","","","","","","","","","","","","","","","","","","",""
"","","","","","html-keyboard-response","76","176018","0.0-6.0-2.19","A2M183CETUMR96","2022-05-26T23:55:49.603Z","rhyme-phon_sim-task_switching-same_different","","1364.2999999970198","rhyme","<div style=""border: 3px solid #000000; position: fixed;left:14%;top:30%""><img src=""visual/key.png"" width=""300""></div><div style=""border: 3px solid #000000; position: fixed;left:64%;top:30%""><img src=""visual/snail.png"" width=""300""></div>","arrowdown","","true","experiment","visual/key.png","visual/snail.png","ArrowDown","NR","","","","","","","","","","","","","","","","","","","","","","","","","","","",""
"","","","","","html-keyboard-response","77","177018","0.0-6.0-0.20","A2M183CETUMR96","2022-05-26T23:55:49.603Z","rhyme-phon_sim-task_switching-same_different","","null","rhyme","<div style=""font-size:60px;"">+</div>","null","1000","","","","","","","","","","","","","","","","","","","","","","","","","","","","","","","","","",""
"","","","","","html-keyboard-response","78","177519","0.0-6.0-1.20","A2M183CETUMR96","2022-05-26T23:55:49.603Z","rhyme-phon_sim-task_switching-same_different","","null","rhyme","<img src=""square.png"" width=""306"" height=""306"" style=""position: fixed;left:14%;top:30%""><img src=""square.png"" width=""306"" height=""306"" style=""position: fixed;left:64%;top:30%"">","null","","","","","","","","","","","","","","","","","","","","","","","","","","","","","","","","","","",""
"","","","","","html-keyboard-response","79","178625","0.0-6.0-2.20","A2M183CETUMR96","2022-05-26T23:55:49.603Z","rhyme-phon_sim-task_switching-same_different","","1105.8999999985099","rhyme","<div style=""border: 3px solid #000000; position: fixed;left:14%;top:30%""><img src=""visual/sock.png"" width=""300""></div><div style=""border: 3px solid #000000; position: fixed;left:64%;top:30%""><img src=""visual/clock.png"" width=""300""></div>","arrowup","","true","experiment","visual/sock.png","visual/clock.png","ArrowUp","ortho","","","","","","","","","","","","","","","","","","","","","","","","","","","",""
"","","","","","html-keyboard-response","80","179375","0.0-6.0-0.21","A2M183CETUMR96","2022-05-26T23:55:49.603Z","rhyme-phon_sim-task_switching-same_different","","null","rhyme","<div style=""font-size:60px;"">+</div>","null","750","","","","","","","","","","","","","","","","","","","","","","","","","","","","","","","","","",""
"","","","","","html-keyboard-response","81","179876","0.0-6.0-1.21","A2M183CETUMR96","2022-05-26T23:55:49.603Z","rhyme-phon_sim-task_switching-same_different","","null","rhyme","<img src=""square.png"" width=""306"" height=""306"" style=""position: fixed;left:14%;top:30%""><img src=""square.png"" width=""306"" height=""306"" style=""position: fixed;left:64%;top:30%"">","null","","","","","","","","","","","","","","","","","","","","","","","","","","","","","","","","","","",""
"","","","","","html-keyboard-response","82","181005","0.0-6.0-2.21","A2M183CETUMR96","2022-05-26T23:55:49.603Z","rhyme-phon_sim-task_switching-same_different","","1128.7999999970198","rhyme","<div style=""border: 3px solid #000000; position: fixed;left:14%;top:30%""><img src=""visual/bear.png"" width=""300""></div><div style=""border: 3px solid #000000; position: fixed;left:64%;top:30%""><img src=""visual/hair.png"" width=""300""></div>","arrowup","","true","experiment","visual/bear.png","visual/hair.png","ArrowUp","non-ortho","","","","","","","","","","","","","","","","","","","","","","","","","","","",""
"","","","","","html-keyboard-response","83","182005","0.0-6.0-0.22","A2M183CETUMR96","2022-05-26T23:55:49.603Z","rhyme-phon_sim-task_switching-same_different","","null","rhyme","<div style=""font-size:60px;"">+</div>","null","1000","","","","","","","","","","","","","","","","","","","","","","","","","","","","","","","","","",""
"","","","","","html-keyboard-response","84","182506","0.0-6.0-1.22","A2M183CETUMR96","2022-05-26T23:55:49.603Z","rhyme-phon_sim-task_switching-same_different","","null","rhyme","<img src=""square.png"" width=""306"" height=""306"" style=""position: fixed;left:14%;top:30%""><img src=""square.png"" width=""306"" height=""306"" style=""position: fixed;left:64%;top:30%"">","null","","","","","","","","","","","","","","","","","","","","","","","","","","","","","","","","","","",""
"","","","","","html-keyboard-response","85","183456","0.0-6.0-2.22","A2M183CETUMR96","2022-05-26T23:55:49.603Z","rhyme-phon_sim-task_switching-same_different","","949.6000000014901","rhyme","<div style=""border: 3px solid #000000; position: fixed;left:14%;top:30%""><img src=""visual/bear.png"" width=""300""></div><div style=""border: 3px solid #000000; position: fixed;left:64%;top:30%""><img src=""visual/crane.png"" width=""300""></div>","arrowdown","","true","experiment","visual/bear.png","visual/crane.png","ArrowDown","NR","","","","","","","","","","","","","","","","","","","","","","","","","","","",""
"","","","","","html-keyboard-response","86","183956","0.0-6.0-0.23","A2M183CETUMR96","2022-05-26T23:55:49.603Z","rhyme-phon_sim-task_switching-same_different","","null","rhyme","<div style=""font-size:60px;"">+</div>","null","500","","","","","","","","","","","","","","","","","","","","","","","","","","","","","","","","","",""
"","","","","","html-keyboard-response","87","184457","0.0-6.0-1.23","A2M183CETUMR96","2022-05-26T23:55:49.603Z","rhyme-phon_sim-task_switching-same_different","","null","rhyme","<img src=""square.png"" width=""306"" height=""306"" style=""position: fixed;left:14%;top:30%""><img src=""square.png"" width=""306"" height=""306"" style=""position: fixed;left:64%;top:30%"">","null","","","","","","","","","","","","","","","","","","","","","","","","","","","","","","","","","","",""
"","","","","","html-keyboard-response","88","186362","0.0-6.0-2.23","A2M183CETUMR96","2022-05-26T23:55:49.603Z","rhyme-phon_sim-task_switching-same_different","","1905.1999999955297","rhyme","<div style=""border: 3px solid #000000; position: fixed;left:14%;top:30%""><img src=""visual/soap.png"" width=""300""></div><div style=""border: 3px solid #000000; position: fixed;left:64%;top:30%""><img src=""visual/shoe.png"" width=""300""></div>","arrowdown","","true","experiment","visual/soap.png","visual/shoe.png","ArrowDown","NR","","","","","","","","","","","","","","","","","","","","","","","","","","","",""
"","","","","","html-keyboard-response","89","186613","0.0-6.0-0.24","A2M183CETUMR96","2022-05-26T23:55:49.603Z","rhyme-phon_sim-task_switching-same_different","","null","rhyme","<div style=""font-size:60px;"">+</div>","null","250","","","","","","","","","","","","","","","","","","","","","","","","","","","","","","","","","",""
"","","","","","html-keyboard-response","90","187113","0.0-6.0-1.24","A2M183CETUMR96","2022-05-26T23:55:49.603Z","rhyme-phon_sim-task_switching-same_different","","null","rhyme","<img src=""square.png"" width=""306"" height=""306"" style=""position: fixed;left:14%;top:30%""><img src=""square.png"" width=""306"" height=""306"" style=""position: fixed;left:64%;top:30%"">","null","","","","","","","","","","","","","","","","","","","","","","","","","","","","","","","","","","",""
"","","","","","html-keyboard-response","91","188413","0.0-6.0-2.24","A2M183CETUMR96","2022-05-26T23:55:49.603Z","rhyme-phon_sim-task_switching-same_different","","1299.5","rhyme","<div style=""border: 3px solid #000000; position: fixed;left:14%;top:30%""><img src=""visual/eye.png"" width=""300""></div><div style=""border: 3px solid #000000; position: fixed;left:64%;top:30%""><img src=""visual/tie.png"" width=""300""></div>","arrowup","","true","experiment","visual/eye.png","visual/tie.png","ArrowUp","non-ortho","","","","","","","","","","","","","","","","","","","","","","","","","","","",""
"","","","","","html-keyboard-response","92","188663","0.0-6.0-0.25","A2M183CETUMR96","2022-05-26T23:55:49.603Z","rhyme-phon_sim-task_switching-same_different","","null","rhyme","<div style=""font-size:60px;"">+</div>","null","250","","","","","","","","","","","","","","","","","","","","","","","","","","","","","","","","","",""
"","","","","","html-keyboard-response","93","189164","0.0-6.0-1.25","A2M183CETUMR96","2022-05-26T23:55:49.603Z","rhyme-phon_sim-task_switching-same_different","","null","rhyme","<img src=""square.png"" width=""306"" height=""306"" style=""position: fixed;left:14%;top:30%""><img src=""square.png"" width=""306"" height=""306"" style=""position: fixed;left:64%;top:30%"">","null","","","","","","","","","","","","","","","","","","","","","","","","","","","","","","","","","","",""
"","","","","","html-keyboard-response","94","190277","0.0-6.0-2.25","A2M183CETUMR96","2022-05-26T23:55:49.603Z","rhyme-phon_sim-task_switching-same_different","","1112.8000000044703","rhyme","<div style=""border: 3px solid #000000; position: fixed;left:14%;top:30%""><img src=""visual/brain.png"" width=""300""></div><div style=""border: 3px solid #000000; position: fixed;left:64%;top:30%""><img src=""visual/clock.png"" width=""300""></div>","arrowdown","","true","experiment","visual/brain.png","visual/clock.png","ArrowDown","NR","","","","","","","","","","","","","","","","","","","","","","","","","","","",""
"","","","","","html-keyboard-response","95","191277","0.0-6.0-0.26","A2M183CETUMR96","2022-05-26T23:55:49.603Z","rhyme-phon_sim-task_switching-same_different","","null","rhyme","<div style=""font-size:60px;"">+</div>","null","1000","","","","","","","","","","","","","","","","","","","","","","","","","","","","","","","","","",""
"","","","","","html-keyboard-response","96","191778","0.0-6.0-1.26","A2M183CETUMR96","2022-05-26T23:55:49.603Z","rhyme-phon_sim-task_switching-same_different","","null","rhyme","<img src=""square.png"" width=""306"" height=""306"" style=""position: fixed;left:14%;top:30%""><img src=""square.png"" width=""306"" height=""306"" style=""position: fixed;left:64%;top:30%"">","null","","","","","","","","","","","","","","","","","","","","","","","","","","","","","","","","","","",""
"","","","","","html-keyboard-response","97","192903","0.0-6.0-2.26","A2M183CETUMR96","2022-05-26T23:55:49.603Z","rhyme-phon_sim-task_switching-same_different","","1124.9000000059605","rhyme","<div style=""border: 3px solid #000000; position: fixed;left:14%;top:30%""><img src=""visual/egg.png"" width=""300""></div><div style=""border: 3px solid #000000; position: fixed;left:64%;top:30%""><img src=""visual/ring.png"" width=""300""></div>","arrowdown","","true","experiment","visual/egg.png","visual/ring.png","ArrowDown","NR","","","","","","","","","","","","","","","","","","","","","","","","","","","",""
"","","","","","html-keyboard-response","98","193404","0.0-6.0-0.27","A2M183CETUMR96","2022-05-26T23:55:49.603Z","rhyme-phon_sim-task_switching-same_different","","null","rhyme","<div style=""font-size:60px;"">+</div>","null","500","","","","","","","","","","","","","","","","","","","","","","","","","","","","","","","","","",""
"","","","","","html-keyboard-response","99","193904","0.0-6.0-1.27","A2M183CETUMR96","2022-05-26T23:55:49.603Z","rhyme-phon_sim-task_switching-same_different","","null","rhyme","<img src=""square.png"" width=""306"" height=""306"" style=""position: fixed;left:14%;top:30%""><img src=""square.png"" width=""306"" height=""306"" style=""position: fixed;left:64%;top:30%"">","null","","","","","","","","","","","","","","","","","","","","","","","","","","","","","","","","","","",""
"","","","","","html-keyboard-response","100","195020","0.0-6.0-2.27","A2M183CETUMR96","2022-05-26T23:55:49.603Z","rhyme-phon_sim-task_switching-same_different","","1115.7000000029802","rhyme","<div style=""border: 3px solid #000000; position: fixed;left:14%;top:30%""><img src=""visual/chair.png"" width=""300""></div><div style=""border: 3px solid #000000; position: fixed;left:64%;top:30%""><img src=""visual/pear.png"" width=""300""></div>","arrowup","","true","experiment","visual/chair.png","visual/pear.png","ArrowUp","non-ortho","","","","","","","","","","","","","","","","","","","","","","","","","","","",""
"","","","","","html-keyboard-response","101","195770","0.0-6.0-0.28","A2M183CETUMR96","2022-05-26T23:55:49.603Z","rhyme-phon_sim-task_switching-same_different","","null","rhyme","<div style=""font-size:60px;"">+</div>","null","750","","","","","","","","","","","","","","","","","","","","","","","","","","","","","","","","","",""
"","","","","","html-keyboard-response","102","196271","0.0-6.0-1.28","A2M183CETUMR96","2022-05-26T23:55:49.603Z","rhyme-phon_sim-task_switching-same_different","","null","rhyme","<img src=""square.png"" width=""306"" height=""306"" style=""position: fixed;left:14%;top:30%""><img src=""square.png"" width=""306"" height=""306"" style=""position: fixed;left:64%;top:30%"">","null","","","","","","","","","","","","","","","","","","","","","","","","","","","","","","","","","","",""
"","","","","","html-keyboard-response","103","198856","0.0-6.0-2.28","A2M183CETUMR96","2022-05-26T23:55:49.603Z","rhyme-phon_sim-task_switching-same_different","","2584.3000000044703","rhyme","<div style=""border: 3px solid #000000; position: fixed;left:14%;top:30%""><img src=""visual/shark.png"" width=""300""></div><div style=""border: 3px solid #000000; position: fixed;left:64%;top:30%""><img src=""visual/park.png"" width=""300""></div>","arrowdown","","false","experiment","visual/shark.png","visual/park.png","ArrowUp","ortho","","","","","","","","","","","","","","","","","","","","","","","","","","","",""
"","","","","","html-keyboard-response","104","199856","0.0-6.0-0.29","A2M183CETUMR96","2022-05-26T23:55:49.603Z","rhyme-phon_sim-task_switching-same_different","","null","rhyme","<div style=""font-size:60px;"">+</div>","null","1000","","","","","","","","","","","","","","","","","","","","","","","","","","","","","","","","","",""
"","","","","","html-keyboard-response","105","200357","0.0-6.0-1.29","A2M183CETUMR96","2022-05-26T23:55:49.603Z","rhyme-phon_sim-task_switching-same_different","","null","rhyme","<img src=""square.png"" width=""306"" height=""306"" style=""position: fixed;left:14%;top:30%""><img src=""square.png"" width=""306"" height=""306"" style=""position: fixed;left:64%;top:30%"">","null","","","","","","","","","","","","","","","","","","","","","","","","","","","","","","","","","","",""
"","","","","","html-keyboard-response","106","202446","0.0-6.0-2.29","A2M183CETUMR96","2022-05-26T23:55:49.603Z","rhyme-phon_sim-task_switching-same_different","","2089.10000000149","rhyme","<div style=""border: 3px solid #000000; position: fixed;left:14%;top:30%""><img src=""visual/drawer.png"" width=""300""></div><div style=""border: 3px solid #000000; position: fixed;left:64%;top:30%""><img src=""visual/door.png"" width=""300""></div>","arrowup","","true","experiment","visual/drawer.png","visual/door.png","ArrowUp","non-ortho","","","","","","","","","","","","","","","","","","","","","","","","","","","",""
"","","","","","html-keyboard-response","107","203197","0.0-6.0-0.30","A2M183CETUMR96","2022-05-26T23:55:49.603Z","rhyme-phon_sim-task_switching-same_different","","null","rhyme","<div style=""font-size:60px;"">+</div>","null","750","","","","","","","","","","","","","","","","","","","","","","","","","","","","","","","","","",""
"","","","","","html-keyboard-response","108","203697","0.0-6.0-1.30","A2M183CETUMR96","2022-05-26T23:55:49.603Z","rhyme-phon_sim-task_switching-same_different","","null","rhyme","<img src=""square.png"" width=""306"" height=""306"" style=""position: fixed;left:14%;top:30%""><img src=""square.png"" width=""306"" height=""306"" style=""position: fixed;left:64%;top:30%"">","null","","","","","","","","","","","","","","","","","","","","","","","","","","","","","","","","","","",""
"","","","","","html-keyboard-response","109","205254","0.0-6.0-2.30","A2M183CETUMR96","2022-05-26T23:55:49.603Z","rhyme-phon_sim-task_switching-same_different","","1556.3999999985099","rhyme","<div style=""border: 3px solid #000000; position: fixed;left:14%;top:30%""><img src=""visual/cat.png"" width=""300""></div><div style=""border: 3px solid #000000; position: fixed;left:64%;top:30%""><img src=""visual/sock.png"" width=""300""></div>","arrowdown","","true","experiment","visual/cat.png","visual/sock.png","ArrowDown","NR","","","","","","","","","","","","","","","","","","","","","","","","","","","",""
"","","","","","html-keyboard-response","110","205505","0.0-6.0-0.31","A2M183CETUMR96","2022-05-26T23:55:49.603Z","rhyme-phon_sim-task_switching-same_different","","null","rhyme","<div style=""font-size:60px;"">+</div>","null","250","","","","","","","","","","","","","","","","","","","","","","","","","","","","","","","","","",""
"","","","","","html-keyboard-response","111","206005","0.0-6.0-1.31","A2M183CETUMR96","2022-05-26T23:55:49.603Z","rhyme-phon_sim-task_switching-same_different","","null","rhyme","<img src=""square.png"" width=""306"" height=""306"" style=""position: fixed;left:14%;top:30%""><img src=""square.png"" width=""306"" height=""306"" style=""position: fixed;left:64%;top:30%"">","null","","","","","","","","","","","","","","","","","","","","","","","","","","","","","","","","","","",""
"","","","","","html-keyboard-response","112","207504","0.0-6.0-2.31","A2M183CETUMR96","2022-05-26T23:55:49.603Z","rhyme-phon_sim-task_switching-same_different","","1497.8999999985099","rhyme","<div style=""border: 3px solid #000000; position: fixed;left:14%;top:30%""><img src=""visual/well.png"" width=""300""></div><div style=""border: 3px solid #000000; position: fixed;left:64%;top:30%""><img src=""visual/bell.png"" width=""300""></div>","arrowup","","true","experiment","visual/well.png","visual/bell.png","ArrowUp","ortho","","","","","","","","","","","","","","","","","","","","","","","","","","","",""
"","","","","","html-keyboard-response","113","207754","0.0-6.0-0.32","A2M183CETUMR96","2022-05-26T23:55:49.603Z","rhyme-phon_sim-task_switching-same_different","","null","rhyme","<div style=""font-size:60px;"">+</div>","null","250","","","","","","","","","","","","","","","","","","","","","","","","","","","","","","","","","",""
"","","","","","html-keyboard-response","114","208254","0.0-6.0-1.32","A2M183CETUMR96","2022-05-26T23:55:49.603Z","rhyme-phon_sim-task_switching-same_different","","null","rhyme","<img src=""square.png"" width=""306"" height=""306"" style=""position: fixed;left:14%;top:30%""><img src=""square.png"" width=""306"" height=""306"" style=""position: fixed;left:64%;top:30%"">","null","","","","","","","","","","","","","","","","","","","","","","","","","","","","","","","","","","",""
"","","","","","html-keyboard-response","115","212755","0.0-6.0-2.32","A2M183CETUMR96","2022-05-26T23:55:49.603Z","rhyme-phon_sim-task_switching-same_different","","4499.9000000059605","rhyme","<div style=""border: 3px solid #000000; position: fixed;left:14%;top:30%""><img src=""visual/pope.png"" width=""300""></div><div style=""border: 3px solid #000000; position: fixed;left:64%;top:30%""><img src=""visual/soap.png"" width=""300""></div>","arrowdown","","false","experiment","visual/pope.png","visual/soap.png","ArrowUp","non-ortho","","","","","","","","","","","","","","","","","","","","","","","","","","","",""
"","","","","","html-keyboard-response","116","213755","0.0-6.0-0.33","A2M183CETUMR96","2022-05-26T23:55:49.603Z","rhyme-phon_sim-task_switching-same_different","","null","rhyme","<div style=""font-size:60px;"">+</div>","null","1000","","","","","","","","","","","","","","","","","","","","","","","","","","","","","","","","","",""
"","","","","","html-keyboard-response","117","214256","0.0-6.0-1.33","A2M183CETUMR96","2022-05-26T23:55:49.603Z","rhyme-phon_sim-task_switching-same_different","","null","rhyme","<img src=""square.png"" width=""306"" height=""306"" style=""position: fixed;left:14%;top:30%""><img src=""square.png"" width=""306"" height=""306"" style=""position: fixed;left:64%;top:30%"">","null","","","","","","","","","","","","","","","","","","","","","","","","","","","","","","","","","","",""
"","","","","","html-keyboard-response","118","215368","0.0-6.0-2.33","A2M183CETUMR96","2022-05-26T23:55:49.603Z","rhyme-phon_sim-task_switching-same_different","","1111.1000000014901","rhyme","<div style=""border: 3px solid #000000; position: fixed;left:14%;top:30%""><img src=""visual/dart.png"" width=""300""></div><div style=""border: 3px solid #000000; position: fixed;left:64%;top:30%""><img src=""visual/heart.png"" width=""300""></div>","arrowup","","true","experiment","visual/dart.png","visual/heart.png","ArrowUp","non-ortho","","","","","","","","","","","","","","","","","","","","","","","","","","","",""
"","","","","","html-keyboard-response","119","215868","0.0-6.0-0.34","A2M183CETUMR96","2022-05-26T23:55:49.603Z","rhyme-phon_sim-task_switching-same_different","","null","rhyme","<div style=""font-size:60px;"">+</div>","null","500","","","","","","","","","","","","","","","","","","","","","","","","","","","","","","","","","",""
"","","","","","html-keyboard-response","120","216368","0.0-6.0-1.34","A2M183CETUMR96","2022-05-26T23:55:49.603Z","rhyme-phon_sim-task_switching-same_different","","null","rhyme","<img src=""square.png"" width=""306"" height=""306"" style=""position: fixed;left:14%;top:30%""><img src=""square.png"" width=""306"" height=""306"" style=""position: fixed;left:64%;top:30%"">","null","","","","","","","","","","","","","","","","","","","","","","","","","","","","","","","","","","",""
"","","","","","html-keyboard-response","121","217473","0.0-6.0-2.34","A2M183CETUMR96","2022-05-26T23:55:49.603Z","rhyme-phon_sim-task_switching-same_different","","1103.8000000044703","rhyme","<div style=""border: 3px solid #000000; position: fixed;left:14%;top:30%""><img src=""visual/rose.png"" width=""300""></div><div style=""border: 3px solid #000000; position: fixed;left:64%;top:30%""><img src=""visual/nose.png"" width=""300""></div>","arrowup","","true","experiment","visual/rose.png","visual/nose.png","ArrowUp","ortho","","","","","","","","","","","","","","","","","","","","","","","","","","","",""
"","","","","","html-keyboard-response","122","218473","0.0-6.0-0.35","A2M183CETUMR96","2022-05-26T23:55:49.603Z","rhyme-phon_sim-task_switching-same_different","","null","rhyme","<div style=""font-size:60px;"">+</div>","null","1000","","","","","","","","","","","","","","","","","","","","","","","","","","","","","","","","","",""
"","","","","","html-keyboard-response","123","218973","0.0-6.0-1.35","A2M183CETUMR96","2022-05-26T23:55:49.603Z","rhyme-phon_sim-task_switching-same_different","","null","rhyme","<img src=""square.png"" width=""306"" height=""306"" style=""position: fixed;left:14%;top:30%""><img src=""square.png"" width=""306"" height=""306"" style=""position: fixed;left:64%;top:30%"">","null","","","","","","","","","","","","","","","","","","","","","","","","","","","","","","","","","","",""
"","","","","","html-keyboard-response","124","220282","0.0-6.0-2.35","A2M183CETUMR96","2022-05-26T23:55:49.603Z","rhyme-phon_sim-task_switching-same_different","","1307.3999999985099","rhyme","<div style=""border: 3px solid #000000; position: fixed;left:14%;top:30%""><img src=""visual/bed.png"" width=""300""></div><div style=""border: 3px solid #000000; position: fixed;left:64%;top:30%""><img src=""visual/bread.png"" width=""300""></div>","arrowup","","true","experiment","visual/bed.png","visual/bread.png","ArrowUp","non-ortho","","","","","","","","","","","","","","","","","","","","","","","","","","","",""
"","","","","","html-keyboard-response","125","220782","0.0-6.0-0.36","A2M183CETUMR96","2022-05-26T23:55:49.603Z","rhyme-phon_sim-task_switching-same_different","","null","rhyme","<div style=""font-size:60px;"">+</div>","null","500","","","","","","","","","","","","","","","","","","","","","","","","","","","","","","","","","",""
"","","","","","html-keyboard-response","126","221282","0.0-6.0-1.36","A2M183CETUMR96","2022-05-26T23:55:49.603Z","rhyme-phon_sim-task_switching-same_different","","null","rhyme","<img src=""square.png"" width=""306"" height=""306"" style=""position: fixed;left:14%;top:30%""><img src=""square.png"" width=""306"" height=""306"" style=""position: fixed;left:64%;top:30%"">","null","","","","","","","","","","","","","","","","","","","","","","","","","","","","","","","","","","",""
"","","","","","html-keyboard-response","127","225685","0.0-6.0-2.36","A2M183CETUMR96","2022-05-26T23:55:49.603Z","rhyme-phon_sim-task_switching-same_different","","4401.10000000149","rhyme","<div style=""border: 3px solid #000000; position: fixed;left:14%;top:30%""><img src=""visual/bin.png"" width=""300""></div><div style=""border: 3px solid #000000; position: fixed;left:64%;top:30%""><img src=""visual/chin.png"" width=""300""></div>","arrowdown","","false","experiment","visual/bin.png","visual/chin.png","ArrowUp","ortho","","","","","","","","","","","","","","","","","","","","","","","","","","","",""
"","","","","","html-keyboard-response","128","226186","0.0-6.0-0.37","A2M183CETUMR96","2022-05-26T23:55:49.603Z","rhyme-phon_sim-task_switching-same_different","","null","rhyme","<div style=""font-size:60px;"">+</div>","null","500","","","","","","","","","","","","","","","","","","","","","","","","","","","","","","","","","",""
"","","","","","html-keyboard-response","129","226686","0.0-6.0-1.37","A2M183CETUMR96","2022-05-26T23:55:49.603Z","rhyme-phon_sim-task_switching-same_different","","null","rhyme","<img src=""square.png"" width=""306"" height=""306"" style=""position: fixed;left:14%;top:30%""><img src=""square.png"" width=""306"" height=""306"" style=""position: fixed;left:64%;top:30%"">","null","","","","","","","","","","","","","","","","","","","","","","","","","","","","","","","","","","",""
"","","","","","html-keyboard-response","130","227777","0.0-6.0-2.37","A2M183CETUMR96","2022-05-26T23:55:49.603Z","rhyme-phon_sim-task_switching-same_different","","1090","rhyme","<div style=""border: 3px solid #000000; position: fixed;left:14%;top:30%""><img src=""visual/screw.png"" width=""300""></div><div style=""border: 3px solid #000000; position: fixed;left:64%;top:30%""><img src=""visual/shoe.png"" width=""300""></div>","arrowup","","true","experiment","visual/screw.png","visual/shoe.png","ArrowUp","non-ortho","","","","","","","","","","","","","","","","","","","","","","","","","","","",""
"","","","","","html-keyboard-response","131","228527","0.0-6.0-0.38","A2M183CETUMR96","2022-05-26T23:55:49.603Z","rhyme-phon_sim-task_switching-same_different","","null","rhyme","<div style=""font-size:60px;"">+</div>","null","750","","","","","","","","","","","","","","","","","","","","","","","","","","","","","","","","","",""
"","","","","","html-keyboard-response","132","229027","0.0-6.0-1.38","A2M183CETUMR96","2022-05-26T23:55:49.603Z","rhyme-phon_sim-task_switching-same_different","","null","rhyme","<img src=""square.png"" width=""306"" height=""306"" style=""position: fixed;left:14%;top:30%""><img src=""square.png"" width=""306"" height=""306"" style=""position: fixed;left:64%;top:30%"">","null","","","","","","","","","","","","","","","","","","","","","","","","","","","","","","","","","","",""
"","","","","","html-keyboard-response","133","231844","0.0-6.0-2.38","A2M183CETUMR96","2022-05-26T23:55:49.603Z","rhyme-phon_sim-task_switching-same_different","","2815.89999999851","rhyme","<div style=""border: 3px solid #000000; position: fixed;left:14%;top:30%""><img src=""visual/chain.png"" width=""300""></div><div style=""border: 3px solid #000000; position: fixed;left:64%;top:30%""><img src=""visual/brain.png"" width=""300""></div>","arrowup","","true","experiment","visual/chain.png","visual/brain.png","ArrowUp","ortho","","","","","","","","","","","","","","","","","","","","","","","","","","","",""
"","","","","","html-keyboard-response","134","232594","0.0-6.0-0.39","A2M183CETUMR96","2022-05-26T23:55:49.603Z","rhyme-phon_sim-task_switching-same_different","","null","rhyme","<div style=""font-size:60px;"">+</div>","null","750","","","","","","","","","","","","","","","","","","","","","","","","","","","","","","","","","",""
"","","","","","html-keyboard-response","135","233095","0.0-6.0-1.39","A2M183CETUMR96","2022-05-26T23:55:49.603Z","rhyme-phon_sim-task_switching-same_different","","null","rhyme","<img src=""square.png"" width=""306"" height=""306"" style=""position: fixed;left:14%;top:30%""><img src=""square.png"" width=""306"" height=""306"" style=""position: fixed;left:64%;top:30%"">","null","","","","","","","","","","","","","","","","","","","","","","","","","","","","","","","","","","",""
"","","","","","html-keyboard-response","136","234301","0.0-6.0-2.39","A2M183CETUMR96","2022-05-26T23:55:49.603Z","rhyme-phon_sim-task_switching-same_different","","1205.4000000059605","rhyme","<div style=""border: 3px solid #000000; position: fixed;left:14%;top:30%""><img src=""visual/box.png"" width=""300""></div><div style=""border: 3px solid #000000; position: fixed;left:64%;top:30%""><img src=""visual/fox.png"" width=""300""></div>","arrowup","","true","experiment","visual/box.png","visual/fox.png","ArrowUp","ortho","","","","","","","","","","","","","","","","","","","","","","","","","","","",""
"","","","","","html-keyboard-response","137","234801","0.0-6.0-0.40","A2M183CETUMR96","2022-05-26T23:55:49.603Z","rhyme-phon_sim-task_switching-same_different","","null","rhyme","<div style=""font-size:60px;"">+</div>","null","500","","","","","","","","","","","","","","","","","","","","","","","","","","","","","","","","","",""
"","","","","","html-keyboard-response","138","235302","0.0-6.0-1.40","A2M183CETUMR96","2022-05-26T23:55:49.603Z","rhyme-phon_sim-task_switching-same_different","","null","rhyme","<img src=""square.png"" width=""306"" height=""306"" style=""position: fixed;left:14%;top:30%""><img src=""square.png"" width=""306"" height=""306"" style=""position: fixed;left:64%;top:30%"">","null","","","","","","","","","","","","","","","","","","","","","","","","","","","","","","","","","","",""
"","","","","","html-keyboard-response","139","236886","0.0-6.0-2.40","A2M183CETUMR96","2022-05-26T23:55:49.603Z","rhyme-phon_sim-task_switching-same_different","","1584.1000000014901","rhyme","<div style=""border: 3px solid #000000; position: fixed;left:14%;top:30%""><img src=""visual/key.png"" width=""300""></div><div style=""border: 3px solid #000000; position: fixed;left:64%;top:30%""><img src=""visual/tree.png"" width=""300""></div>","arrowup","","true","experiment","visual/key.png","visual/tree.png","ArrowUp","non-ortho","","","","","","","","","","","","","","","","","","","","","","","","","","","",""
"","","","","","html-keyboard-response","140","237887","0.0-6.0-0.41","A2M183CETUMR96","2022-05-26T23:55:49.603Z","rhyme-phon_sim-task_switching-same_different","","null","rhyme","<div style=""font-size:60px;"">+</div>","null","1000","","","","","","","","","","","","","","","","","","","","","","","","","","","","","","","","","",""
"","","","","","html-keyboard-response","141","238387","0.0-6.0-1.41","A2M183CETUMR96","2022-05-26T23:55:49.603Z","rhyme-phon_sim-task_switching-same_different","","null","rhyme","<img src=""square.png"" width=""306"" height=""306"" style=""position: fixed;left:14%;top:30%""><img src=""square.png"" width=""306"" height=""306"" style=""position: fixed;left:64%;top:30%"">","null","","","","","","","","","","","","","","","","","","","","","","","","","","","","","","","","","","",""
"","","","","","html-keyboard-response","142","243388","0.0-6.0-2.41","A2M183CETUMR96","2022-05-26T23:55:49.603Z","rhyme-phon_sim-task_switching-same_different","","null","rhyme","<div style=""border: 3px solid #000000; position: fixed;left:14%;top:30%""><img src=""visual/snail.png"" width=""300""></div><div style=""border: 3px solid #000000; position: fixed;left:64%;top:30%""><img src=""visual/whale.png"" width=""300""></div>","null","","false","experiment","visual/snail.png","visual/whale.png","ArrowUp","non-ortho","","","","","","","","","","","","","","","","","","","","","","","","","","","",""
"","","","","","html-keyboard-response","143","243888","0.0-6.0-0.42","A2M183CETUMR96","2022-05-26T23:55:49.603Z","rhyme-phon_sim-task_switching-same_different","","null","rhyme","<div style=""font-size:60px;"">+</div>","null","500","","","","","","","","","","","","","","","","","","","","","","","","","","","","","","","","","",""
"","","","","","html-keyboard-response","144","244389","0.0-6.0-1.42","A2M183CETUMR96","2022-05-26T23:55:49.603Z","rhyme-phon_sim-task_switching-same_different","","null","rhyme","<img src=""square.png"" width=""306"" height=""306"" style=""position: fixed;left:14%;top:30%""><img src=""square.png"" width=""306"" height=""306"" style=""position: fixed;left:64%;top:30%"">","null","","","","","","","","","","","","","","","","","","","","","","","","","","","","","","","","","","",""
"","","","","","html-keyboard-response","145","245548","0.0-6.0-2.42","A2M183CETUMR96","2022-05-26T23:55:49.603Z","rhyme-phon_sim-task_switching-same_different","","1158.6000000014901","rhyme","<div style=""border: 3px solid #000000; position: fixed;left:14%;top:30%""><img src=""visual/tie.png"" width=""300""></div><div style=""border: 3px solid #000000; position: fixed;left:64%;top:30%""><img src=""visual/fly.png"" width=""300""></div>","arrowup","","true","experiment","visual/tie.png","visual/fly.png","ArrowUp","non-ortho","","","","","","","","","","","","","","","","","","","","","","","","","","","",""
"","","","","","html-keyboard-response","146","246298","0.0-6.0-0.43","A2M183CETUMR96","2022-05-26T23:55:49.603Z","rhyme-phon_sim-task_switching-same_different","","null","rhyme","<div style=""font-size:60px;"">+</div>","null","750","","","","","","","","","","","","","","","","","","","","","","","","","","","","","","","","","",""
"","","","","","html-keyboard-response","147","246799","0.0-6.0-1.43","A2M183CETUMR96","2022-05-26T23:55:49.603Z","rhyme-phon_sim-task_switching-same_different","","null","rhyme","<img src=""square.png"" width=""306"" height=""306"" style=""position: fixed;left:14%;top:30%""><img src=""square.png"" width=""306"" height=""306"" style=""position: fixed;left:64%;top:30%"">","null","","","","","","","","","","","","","","","","","","","","","","","","","","","","","","","","","","",""
"","","","","","html-keyboard-response","148","248399","0.0-6.0-2.43","A2M183CETUMR96","2022-05-26T23:55:49.603Z","rhyme-phon_sim-task_switching-same_different","","1600.1000000014901","rhyme","<div style=""border: 3px solid #000000; position: fixed;left:14%;top:30%""><img src=""visual/star.png"" width=""300""></div><div style=""border: 3px solid #000000; position: fixed;left:64%;top:30%""><img src=""visual/jar.png"" width=""300""></div>","arrowdown","","false","experiment","visual/star.png","visual/jar.png","ArrowUp","ortho","","","","","","","","","","","","","","","","","","","","","","","","","","","",""
"","","","","","html-keyboard-response","149","248900","0.0-6.0-0.44","A2M183CETUMR96","2022-05-26T23:55:49.603Z","rhyme-phon_sim-task_switching-same_different","","null","rhyme","<div style=""font-size:60px;"">+</div>","null","500","","","","","","","","","","","","","","","","","","","","","","","","","","","","","","","","","",""
"","","","","","html-keyboard-response","150","249400","0.0-6.0-1.44","A2M183CETUMR96","2022-05-26T23:55:49.603Z","rhyme-phon_sim-task_switching-same_different","","null","rhyme","<img src=""square.png"" width=""306"" height=""306"" style=""position: fixed;left:14%;top:30%""><img src=""square.png"" width=""306"" height=""306"" style=""position: fixed;left:64%;top:30%"">","null","","","","","","","","","","","","","","","","","","","","","","","","","","","","","","","","","","",""
"","","","","","html-keyboard-response","151","250711","0.0-6.0-2.44","A2M183CETUMR96","2022-05-26T23:55:49.603Z","rhyme-phon_sim-task_switching-same_different","","1310.5","rhyme","<div style=""border: 3px solid #000000; position: fixed;left:14%;top:30%""><img src=""visual/jar.png"" width=""300""></div><div style=""border: 3px solid #000000; position: fixed;left:64%;top:30%""><img src=""visual/whale.png"" width=""300""></div>","arrowdown","","true","experiment","visual/jar.png","visual/whale.png","ArrowDown","NR","","","","","","","","","","","","","","","","","","","","","","","","","","","",""
"","","","","","html-keyboard-response","152","251711","0.0-6.0-0.45","A2M183CETUMR96","2022-05-26T23:55:49.603Z","rhyme-phon_sim-task_switching-same_different","","null","rhyme","<div style=""font-size:60px;"">+</div>","null","1000","","","","","","","","","","","","","","","","","","","","","","","","","","","","","","","","","",""
"","","","","","html-keyboard-response","153","252212","0.0-6.0-1.45","A2M183CETUMR96","2022-05-26T23:55:49.603Z","rhyme-phon_sim-task_switching-same_different","","null","rhyme","<img src=""square.png"" width=""306"" height=""306"" style=""position: fixed;left:14%;top:30%""><img src=""square.png"" width=""306"" height=""306"" style=""position: fixed;left:64%;top:30%"">","null","","","","","","","","","","","","","","","","","","","","","","","","","","","","","","","","","","",""
"","","","","","html-keyboard-response","154","253527","0.0-6.0-2.45","A2M183CETUMR96","2022-05-26T23:55:49.603Z","rhyme-phon_sim-task_switching-same_different","","1314.8000000044703","rhyme","<div style=""border: 3px solid #000000; position: fixed;left:14%;top:30%""><img src=""visual/socks.png"" width=""300""></div><div style=""border: 3px solid #000000; position: fixed;left:64%;top:30%""><img src=""visual/fox.png"" width=""300""></div>","arrowdown","","false","experiment","visual/socks.png","visual/fox.png","ArrowUp","non-ortho","","","","","","","","","","","","","","","","","","","","","","","","","","","",""
"","","","","","html-keyboard-response","155","254277","0.0-6.0-0.46","A2M183CETUMR96","2022-05-26T23:55:49.603Z","rhyme-phon_sim-task_switching-same_different","","null","rhyme","<div style=""font-size:60px;"">+</div>","null","750","","","","","","","","","","","","","","","","","","","","","","","","","","","","","","","","","",""
"","","","","","html-keyboard-response","156","254778","0.0-6.0-1.46","A2M183CETUMR96","2022-05-26T23:55:49.603Z","rhyme-phon_sim-task_switching-same_different","","null","rhyme","<img src=""square.png"" width=""306"" height=""306"" style=""position: fixed;left:14%;top:30%""><img src=""square.png"" width=""306"" height=""306"" style=""position: fixed;left:64%;top:30%"">","null","","","","","","","","","","","","","","","","","","","","","","","","","","","","","","","","","","",""
"","","","","","html-keyboard-response","157","256086","0.0-6.0-2.46","A2M183CETUMR96","2022-05-26T23:55:49.603Z","rhyme-phon_sim-task_switching-same_different","","1307.5","rhyme","<div style=""border: 3px solid #000000; position: fixed;left:14%;top:30%""><img src=""visual/saw.png"" width=""300""></div><div style=""border: 3px solid #000000; position: fixed;left:64%;top:30%""><img src=""visual/claw.png"" width=""300""></div>","arrowup","","true","experiment","visual/saw.png","visual/claw.png","ArrowUp","ortho","","","","","","","","","","","","","","","","","","","","","","","","","","","",""
"","","","","","html-keyboard-response","158","257087","0.0-6.0-0.47","A2M183CETUMR96","2022-05-26T23:55:49.603Z","rhyme-phon_sim-task_switching-same_different","","null","rhyme","<div style=""font-size:60px;"">+</div>","null","1000","","","","","","","","","","","","","","","","","","","","","","","","","","","","","","","","","",""
"","","","","","html-keyboard-response","159","257587","0.0-6.0-1.47","A2M183CETUMR96","2022-05-26T23:55:49.603Z","rhyme-phon_sim-task_switching-same_different","","null","rhyme","<img src=""square.png"" width=""306"" height=""306"" style=""position: fixed;left:14%;top:30%""><img src=""square.png"" width=""306"" height=""306"" style=""position: fixed;left:64%;top:30%"">","null","","","","","","","","","","","","","","","","","","","","","","","","","","","","","","","","","","",""
"","","","","","html-keyboard-response","160","258747","0.0-6.0-2.47","A2M183CETUMR96","2022-05-26T23:55:49.603Z","rhyme-phon_sim-task_switching-same_different","","1159.1000000014901","rhyme","<div style=""border: 3px solid #000000; position: fixed;left:14%;top:30%""><img src=""visual/drum.png"" width=""300""></div><div style=""border: 3px solid #000000; position: fixed;left:64%;top:30%""><img src=""visual/thumb.png"" width=""300""></div>","arrowup","","true","experiment","visual/drum.png","visual/thumb.png","ArrowUp","non-ortho","","","","","","","","","","","","","","","","","","","","","","","","","","","",""
"","","","","","html-keyboard-response","161","259247","0.0-6.0-0.48","A2M183CETUMR96","2022-05-26T23:55:49.603Z","rhyme-phon_sim-task_switching-same_different","","null","rhyme","<div style=""font-size:60px;"">+</div>","null","500","","","","","","","","","","","","","","","","","","","","","","","","","","","","","","","","","",""
"","","","","","html-keyboard-response","162","259747","0.0-6.0-1.48","A2M183CETUMR96","2022-05-26T23:55:49.603Z","rhyme-phon_sim-task_switching-same_different","","null","rhyme","<img src=""square.png"" width=""306"" height=""306"" style=""position: fixed;left:14%;top:30%""><img src=""square.png"" width=""306"" height=""306"" style=""position: fixed;left:64%;top:30%"">","null","","","","","","","","","","","","","","","","","","","","","","","","","","","","","","","","","","",""
"","","","","","html-keyboard-response","163","261664","0.0-6.0-2.48","A2M183CETUMR96","2022-05-26T23:55:49.603Z","rhyme-phon_sim-task_switching-same_different","","1916.3999999985099","rhyme","<div style=""border: 3px solid #000000; position: fixed;left:14%;top:30%""><img src=""visual/fan.png"" width=""300""></div><div style=""border: 3px solid #000000; position: fixed;left:64%;top:30%""><img src=""visual/man.png"" width=""300""></div>","arrowdown","","false","experiment","visual/fan.png","visual/man.png","ArrowUp","ortho","","","","","","","","","","","","","","","","","","","","","","","","","","","",""
"","","","","","html-keyboard-response","164","262415","0.0-6.0-0.49","A2M183CETUMR96","2022-05-26T23:55:49.603Z","rhyme-phon_sim-task_switching-same_different","","null","rhyme","<div style=""font-size:60px;"">+</div>","null","750","","","","","","","","","","","","","","","","","","","","","","","","","","","","","","","","","",""
"","","","","","html-keyboard-response","165","262915","0.0-6.0-1.49","A2M183CETUMR96","2022-05-26T23:55:49.603Z","rhyme-phon_sim-task_switching-same_different","","null","rhyme","<img src=""square.png"" width=""306"" height=""306"" style=""position: fixed;left:14%;top:30%""><img src=""square.png"" width=""306"" height=""306"" style=""position: fixed;left:64%;top:30%"">","null","","","","","","","","","","","","","","","","","","","","","","","","","","","","","","","","","","",""
"","","","","","html-keyboard-response","166","265441","0.0-6.0-2.49","A2M183CETUMR96","2022-05-26T23:55:49.603Z","rhyme-phon_sim-task_switching-same_different","","2525.5","rhyme","<div style=""border: 3px solid #000000; position: fixed;left:14%;top:30%""><img src=""visual/tree.png"" width=""300""></div><div style=""border: 3px solid #000000; position: fixed;left:64%;top:30%""><img src=""visual/door.png"" width=""300""></div>","arrowdown","","true","experiment","visual/tree.png","visual/door.png","ArrowDown","NR","","","","","","","","","","","","","","","","","","","","","","","","","","","",""
"","","","","","html-keyboard-response","167","266442","0.0-6.0-0.50","A2M183CETUMR96","2022-05-26T23:55:49.603Z","rhyme-phon_sim-task_switching-same_different","","null","rhyme","<div style=""font-size:60px;"">+</div>","null","1000","","","","","","","","","","","","","","","","","","","","","","","","","","","","","","","","","",""
"","","","","","html-keyboard-response","168","266942","0.0-6.0-1.50","A2M183CETUMR96","2022-05-26T23:55:49.603Z","rhyme-phon_sim-task_switching-same_different","","null","rhyme","<img src=""square.png"" width=""306"" height=""306"" style=""position: fixed;left:14%;top:30%""><img src=""square.png"" width=""306"" height=""306"" style=""position: fixed;left:64%;top:30%"">","null","","","","","","","","","","","","","","","","","","","","","","","","","","","","","","","","","","",""
"","","","","","html-keyboard-response","169","268493","0.0-6.0-2.50","A2M183CETUMR96","2022-05-26T23:55:49.603Z","rhyme-phon_sim-task_switching-same_different","","1550.6000000014901","rhyme","<div style=""border: 3px solid #000000; position: fixed;left:14%;top:30%""><img src=""visual/cab.png"" width=""300""></div><div style=""border: 3px solid #000000; position: fixed;left:64%;top:30%""><img src=""visual/crab.png"" width=""300""></div>","arrowdown","","false","experiment","visual/cab.png","visual/crab.png","ArrowUp","ortho","","","","","","","","","","","","","","","","","","","","","","","","","","","",""
"","","","","","html-keyboard-response","170","268994","0.0-6.0-0.51","A2M183CETUMR96","2022-05-26T23:55:49.603Z","rhyme-phon_sim-task_switching-same_different","","null","rhyme","<div style=""font-size:60px;"">+</div>","null","500","","","","","","","","","","","","","","","","","","","","","","","","","","","","","","","","","",""
"","","","","","html-keyboard-response","171","269494","0.0-6.0-1.51","A2M183CETUMR96","2022-05-26T23:55:49.603Z","rhyme-phon_sim-task_switching-same_different","","null","rhyme","<img src=""square.png"" width=""306"" height=""306"" style=""position: fixed;left:14%;top:30%""><img src=""square.png"" width=""306"" height=""306"" style=""position: fixed;left:64%;top:30%"">","null","","","","","","","","","","","","","","","","","","","","","","","","","","","","","","","","","","",""
"","","","","","html-keyboard-response","172","270914","0.0-6.0-2.51","A2M183CETUMR96","2022-05-26T23:55:49.603Z","rhyme-phon_sim-task_switching-same_different","","1419","rhyme","<div style=""border: 3px solid #000000; position: fixed;left:14%;top:30%""><img src=""visual/king.png"" width=""300""></div><div style=""border: 3px solid #000000; position: fixed;left:64%;top:30%""><img src=""visual/ring.png"" width=""300""></div>","arrowup","","true","experiment","visual/king.png","visual/ring.png","ArrowUp","ortho","","","","","","","","","","","","","","","","","","","","","","","","","","","",""
"","","","","","html-keyboard-response","173","271414","0.0-6.0-0.52","A2M183CETUMR96","2022-05-26T23:55:49.603Z","rhyme-phon_sim-task_switching-same_different","","null","rhyme","<div style=""font-size:60px;"">+</div>","null","500","","","","","","","","","","","","","","","","","","","","","","","","","","","","","","","","","",""
"","","","","","html-keyboard-response","174","271914","0.0-6.0-1.52","A2M183CETUMR96","2022-05-26T23:55:49.603Z","rhyme-phon_sim-task_switching-same_different","","null","rhyme","<img src=""square.png"" width=""306"" height=""306"" style=""position: fixed;left:14%;top:30%""><img src=""square.png"" width=""306"" height=""306"" style=""position: fixed;left:64%;top:30%"">","null","","","","","","","","","","","","","","","","","","","","","","","","","","","","","","","","","","",""
"","","","","","html-keyboard-response","175","273499","0.0-6.0-2.52","A2M183CETUMR96","2022-05-26T23:55:49.603Z","rhyme-phon_sim-task_switching-same_different","","1583.6000000014901","rhyme","<div style=""border: 3px solid #000000; position: fixed;left:14%;top:30%""><img src=""visual/nail.png"" width=""300""></div><div style=""border: 3px solid #000000; position: fixed;left:64%;top:30%""><img src=""visual/whale.png"" width=""300""></div>","arrowup","","true","experiment","visual/nail.png","visual/whale.png","ArrowUp","non-ortho","","","","","","","","","","","","","","","","","","","","","","","","","","","",""
"","","","","","html-keyboard-response","176","274499","0.0-6.0-0.53","A2M183CETUMR96","2022-05-26T23:55:49.603Z","rhyme-phon_sim-task_switching-same_different","","null","rhyme","<div style=""font-size:60px;"">+</div>","null","1000","","","","","","","","","","","","","","","","","","","","","","","","","","","","","","","","","",""
"","","","","","html-keyboard-response","177","274999","0.0-6.0-1.53","A2M183CETUMR96","2022-05-26T23:55:49.603Z","rhyme-phon_sim-task_switching-same_different","","null","rhyme","<img src=""square.png"" width=""306"" height=""306"" style=""position: fixed;left:14%;top:30%""><img src=""square.png"" width=""306"" height=""306"" style=""position: fixed;left:64%;top:30%"">","null","","","","","","","","","","","","","","","","","","","","","","","","","","","","","","","","","","",""
"","","","","","html-keyboard-response","178","276031","0.0-6.0-2.53","A2M183CETUMR96","2022-05-26T23:55:49.603Z","rhyme-phon_sim-task_switching-same_different","","1030.5","rhyme","<div style=""border: 3px solid #000000; position: fixed;left:14%;top:30%""><img src=""visual/well.png"" width=""300""></div><div style=""border: 3px solid #000000; position: fixed;left:64%;top:30%""><img src=""visual/rose.png"" width=""300""></div>","arrowdown","","true","experiment","visual/well.png","visual/rose.png","ArrowDown","NR","","","","","","","","","","","","","","","","","","","","","","","","","","","",""
"","","","","","html-keyboard-response","179","277031","0.0-6.0-0.54","A2M183CETUMR96","2022-05-26T23:55:49.603Z","rhyme-phon_sim-task_switching-same_different","","null","rhyme","<div style=""font-size:60px;"">+</div>","null","1000","","","","","","","","","","","","","","","","","","","","","","","","","","","","","","","","","",""
"","","","","","html-keyboard-response","180","277531","0.0-6.0-1.54","A2M183CETUMR96","2022-05-26T23:55:49.603Z","rhyme-phon_sim-task_switching-same_different","","null","rhyme","<img src=""square.png"" width=""306"" height=""306"" style=""position: fixed;left:14%;top:30%""><img src=""square.png"" width=""306"" height=""306"" style=""position: fixed;left:64%;top:30%"">","null","","","","","","","","","","","","","","","","","","","","","","","","","","","","","","","","","","",""
"","","","","","html-keyboard-response","181","278433","0.0-6.0-2.54","A2M183CETUMR96","2022-05-26T23:55:49.603Z","rhyme-phon_sim-task_switching-same_different","","900.5","rhyme","<div style=""border: 3px solid #000000; position: fixed;left:14%;top:30%""><img src=""visual/pear.png"" width=""300""></div><div style=""border: 3px solid #000000; position: fixed;left:64%;top:30%""><img src=""visual/rope.png"" width=""300""></div>","arrowdown","","true","experiment","visual/pear.png","visual/rope.png","ArrowDown","NR","","","","","","","","","","","","","","","","","","","","","","","","","","","",""
"","","","","","html-keyboard-response","182","278683","0.0-6.0-0.55","A2M183CETUMR96","2022-05-26T23:55:49.603Z","rhyme-phon_sim-task_switching-same_different","","null","rhyme","<div style=""font-size:60px;"">+</div>","null","250","","","","","","","","","","","","","","","","","","","","","","","","","","","","","","","","","",""
"","","","","","html-keyboard-response","183","279183","0.0-6.0-1.55","A2M183CETUMR96","2022-05-26T23:55:49.603Z","rhyme-phon_sim-task_switching-same_different","","null","rhyme","<img src=""square.png"" width=""306"" height=""306"" style=""position: fixed;left:14%;top:30%""><img src=""square.png"" width=""306"" height=""306"" style=""position: fixed;left:64%;top:30%"">","null","","","","","","","","","","","","","","","","","","","","","","","","","","","","","","","","","","",""
"","","","","","html-keyboard-response","184","280328","0.0-6.0-2.55","A2M183CETUMR96","2022-05-26T23:55:49.603Z","rhyme-phon_sim-task_switching-same_different","","1143.8999999985099","rhyme","<div style=""border: 3px solid #000000; position: fixed;left:14%;top:30%""><img src=""visual/nose.png"" width=""300""></div><div style=""border: 3px solid #000000; position: fixed;left:64%;top:30%""><img src=""visual/bell.png"" width=""300""></div>","arrowdown","","true","experiment","visual/nose.png","visual/bell.png","ArrowDown","NR","","","","","","","","","","","","","","","","","","","","","","","","","","","",""
"","","","","","html-keyboard-response","185","280578","0.0-6.0-0.56","A2M183CETUMR96","2022-05-26T23:55:49.603Z","rhyme-phon_sim-task_switching-same_different","","null","rhyme","<div style=""font-size:60px;"">+</div>","null","250","","","","","","","","","","","","","","","","","","","","","","","","","","","","","","","","","",""
"","","","","","html-keyboard-response","186","281078","0.0-6.0-1.56","A2M183CETUMR96","2022-05-26T23:55:49.603Z","rhyme-phon_sim-task_switching-same_different","","null","rhyme","<img src=""square.png"" width=""306"" height=""306"" style=""position: fixed;left:14%;top:30%""><img src=""square.png"" width=""306"" height=""306"" style=""position: fixed;left:64%;top:30%"">","null","","","","","","","","","","","","","","","","","","","","","","","","","","","","","","","","","","",""
"","","","","","html-keyboard-response","187","282282","0.0-6.0-2.56","A2M183CETUMR96","2022-05-26T23:55:49.603Z","rhyme-phon_sim-task_switching-same_different","","1203.0999999940395","rhyme","<div style=""border: 3px solid #000000; position: fixed;left:14%;top:30%""><img src=""visual/deer.png"" width=""300""></div><div style=""border: 3px solid #000000; position: fixed;left:64%;top:30%""><img src=""visual/beer.png"" width=""300""></div>","arrowup","","true","experiment","visual/deer.png","visual/beer.png","ArrowUp","ortho","","","","","","","","","","","","","","","","","","","","","","","","","","","",""
"","","","","","html-keyboard-response","188","283032","0.0-6.0-0.57","A2M183CETUMR96","2022-05-26T23:55:49.603Z","rhyme-phon_sim-task_switching-same_different","","null","rhyme","<div style=""font-size:60px;"">+</div>","null","750","","","","","","","","","","","","","","","","","","","","","","","","","","","","","","","","","",""
"","","","","","html-keyboard-response","189","283533","0.0-6.0-1.57","A2M183CETUMR96","2022-05-26T23:55:49.603Z","rhyme-phon_sim-task_switching-same_different","","null","rhyme","<img src=""square.png"" width=""306"" height=""306"" style=""position: fixed;left:14%;top:30%""><img src=""square.png"" width=""306"" height=""306"" style=""position: fixed;left:64%;top:30%"">","null","","","","","","","","","","","","","","","","","","","","","","","","","","","","","","","","","","",""
"","","","","","html-keyboard-response","190","285355","0.0-6.0-2.57","A2M183CETUMR96","2022-05-26T23:55:49.603Z","rhyme-phon_sim-task_switching-same_different","","1821.6000000014901","rhyme","<div style=""border: 3px solid #000000; position: fixed;left:14%;top:30%""><img src=""visual/plane.png"" width=""300""></div><div style=""border: 3px solid #000000; position: fixed;left:64%;top:30%""><img src=""visual/train.png"" width=""300""></div>","arrowdown","","false","experiment","visual/plane.png","visual/train.png","ArrowUp","non-ortho","","","","","","","","","","","","","","","","","","","","","","","","","","","",""
"","","","","","html-keyboard-response","191","285855","0.0-6.0-0.58","A2M183CETUMR96","2022-05-26T23:55:49.603Z","rhyme-phon_sim-task_switching-same_different","","null","rhyme","<div style=""font-size:60px;"">+</div>","null","500","","","","","","","","","","","","","","","","","","","","","","","","","","","","","","","","","",""
"","","","","","html-keyboard-response","192","286355","0.0-6.0-1.58","A2M183CETUMR96","2022-05-26T23:55:49.603Z","rhyme-phon_sim-task_switching-same_different","","null","rhyme","<img src=""square.png"" width=""306"" height=""306"" style=""position: fixed;left:14%;top:30%""><img src=""square.png"" width=""306"" height=""306"" style=""position: fixed;left:64%;top:30%"">","null","","","","","","","","","","","","","","","","","","","","","","","","","","","","","","","","","","",""
"","","","","","html-keyboard-response","193","287382","0.0-6.0-2.58","A2M183CETUMR96","2022-05-26T23:55:49.603Z","rhyme-phon_sim-task_switching-same_different","","1025.8000000044703","rhyme","<div style=""border: 3px solid #000000; position: fixed;left:14%;top:30%""><img src=""visual/claw.png"" width=""300""></div><div style=""border: 3px solid #000000; position: fixed;left:64%;top:30%""><img src=""visual/beer.png"" width=""300""></div>","arrowdown","","true","experiment","visual/claw.png","visual/beer.png","ArrowDown","NR","","","","","","","","","","","","","","","","","","","","","","","","","","","",""
"","","","","","html-keyboard-response","194","288382","0.0-6.0-0.59","A2M183CETUMR96","2022-05-26T23:55:49.603Z","rhyme-phon_sim-task_switching-same_different","","null","rhyme","<div style=""font-size:60px;"">+</div>","null","1000","","","","","","","","","","","","","","","","","","","","","","","","","","","","","","","","","",""
"","","","","","html-keyboard-response","195","288882","0.0-6.0-1.59","A2M183CETUMR96","2022-05-26T23:55:49.603Z","rhyme-phon_sim-task_switching-same_different","","null","rhyme","<img src=""square.png"" width=""306"" height=""306"" style=""position: fixed;left:14%;top:30%""><img src=""square.png"" width=""306"" height=""306"" style=""position: fixed;left:64%;top:30%"">","null","","","","","","","","","","","","","","","","","","","","","","","","","","","","","","","","","","",""
"","","","","","html-keyboard-response","196","290208","0.0-6.0-2.59","A2M183CETUMR96","2022-05-26T23:55:49.603Z","rhyme-phon_sim-task_switching-same_different","","1324.6999999955297","rhyme","<div style=""border: 3px solid #000000; position: fixed;left:14%;top:30%""><img src=""visual/wheel.png"" width=""300""></div><div style=""border: 3px solid #000000; position: fixed;left:64%;top:30%""><img src=""visual/seal.png"" width=""300""></div>","arrowdown","","false","experiment","visual/wheel.png","visual/seal.png","ArrowUp","non-ortho","","","","","","","","","","","","","","","","","","","","","","","","","","","",""
"","","","","","survey-multi-choice","197","295682","0.0-7.0","A2M183CETUMR96","2022-05-26T23:55:49.603Z","rhyme-phon_sim-task_switching-same_different","","5473.20000000298","rhyme","","{""Q0"":""Yes""}","","","","","","","","[0]","Yes","","","","","","","","","","","","","","","","","","","","","","","","","",""
"","","","","","survey-text","198","306905","0.0-8.0","A2M183CETUMR96","2022-05-26T23:55:49.603Z","rhyme-phon_sim-task_switching-same_different","","11222","rhyme","","{""Q0"":""No""}","","","","","","","","","","No","","","","","","","","","","","","","","","","","","","","","","","","",""
"","","","","","instructions","199","308133","0.0-9.0","A2M183CETUMR96","2022-05-26T23:55:49.603Z","rhyme-phon_sim-task_switching-same_different","[{""page_index"":0,""viewing_time"":1227.1999999955297}]","1227.2999999970198","rhyme","","","","","","","","","","","","","","","","","","","","","","","","","","","","","","","","","","","","",""
"","","","","","instructions","200","339871","0.0-10.0","A2M183CETUMR96","2022-05-26T23:55:49.603Z","rhyme-phon_sim-task_switching-same_different","[{""page_index"":0,""viewing_time"":31738.19999999553}]","31738.29999999702","phon_sim","","","","","","","","","","","","","","","","","","","","","","","","","","","","","","","","","","","","",""
"","","","","","html-keyboard-response","201","352872","0.0-11.0-0.0","A2M183CETUMR96","2022-05-26T23:55:49.603Z","rhyme-phon_sim-task_switching-same_different","","null","phon_sim","<div style=""display:grid""><h1 id=""word_1"" style=""grid-column:1; grid-row:1"">pen</h1><h1 id=""word_2"" style=""visibility:hidden;grid-column:1; grid-row:1"">rig</h1><h1 id=""word_3"" style=""visibility:hidden;grid-column:1; grid-row:1"">day</h1><h1 id=""word_4"" style=""visibility:hidden;grid-column:1; grid-row:1"">bar</h1><h1 id=""word_5"" style=""visibility:hidden;grid-column:1; grid-row:1"">cow</h1></div>","null","","","training","","","","","","","","pen","rig","day","bar","cow","training","","","","","","","","","","","","","","","","","","",""
"","","","","","survey-text","202","359840","0.0-11.0-1.0","A2M183CETUMR96","2022-05-26T23:55:49.603Z","rhyme-phon_sim-task_switching-same_different","","6965.89999999851","phon_sim","","{""position_1"":""pen"",""position_2"":""rig"",""position_3"":""day"",""position_4"":""bar"",""position_5"":""cow""}","","","training","","","","","","","","","","","","","","pen","rig","day","bar","cow","","","","","","","","","","","","","",""
"","","","","","html-keyboard-response","203","364841","0.0-11.0-2.0","A2M183CETUMR96","2022-05-26T23:55:49.603Z","rhyme-phon_sim-task_switching-same_different","","null","phon_sim","<h1 id=""word_1"">pen</h1><h1 id=""word_2"">rig</h1><h1 id=""word_3"">day</h1><h1 id=""word_4"">bar</h1><h1 id=""word_5"">cow</h1>","null","","","","","","","","","","","","","","","","","","","","","","","","","","","","","","","","","","",""
"","","","","","html-keyboard-response","204","377842","0.0-11.0-0.1","A2M183CETUMR96","2022-05-26T23:55:49.603Z","rhyme-phon_sim-task_switching-same_different","","null","phon_sim","<div style=""display:grid""><h1 id=""word_1"" style=""grid-column:1; grid-row:1"">mad</h1><h1 id=""word_2"" style=""visibility:hidden;grid-column:1; grid-row:1"">man</h1><h1 id=""word_3"" style=""visibility:hidden;grid-column:1; grid-row:1"">map</h1><h1 id=""word_4"" style=""visibility:hidden;grid-column:1; grid-row:1"">mat</h1><h1 id=""word_5"" style=""visibility:hidden;grid-column:1; grid-row:1"">max</h1></div>","null","","","training","","","","","","","","mad","man","map","mat","max","training","","","","","","","","","","","","","","","","","","",""
"","","","","","survey-text","205","385122","0.0-11.0-1.1","A2M183CETUMR96","2022-05-26T23:55:49.603Z","rhyme-phon_sim-task_switching-same_different","","7278.9000000059605","phon_sim","","{""position_1"":""mad"",""position_2"":""man"",""position_3"":""map"",""position_4"":""mat"",""position_5"":""max""}","","","training","","","","","","","","","","","","","","mad","man","map","mat","max","","","","","","","","","","","","","",""
"","","","","","html-keyboard-response","206","390123","0.0-11.0-2.1","A2M183CETUMR96","2022-05-26T23:55:49.603Z","rhyme-phon_sim-task_switching-same_different","","null","phon_sim","<h1 id=""word_1"">mad</h1><h1 id=""word_2"">man</h1><h1 id=""word_3"">map</h1><h1 id=""word_4"">mat</h1><h1 id=""word_5"">max</h1>","null","","","","","","","","","","","","","","","","","","","","","","","","","","","","","","","","","","",""
"","","","","","instructions","207","392650","0.0-12.0","A2M183CETUMR96","2022-05-26T23:55:49.603Z","rhyme-phon_sim-task_switching-same_different","[{""page_index"":0,""viewing_time"":2527}]","2527.0999999940395","","","","","","","","","","","","","","","","","","","","","","","","","","","","","","","","","","","","","",""
"","","","","","html-keyboard-response","208","405651","0.0-13.0-0.0","A2M183CETUMR96","2022-05-26T23:55:49.603Z","rhyme-phon_sim-task_switching-same_different","","null","phon_sim","<div style=""display:grid""><h1 id=""word_1"" style=""grid-column:1; grid-row:1"">caught</h1><h1 id=""word_2"" style=""visibility:hidden;grid-column:1; grid-row:1"">taut</h1><h1 id=""word_3"" style=""visibility:hidden;grid-column:1; grid-row:1"">sort</h1><h1 id=""word_4"" style=""visibility:hidden;grid-column:1; grid-row:1"">bought</h1><h1 id=""word_5"" style=""visibility:hidden;grid-column:1; grid-row:1"">wart</h1></div>","null","","","experiment","","","","","","","","caught","taut","sort","bought","wart","phonSet","","","","","","","","","","","","","","","","","","",""
