"success","timeout","failed_images","failed_audio","failed_video","trial_type","trial_index","time_elapsed","internal_node_id","worker_id","start_time","experiment_order","view_history","rt","experiment","stimulus","response","wait_time","correct","phase","image_1","image_2","cor_key","type","question_order","talk_out_loud","strategy_free_ans","judgment_type","stim_1","stim_2","inverted","answer","true_neg","true_pos","false_neg","condition","operation","color_cue","trial_no","symbol_cue","word_1","word_2","word_3","word_4","word_5","original_word_set","response_1","response_2","response_3","response_4","response_5"
"true","false","[]","[]","[]","preload","0","4904","0.0-0.0","A2615YW1YERQBO","2022-05-26T23:13:28.139Z","rhyme-same_different-task_switching-phon_sim","","","","","","","","","","","","","","","","","","","","","","","","","","","","","","","","","","","","","","",""
"","","","","","instructions","1","738559","0.0-1.0","A2615YW1YERQBO","2022-05-26T23:13:28.139Z","rhyme-same_different-task_switching-phon_sim","[{""page_index"":0,""viewing_time"":733646.1999999285}]","733646.3999999762","","","","","","","","","","","","","","","","","","","","","","","","","","","","","","","","","","","","",""
"true","","","","","fullscreen","2","743077","0.0-2.0","A2615YW1YERQBO","2022-05-26T23:13:28.139Z","rhyme-same_different-task_switching-phon_sim","","","","","","","","","","","","","","","","","","","","","","","","","","","","","","","","","","","","","","",""
"","","","","","instructions","3","765759","0.0-3.0","A2615YW1YERQBO","2022-05-26T23:13:28.139Z","rhyme-same_different-task_switching-phon_sim","[{""page_index"":0,""viewing_time"":22680}]","22680.199999928474","rhyme","","","","","","","","","","","","","","","","","","","","","","","","","","","","","","","","","","","",""
"","","","","","html-keyboard-response","4","766764","0.0-4.0-0.0","A2615YW1YERQBO","2022-05-26T23:13:28.139Z","rhyme-same_different-task_switching-phon_sim","","null","rhyme","<div style=""font-size:60px;"">+</div>","null","1000","","","","","","","","","","","","","","","","","","","","","","","","","","","","","","","","",""
"","","","","","html-keyboard-response","5","767279","0.0-4.0-1.0","A2615YW1YERQBO","2022-05-26T23:13:28.139Z","rhyme-same_different-task_switching-phon_sim","","null","rhyme","<img src=""square.png"" width=""306"" height=""306"" style=""position: fixed;left:14%;top:30%""><img src=""square.png"" width=""306"" height=""306"" style=""position: fixed;left:64%;top:30%"">","null","","","","","","","","","","","","","","","","","","","","","","","","","","","","","","","","","",""
"","","","","","categorize-html","6","771153","0.0-4.0-2.0","A2615YW1YERQBO","2022-05-26T23:13:28.139Z","rhyme-same_different-task_switching-phon_sim","","2867.899999976158","rhyme","<div style=""border: 3px solid #000000; position: fixed;left:14%;top:30%""><img src=""visual/dress.png"" width=""300""></div><div style=""border: 3px solid #000000; position: fixed;left:64%;top:30%""><img src=""visual/chess.png"" width=""300""></div>","arrowdown","","false","training","visual/dress.png","visual/chess.png","ArrowUp","NA","","","","","","","","","","","","","","","","","","","","","","","","","","",""
"","","","","","html-keyboard-response","7","772171","0.0-4.0-0.1","A2615YW1YERQBO","2022-05-26T23:13:28.139Z","rhyme-same_different-task_switching-phon_sim","","null","rhyme","<div style=""font-size:60px;"">+</div>","null","1000","","","","","","","","","","","","","","","","","","","","","","","","","","","","","","","","",""
"","","","","","html-keyboard-response","8","772680","0.0-4.0-1.1","A2615YW1YERQBO","2022-05-26T23:13:28.139Z","rhyme-same_different-task_switching-phon_sim","","null","rhyme","<img src=""square.png"" width=""306"" height=""306"" style=""position: fixed;left:14%;top:30%""><img src=""square.png"" width=""306"" height=""306"" style=""position: fixed;left:64%;top:30%"">","null","","","","","","","","","","","","","","","","","","","","","","","","","","","","","","","","","",""
"","","","","","categorize-html","9","775935","0.0-4.0-2.1","A2615YW1YERQBO","2022-05-26T23:13:28.139Z","rhyme-same_different-task_switching-phon_sim","","2250.3000000715256","rhyme","<div style=""border: 3px solid #000000; position: fixed;left:14%;top:30%""><img src=""visual/mouse.png"" width=""300""></div><div style=""border: 3px solid #000000; position: fixed;left:64%;top:30%""><img src=""visual/dress.png"" width=""300""></div>","arrowup","","false","training","visual/mouse.png","visual/dress.png","ArrowDown","NA","","","","","","","","","","","","","","","","","","","","","","","","","","",""
"","","","","","html-keyboard-response","10","776950","0.0-4.0-0.2","A2615YW1YERQBO","2022-05-26T23:13:28.139Z","rhyme-same_different-task_switching-phon_sim","","null","rhyme","<div style=""font-size:60px;"">+</div>","null","1000","","","","","","","","","","","","","","","","","","","","","","","","","","","","","","","","",""
"","","","","","html-keyboard-response","11","777465","0.0-4.0-1.2","A2615YW1YERQBO","2022-05-26T23:13:28.139Z","rhyme-same_different-task_switching-phon_sim","","null","rhyme","<img src=""square.png"" width=""306"" height=""306"" style=""position: fixed;left:14%;top:30%""><img src=""square.png"" width=""306"" height=""306"" style=""position: fixed;left:64%;top:30%"">","null","","","","","","","","","","","","","","","","","","","","","","","","","","","","","","","","","",""
"","","","","","categorize-html","12","779749","0.0-4.0-2.2","A2615YW1YERQBO","2022-05-26T23:13:28.139Z","rhyme-same_different-task_switching-phon_sim","","1274","rhyme","<div style=""border: 3px solid #000000; position: fixed;left:14%;top:30%""><img src=""visual/house.png"" width=""300""></div><div style=""border: 3px solid #000000; position: fixed;left:64%;top:30%""><img src=""visual/mouse.png"" width=""300""></div>","arrowup","","true","training","visual/house.png","visual/mouse.png","ArrowUp","NA","","","","","","","","","","","","","","","","","","","","","","","","","","",""
"","","","","","html-keyboard-response","13","780762","0.0-4.0-0.3","A2615YW1YERQBO","2022-05-26T23:13:28.139Z","rhyme-same_different-task_switching-phon_sim","","null","rhyme","<div style=""font-size:60px;"">+</div>","null","1000","","","","","","","","","","","","","","","","","","","","","","","","","","","","","","","","",""
"","","","","","html-keyboard-response","14","781280","0.0-4.0-1.3","A2615YW1YERQBO","2022-05-26T23:13:28.139Z","rhyme-same_different-task_switching-phon_sim","","null","rhyme","<img src=""square.png"" width=""306"" height=""306"" style=""position: fixed;left:14%;top:30%""><img src=""square.png"" width=""306"" height=""306"" style=""position: fixed;left:64%;top:30%"">","null","","","","","","","","","","","","","","","","","","","","","","","","","","","","","","","","","",""
"","","","","","categorize-html","15","784700","0.0-4.0-2.3","A2615YW1YERQBO","2022-05-26T23:13:28.139Z","rhyme-same_different-task_switching-phon_sim","","2401.399999976158","rhyme","<div style=""border: 3px solid #000000; position: fixed;left:14%;top:30%""><img src=""visual/chess.png"" width=""300""></div><div style=""border: 3px solid #000000; position: fixed;left:64%;top:30%""><img src=""visual/suit.png"" width=""300""></div>","arrowdown","","true","training","visual/chess.png","visual/suit.png","ArrowDown","NA","","","","","","","","","","","","","","","","","","","","","","","","","","",""
"","","","","","instructions","16","787845","0.0-5.0","A2615YW1YERQBO","2022-05-26T23:13:28.139Z","rhyme-same_different-task_switching-phon_sim","[{""page_index"":0,""viewing_time"":3144.399999976158}]","3144.7999999523163","","","","","","","","","","","","","","","","","","","","","","","","","","","","","","","","","","","","",""
"","","","","","html-keyboard-response","17","788605","0.0-6.0-0.0","A2615YW1YERQBO","2022-05-26T23:13:28.139Z","rhyme-same_different-task_switching-phon_sim","","null","rhyme","<div style=""font-size:60px;"">+</div>","null","750","","","","","","","","","","","","","","","","","","","","","","","","","","","","","","","","",""
"","","","","","html-keyboard-response","18","789120","0.0-6.0-1.0","A2615YW1YERQBO","2022-05-26T23:13:28.139Z","rhyme-same_different-task_switching-phon_sim","","null","rhyme","<img src=""square.png"" width=""306"" height=""306"" style=""position: fixed;left:14%;top:30%""><img src=""square.png"" width=""306"" height=""306"" style=""position: fixed;left:64%;top:30%"">","null","","","","","","","","","","","","","","","","","","","","","","","","","","","","","","","","","",""
"","","","","","html-keyboard-response","19","790471","0.0-6.0-2.0","A2615YW1YERQBO","2022-05-26T23:13:28.139Z","rhyme-same_different-task_switching-phon_sim","","1347.3000000715256","rhyme","<div style=""border: 3px solid #000000; position: fixed;left:14%;top:30%""><img src=""visual/key.png"" width=""300""></div><div style=""border: 3px solid #000000; position: fixed;left:64%;top:30%""><img src=""visual/tree.png"" width=""300""></div>","arrowup","","true","experiment","visual/key.png","visual/tree.png","ArrowUp","non-ortho","","","","","","","","","","","","","","","","","","","","","","","","","","",""
"","","","","","html-keyboard-response","20","790728","0.0-6.0-0.1","A2615YW1YERQBO","2022-05-26T23:13:28.139Z","rhyme-same_different-task_switching-phon_sim","","null","rhyme","<div style=""font-size:60px;"">+</div>","null","250","","","","","","","","","","","","","","","","","","","","","","","","","","","","","","","","",""
"","","","","","html-keyboard-response","21","791246","0.0-6.0-1.1","A2615YW1YERQBO","2022-05-26T23:13:28.139Z","rhyme-same_different-task_switching-phon_sim","","null","rhyme","<img src=""square.png"" width=""306"" height=""306"" style=""position: fixed;left:14%;top:30%""><img src=""square.png"" width=""306"" height=""306"" style=""position: fixed;left:64%;top:30%"">","null","","","","","","","","","","","","","","","","","","","","","","","","","","","","","","","","","",""
"","","","","","html-keyboard-response","22","794038","0.0-6.0-2.1","A2615YW1YERQBO","2022-05-26T23:13:28.139Z","rhyme-same_different-task_switching-phon_sim","","2789.3000000715256","rhyme","<div style=""border: 3px solid #000000; position: fixed;left:14%;top:30%""><img src=""visual/train.png"" width=""300""></div><div style=""border: 3px solid #000000; position: fixed;left:64%;top:30%""><img src=""visual/crane.png"" width=""300""></div>","arrowup","","true","experiment","visual/train.png","visual/crane.png","ArrowUp","non-ortho","","","","","","","","","","","","","","","","","","","","","","","","","","",""
"","","","","","html-keyboard-response","23","794795","0.0-6.0-0.2","A2615YW1YERQBO","2022-05-26T23:13:28.139Z","rhyme-same_different-task_switching-phon_sim","","null","rhyme","<div style=""font-size:60px;"">+</div>","null","750","","","","","","","","","","","","","","","","","","","","","","","","","","","","","","","","",""
"","","","","","html-keyboard-response","24","795307","0.0-6.0-1.2","A2615YW1YERQBO","2022-05-26T23:13:28.139Z","rhyme-same_different-task_switching-phon_sim","","null","rhyme","<img src=""square.png"" width=""306"" height=""306"" style=""position: fixed;left:14%;top:30%""><img src=""square.png"" width=""306"" height=""306"" style=""position: fixed;left:64%;top:30%"">","null","","","","","","","","","","","","","","","","","","","","","","","","","","","","","","","","","",""
"","","","","","html-keyboard-response","25","797093","0.0-6.0-2.2","A2615YW1YERQBO","2022-05-26T23:13:28.139Z","rhyme-same_different-task_switching-phon_sim","","1782.7999999523163","rhyme","<div style=""border: 3px solid #000000; position: fixed;left:14%;top:30%""><img src=""visual/dart.png"" width=""300""></div><div style=""border: 3px solid #000000; position: fixed;left:64%;top:30%""><img src=""visual/heart.png"" width=""300""></div>","arrowup","","true","experiment","visual/dart.png","visual/heart.png","ArrowUp","non-ortho","","","","","","","","","","","","","","","","","","","","","","","","","","",""
"","","","","","html-keyboard-response","26","797610","0.0-6.0-0.3","A2615YW1YERQBO","2022-05-26T23:13:28.139Z","rhyme-same_different-task_switching-phon_sim","","null","rhyme","<div style=""font-size:60px;"">+</div>","null","500","","","","","","","","","","","","","","","","","","","","","","","","","","","","","","","","",""
"","","","","","html-keyboard-response","27","798120","0.0-6.0-1.3","A2615YW1YERQBO","2022-05-26T23:13:28.139Z","rhyme-same_different-task_switching-phon_sim","","null","rhyme","<img src=""square.png"" width=""306"" height=""306"" style=""position: fixed;left:14%;top:30%""><img src=""square.png"" width=""306"" height=""306"" style=""position: fixed;left:64%;top:30%"">","null","","","","","","","","","","","","","","","","","","","","","","","","","","","","","","","","","",""
"","","","","","html-keyboard-response","28","800727","0.0-6.0-2.3","A2615YW1YERQBO","2022-05-26T23:13:28.139Z","rhyme-same_different-task_switching-phon_sim","","2602.399999976158","rhyme","<div style=""border: 3px solid #000000; position: fixed;left:14%;top:30%""><img src=""visual/drawer.png"" width=""300""></div><div style=""border: 3px solid #000000; position: fixed;left:64%;top:30%""><img src=""visual/door.png"" width=""300""></div>","arrowup","","true","experiment","visual/drawer.png","visual/door.png","ArrowUp","non-ortho","","","","","","","","","","","","","","","","","","","","","","","","","","",""
"","","","","","html-keyboard-response","29","801230","0.0-6.0-0.4","A2615YW1YERQBO","2022-05-26T23:13:28.139Z","rhyme-same_different-task_switching-phon_sim","","null","rhyme","<div style=""font-size:60px;"">+</div>","null","500","","","","","","","","","","","","","","","","","","","","","","","","","","","","","","","","",""
"","","","","","html-keyboard-response","30","801742","0.0-6.0-1.4","A2615YW1YERQBO","2022-05-26T23:13:28.139Z","rhyme-same_different-task_switching-phon_sim","","null","rhyme","<img src=""square.png"" width=""306"" height=""306"" style=""position: fixed;left:14%;top:30%""><img src=""square.png"" width=""306"" height=""306"" style=""position: fixed;left:64%;top:30%"">","null","","","","","","","","","","","","","","","","","","","","","","","","","","","","","","","","","",""
"","","","","","html-keyboard-response","31","803253","0.0-6.0-2.4","A2615YW1YERQBO","2022-05-26T23:13:28.139Z","rhyme-same_different-task_switching-phon_sim","","1508.1999999284744","rhyme","<div style=""border: 3px solid #000000; position: fixed;left:14%;top:30%""><img src=""visual/brain.png"" width=""300""></div><div style=""border: 3px solid #000000; position: fixed;left:64%;top:30%""><img src=""visual/clock.png"" width=""300""></div>","arrowdown","","true","experiment","visual/brain.png","visual/clock.png","ArrowDown","NR","","","","","","","","","","","","","","","","","","","","","","","","","","",""
"","","","","","html-keyboard-response","32","803755","0.0-6.0-0.5","A2615YW1YERQBO","2022-05-26T23:13:28.139Z","rhyme-same_different-task_switching-phon_sim","","null","rhyme","<div style=""font-size:60px;"">+</div>","null","500","","","","","","","","","","","","","","","","","","","","","","","","","","","","","","","","",""
"","","","","","html-keyboard-response","33","804261","0.0-6.0-1.5","A2615YW1YERQBO","2022-05-26T23:13:28.139Z","rhyme-same_different-task_switching-phon_sim","","null","rhyme","<img src=""square.png"" width=""306"" height=""306"" style=""position: fixed;left:14%;top:30%""><img src=""square.png"" width=""306"" height=""306"" style=""position: fixed;left:64%;top:30%"">","null","","","","","","","","","","","","","","","","","","","","","","","","","","","","","","","","","",""
"","","","","","html-keyboard-response","34","807221","0.0-6.0-2.5","A2615YW1YERQBO","2022-05-26T23:13:28.139Z","rhyme-same_different-task_switching-phon_sim","","2956.5999999046326","rhyme","<div style=""border: 3px solid #000000; position: fixed;left:14%;top:30%""><img src=""visual/king.png"" width=""300""></div><div style=""border: 3px solid #000000; position: fixed;left:64%;top:30%""><img src=""visual/cab.png"" width=""300""></div>","arrowdown","","true","experiment","visual/king.png","visual/cab.png","ArrowDown","NR","","","","","","","","","","","","","","","","","","","","","","","","","","",""
"","","","","","html-keyboard-response","35","807477","0.0-6.0-0.6","A2615YW1YERQBO","2022-05-26T23:13:28.139Z","rhyme-same_different-task_switching-phon_sim","","null","rhyme","<div style=""font-size:60px;"">+</div>","null","250","","","","","","","","","","","","","","","","","","","","","","","","","","","","","","","","",""
"","","","","","html-keyboard-response","36","807994","0.0-6.0-1.6","A2615YW1YERQBO","2022-05-26T23:13:28.139Z","rhyme-same_different-task_switching-phon_sim","","null","rhyme","<img src=""square.png"" width=""306"" height=""306"" style=""position: fixed;left:14%;top:30%""><img src=""square.png"" width=""306"" height=""306"" style=""position: fixed;left:64%;top:30%"">","null","","","","","","","","","","","","","","","","","","","","","","","","","","","","","","","","","",""
"","","","","","html-keyboard-response","37","809766","0.0-6.0-2.6","A2615YW1YERQBO","2022-05-26T23:13:28.139Z","rhyme-same_different-task_switching-phon_sim","","1768.1000000238419","rhyme","<div style=""border: 3px solid #000000; position: fixed;left:14%;top:30%""><img src=""visual/nose.png"" width=""300""></div><div style=""border: 3px solid #000000; position: fixed;left:64%;top:30%""><img src=""visual/bell.png"" width=""300""></div>","arrowdown","","true","experiment","visual/nose.png","visual/bell.png","ArrowDown","NR","","","","","","","","","","","","","","","","","","","","","","","","","","",""
"","","","","","html-keyboard-response","38","810526","0.0-6.0-0.7","A2615YW1YERQBO","2022-05-26T23:13:28.139Z","rhyme-same_different-task_switching-phon_sim","","null","rhyme","<div style=""font-size:60px;"">+</div>","null","750","","","","","","","","","","","","","","","","","","","","","","","","","","","","","","","","",""
"","","","","","html-keyboard-response","39","811043","0.0-6.0-1.7","A2615YW1YERQBO","2022-05-26T23:13:28.139Z","rhyme-same_different-task_switching-phon_sim","","null","rhyme","<img src=""square.png"" width=""306"" height=""306"" style=""position: fixed;left:14%;top:30%""><img src=""square.png"" width=""306"" height=""306"" style=""position: fixed;left:64%;top:30%"">","null","","","","","","","","","","","","","","","","","","","","","","","","","","","","","","","","","",""
"","","","","","html-keyboard-response","40","812935","0.0-6.0-2.7","A2615YW1YERQBO","2022-05-26T23:13:28.139Z","rhyme-same_different-task_switching-phon_sim","","1885.5","rhyme","<div style=""border: 3px solid #000000; position: fixed;left:14%;top:30%""><img src=""visual/drawer.png"" width=""300""></div><div style=""border: 3px solid #000000; position: fixed;left:64%;top:30%""><img src=""visual/chair.png"" width=""300""></div>","arrowdown","","true","experiment","visual/drawer.png","visual/chair.png","ArrowDown","NR","","","","","","","","","","","","","","","","","","","","","","","","","","",""
"","","","","","html-keyboard-response","41","813695","0.0-6.0-0.8","A2615YW1YERQBO","2022-05-26T23:13:28.139Z","rhyme-same_different-task_switching-phon_sim","","null","rhyme","<div style=""font-size:60px;"">+</div>","null","750","","","","","","","","","","","","","","","","","","","","","","","","","","","","","","","","",""
"","","","","","html-keyboard-response","42","814198","0.0-6.0-1.8","A2615YW1YERQBO","2022-05-26T23:13:28.139Z","rhyme-same_different-task_switching-phon_sim","","null","rhyme","<img src=""square.png"" width=""306"" height=""306"" style=""position: fixed;left:14%;top:30%""><img src=""square.png"" width=""306"" height=""306"" style=""position: fixed;left:64%;top:30%"">","null","","","","","","","","","","","","","","","","","","","","","","","","","","","","","","","","","",""
"","","","","","html-keyboard-response","43","815125","0.0-6.0-2.8","A2615YW1YERQBO","2022-05-26T23:13:28.139Z","rhyme-same_different-task_switching-phon_sim","","923.5","rhyme","<div style=""border: 3px solid #000000; position: fixed;left:14%;top:30%""><img src=""visual/cat.png"" width=""300""></div><div style=""border: 3px solid #000000; position: fixed;left:64%;top:30%""><img src=""visual/hat.png"" width=""300""></div>","arrowdown","","false","experiment","visual/cat.png","visual/hat.png","ArrowUp","ortho","","","","","","","","","","","","","","","","","","","","","","","","","","",""
"","","","","","html-keyboard-response","44","816134","0.0-6.0-0.9","A2615YW1YERQBO","2022-05-26T23:13:28.139Z","rhyme-same_different-task_switching-phon_sim","","null","rhyme","<div style=""font-size:60px;"">+</div>","null","1000","","","","","","","","","","","","","","","","","","","","","","","","","","","","","","","","",""
"","","","","","html-keyboard-response","45","816643","0.0-6.0-1.9","A2615YW1YERQBO","2022-05-26T23:13:28.139Z","rhyme-same_different-task_switching-phon_sim","","null","rhyme","<img src=""square.png"" width=""306"" height=""306"" style=""position: fixed;left:14%;top:30%""><img src=""square.png"" width=""306"" height=""306"" style=""position: fixed;left:64%;top:30%"">","null","","","","","","","","","","","","","","","","","","","","","","","","","","","","","","","","","",""
"","","","","","html-keyboard-response","46","818598","0.0-6.0-2.9","A2615YW1YERQBO","2022-05-26T23:13:28.139Z","rhyme-same_different-task_switching-phon_sim","","1952.2999999523163","rhyme","<div style=""border: 3px solid #000000; position: fixed;left:14%;top:30%""><img src=""visual/bear.png"" width=""300""></div><div style=""border: 3px solid #000000; position: fixed;left:64%;top:30%""><img src=""visual/crane.png"" width=""300""></div>","arrowdown","","true","experiment","visual/bear.png","visual/crane.png","ArrowDown","NR","","","","","","","","","","","","","","","","","","","","","","","","","","",""
"","","","","","html-keyboard-response","47","819352","0.0-6.0-0.10","A2615YW1YERQBO","2022-05-26T23:13:28.139Z","rhyme-same_different-task_switching-phon_sim","","null","rhyme","<div style=""font-size:60px;"">+</div>","null","750","","","","","","","","","","","","","","","","","","","","","","","","","","","","","","","","",""
"","","","","","html-keyboard-response","48","819859","0.0-6.0-1.10","A2615YW1YERQBO","2022-05-26T23:13:28.139Z","rhyme-same_different-task_switching-phon_sim","","null","rhyme","<img src=""square.png"" width=""306"" height=""306"" style=""position: fixed;left:14%;top:30%""><img src=""square.png"" width=""306"" height=""306"" style=""position: fixed;left:64%;top:30%"">","null","","","","","","","","","","","","","","","","","","","","","","","","","","","","","","","","","",""
"","","","","","html-keyboard-response","49","822198","0.0-6.0-2.10","A2615YW1YERQBO","2022-05-26T23:13:28.139Z","rhyme-same_different-task_switching-phon_sim","","2336.4000000953674","rhyme","<div style=""border: 3px solid #000000; position: fixed;left:14%;top:30%""><img src=""visual/egg.png"" width=""300""></div><div style=""border: 3px solid #000000; position: fixed;left:64%;top:30%""><img src=""visual/leg.png"" width=""300""></div>","arrowup","","true","experiment","visual/egg.png","visual/leg.png","ArrowUp","ortho","","","","","","","","","","","","","","","","","","","","","","","","","","",""
"","","","","","html-keyboard-response","50","822958","0.0-6.0-0.11","A2615YW1YERQBO","2022-05-26T23:13:28.139Z","rhyme-same_different-task_switching-phon_sim","","null","rhyme","<div style=""font-size:60px;"">+</div>","null","750","","","","","","","","","","","","","","","","","","","","","","","","","","","","","","","","",""
"","","","","","html-keyboard-response","51","823464","0.0-6.0-1.11","A2615YW1YERQBO","2022-05-26T23:13:28.139Z","rhyme-same_different-task_switching-phon_sim","","null","rhyme","<img src=""square.png"" width=""306"" height=""306"" style=""position: fixed;left:14%;top:30%""><img src=""square.png"" width=""306"" height=""306"" style=""position: fixed;left:64%;top:30%"">","null","","","","","","","","","","","","","","","","","","","","","","","","","","","","","","","","","",""
"","","","","","html-keyboard-response","52","825111","0.0-6.0-2.11","A2615YW1YERQBO","2022-05-26T23:13:28.139Z","rhyme-same_different-task_switching-phon_sim","","1644.5","rhyme","<div style=""border: 3px solid #000000; position: fixed;left:14%;top:30%""><img src=""visual/flag.png"" width=""300""></div><div style=""border: 3px solid #000000; position: fixed;left:64%;top:30%""><img src=""visual/bag.png"" width=""300""></div>","arrowup","","true","experiment","visual/flag.png","visual/bag.png","ArrowUp","ortho","","","","","","","","","","","","","","","","","","","","","","","","","","",""
"","","","","","html-keyboard-response","53","825875","0.0-6.0-0.12","A2615YW1YERQBO","2022-05-26T23:13:28.139Z","rhyme-same_different-task_switching-phon_sim","","null","rhyme","<div style=""font-size:60px;"">+</div>","null","750","","","","","","","","","","","","","","","","","","","","","","","","","","","","","","","","",""
"","","","","","html-keyboard-response","54","826384","0.0-6.0-1.12","A2615YW1YERQBO","2022-05-26T23:13:28.139Z","rhyme-same_different-task_switching-phon_sim","","null","rhyme","<img src=""square.png"" width=""306"" height=""306"" style=""position: fixed;left:14%;top:30%""><img src=""square.png"" width=""306"" height=""306"" style=""position: fixed;left:64%;top:30%"">","null","","","","","","","","","","","","","","","","","","","","","","","","","","","","","","","","","",""
"","","","","","html-keyboard-response","55","827558","0.0-6.0-2.12","A2615YW1YERQBO","2022-05-26T23:13:28.139Z","rhyme-same_different-task_switching-phon_sim","","1170.7999999523163","rhyme","<div style=""border: 3px solid #000000; position: fixed;left:14%;top:30%""><img src=""visual/sock.png"" width=""300""></div><div style=""border: 3px solid #000000; position: fixed;left:64%;top:30%""><img src=""visual/clock.png"" width=""300""></div>","arrowup","","true","experiment","visual/sock.png","visual/clock.png","ArrowUp","ortho","","","","","","","","","","","","","","","","","","","","","","","","","","",""
"","","","","","html-keyboard-response","56","828323","0.0-6.0-0.13","A2615YW1YERQBO","2022-05-26T23:13:28.139Z","rhyme-same_different-task_switching-phon_sim","","null","rhyme","<div style=""font-size:60px;"">+</div>","null","750","","","","","","","","","","","","","","","","","","","","","","","","","","","","","","","","",""
"","","","","","html-keyboard-response","57","828826","0.0-6.0-1.13","A2615YW1YERQBO","2022-05-26T23:13:28.139Z","rhyme-same_different-task_switching-phon_sim","","null","rhyme","<img src=""square.png"" width=""306"" height=""306"" style=""position: fixed;left:14%;top:30%""><img src=""square.png"" width=""306"" height=""306"" style=""position: fixed;left:64%;top:30%"">","null","","","","","","","","","","","","","","","","","","","","","","","","","","","","","","","","","",""
"","","","","","html-keyboard-response","58","831862","0.0-6.0-2.13","A2615YW1YERQBO","2022-05-26T23:13:28.139Z","rhyme-same_different-task_switching-phon_sim","","3032.6999999284744","rhyme","<div style=""border: 3px solid #000000; position: fixed;left:14%;top:30%""><img src=""visual/train.png"" width=""300""></div><div style=""border: 3px solid #000000; position: fixed;left:64%;top:30%""><img src=""visual/screw.png"" width=""300""></div>","arrowdown","","true","experiment","visual/train.png","visual/screw.png","ArrowDown","NR","","","","","","","","","","","","","","","","","","","","","","","","","","",""
"","","","","","html-keyboard-response","59","832118","0.0-6.0-0.14","A2615YW1YERQBO","2022-05-26T23:13:28.139Z","rhyme-same_different-task_switching-phon_sim","","null","rhyme","<div style=""font-size:60px;"">+</div>","null","250","","","","","","","","","","","","","","","","","","","","","","","","","","","","","","","","",""
"","","","","","html-keyboard-response","60","832630","0.0-6.0-1.14","A2615YW1YERQBO","2022-05-26T23:13:28.139Z","rhyme-same_different-task_switching-phon_sim","","null","rhyme","<img src=""square.png"" width=""306"" height=""306"" style=""position: fixed;left:14%;top:30%""><img src=""square.png"" width=""306"" height=""306"" style=""position: fixed;left:64%;top:30%"">","null","","","","","","","","","","","","","","","","","","","","","","","","","","","","","","","","","",""
"","","","","","html-keyboard-response","61","834342","0.0-6.0-2.14","A2615YW1YERQBO","2022-05-26T23:13:28.139Z","rhyme-same_different-task_switching-phon_sim","","1708.2000000476837","rhyme","<div style=""border: 3px solid #000000; position: fixed;left:14%;top:30%""><img src=""visual/drum.png"" width=""300""></div><div style=""border: 3px solid #000000; position: fixed;left:64%;top:30%""><img src=""visual/thumb.png"" width=""300""></div>","arrowup","","true","experiment","visual/drum.png","visual/thumb.png","ArrowUp","non-ortho","","","","","","","","","","","","","","","","","","","","","","","","","","",""
"","","","","","html-keyboard-response","62","835353","0.0-6.0-0.15","A2615YW1YERQBO","2022-05-26T23:13:28.139Z","rhyme-same_different-task_switching-phon_sim","","null","rhyme","<div style=""font-size:60px;"">+</div>","null","1000","","","","","","","","","","","","","","","","","","","","","","","","","","","","","","","","",""
"","","","","","html-keyboard-response","63","835859","0.0-6.0-1.15","A2615YW1YERQBO","2022-05-26T23:13:28.139Z","rhyme-same_different-task_switching-phon_sim","","null","rhyme","<img src=""square.png"" width=""306"" height=""306"" style=""position: fixed;left:14%;top:30%""><img src=""square.png"" width=""306"" height=""306"" style=""position: fixed;left:64%;top:30%"">","null","","","","","","","","","","","","","","","","","","","","","","","","","","","","","","","","","",""
"","","","","","html-keyboard-response","64","837111","0.0-6.0-2.15","A2615YW1YERQBO","2022-05-26T23:13:28.139Z","rhyme-same_different-task_switching-phon_sim","","1250.2000000476837","rhyme","<div style=""border: 3px solid #000000; position: fixed;left:14%;top:30%""><img src=""visual/socks.png"" width=""300""></div><div style=""border: 3px solid #000000; position: fixed;left:64%;top:30%""><img src=""visual/fox.png"" width=""300""></div>","arrowup","","true","experiment","visual/socks.png","visual/fox.png","ArrowUp","non-ortho","","","","","","","","","","","","","","","","","","","","","","","","","","",""
"","","","","","html-keyboard-response","65","837624","0.0-6.0-0.16","A2615YW1YERQBO","2022-05-26T23:13:28.139Z","rhyme-same_different-task_switching-phon_sim","","null","rhyme","<div style=""font-size:60px;"">+</div>","null","500","","","","","","","","","","","","","","","","","","","","","","","","","","","","","","","","",""
"","","","","","html-keyboard-response","66","838134","0.0-6.0-1.16","A2615YW1YERQBO","2022-05-26T23:13:28.139Z","rhyme-same_different-task_switching-phon_sim","","null","rhyme","<img src=""square.png"" width=""306"" height=""306"" style=""position: fixed;left:14%;top:30%""><img src=""square.png"" width=""306"" height=""306"" style=""position: fixed;left:64%;top:30%"">","null","","","","","","","","","","","","","","","","","","","","","","","","","","","","","","","","","",""
"","","","","","html-keyboard-response","67","839703","0.0-6.0-2.16","A2615YW1YERQBO","2022-05-26T23:13:28.139Z","rhyme-same_different-task_switching-phon_sim","","1566.8000000715256","rhyme","<div style=""border: 3px solid #000000; position: fixed;left:14%;top:30%""><img src=""visual/plane.png"" width=""300""></div><div style=""border: 3px solid #000000; position: fixed;left:64%;top:30%""><img src=""visual/train.png"" width=""300""></div>","arrowup","","true","experiment","visual/plane.png","visual/train.png","ArrowUp","non-ortho","","","","","","","","","","","","","","","","","","","","","","","","","","",""
"","","","","","html-keyboard-response","68","839958","0.0-6.0-0.17","A2615YW1YERQBO","2022-05-26T23:13:28.139Z","rhyme-same_different-task_switching-phon_sim","","null","rhyme","<div style=""font-size:60px;"">+</div>","null","250","","","","","","","","","","","","","","","","","","","","","","","","","","","","","","","","",""
"","","","","","html-keyboard-response","69","840463","0.0-6.0-1.17","A2615YW1YERQBO","2022-05-26T23:13:28.139Z","rhyme-same_different-task_switching-phon_sim","","null","rhyme","<img src=""square.png"" width=""306"" height=""306"" style=""position: fixed;left:14%;top:30%""><img src=""square.png"" width=""306"" height=""306"" style=""position: fixed;left:64%;top:30%"">","null","","","","","","","","","","","","","","","","","","","","","","","","","","","","","","","","","",""
"","","","","","html-keyboard-response","70","842230","0.0-6.0-2.17","A2615YW1YERQBO","2022-05-26T23:13:28.139Z","rhyme-same_different-task_switching-phon_sim","","1764.2999999523163","rhyme","<div style=""border: 3px solid #000000; position: fixed;left:14%;top:30%""><img src=""visual/soap.png"" width=""300""></div><div style=""border: 3px solid #000000; position: fixed;left:64%;top:30%""><img src=""visual/rope.png"" width=""300""></div>","arrowup","","true","experiment","visual/soap.png","visual/rope.png","ArrowUp","non-ortho","","","","","","","","","","","","","","","","","","","","","","","","","","",""
"","","","","","html-keyboard-response","71","842490","0.0-6.0-0.18","A2615YW1YERQBO","2022-05-26T23:13:28.139Z","rhyme-same_different-task_switching-phon_sim","","null","rhyme","<div style=""font-size:60px;"">+</div>","null","250","","","","","","","","","","","","","","","","","","","","","","","","","","","","","","","","",""
"","","","","","html-keyboard-response","72","843006","0.0-6.0-1.18","A2615YW1YERQBO","2022-05-26T23:13:28.139Z","rhyme-same_different-task_switching-phon_sim","","null","rhyme","<img src=""square.png"" width=""306"" height=""306"" style=""position: fixed;left:14%;top:30%""><img src=""square.png"" width=""306"" height=""306"" style=""position: fixed;left:64%;top:30%"">","null","","","","","","","","","","","","","","","","","","","","","","","","","","","","","","","","","",""
"","","","","","html-keyboard-response","73","844598","0.0-6.0-2.18","A2615YW1YERQBO","2022-05-26T23:13:28.139Z","rhyme-same_different-task_switching-phon_sim","","1589.2000000476837","rhyme","<div style=""border: 3px solid #000000; position: fixed;left:14%;top:30%""><img src=""visual/tree.png"" width=""300""></div><div style=""border: 3px solid #000000; position: fixed;left:64%;top:30%""><img src=""visual/door.png"" width=""300""></div>","arrowdown","","true","experiment","visual/tree.png","visual/door.png","ArrowDown","NR","","","","","","","","","","","","","","","","","","","","","","","","","","",""
"","","","","","html-keyboard-response","74","845352","0.0-6.0-0.19","A2615YW1YERQBO","2022-05-26T23:13:28.139Z","rhyme-same_different-task_switching-phon_sim","","null","rhyme","<div style=""font-size:60px;"">+</div>","null","750","","","","","","","","","","","","","","","","","","","","","","","","","","","","","","","","",""
"","","","","","html-keyboard-response","75","845857","0.0-6.0-1.19","A2615YW1YERQBO","2022-05-26T23:13:28.139Z","rhyme-same_different-task_switching-phon_sim","","null","rhyme","<img src=""square.png"" width=""306"" height=""306"" style=""position: fixed;left:14%;top:30%""><img src=""square.png"" width=""306"" height=""306"" style=""position: fixed;left:64%;top:30%"">","null","","","","","","","","","","","","","","","","","","","","","","","","","","","","","","","","","",""
"","","","","","html-keyboard-response","76","849319","0.0-6.0-2.19","A2615YW1YERQBO","2022-05-26T23:13:28.139Z","rhyme-same_different-task_switching-phon_sim","","3460.3000000715256","rhyme","<div style=""border: 3px solid #000000; position: fixed;left:14%;top:30%""><img src=""visual/claw.png"" width=""300""></div><div style=""border: 3px solid #000000; position: fixed;left:64%;top:30%""><img src=""visual/beer.png"" width=""300""></div>","arrowdown","","true","experiment","visual/claw.png","visual/beer.png","ArrowDown","NR","","","","","","","","","","","","","","","","","","","","","","","","","","",""
"","","","","","html-keyboard-response","77","850087","0.0-6.0-0.20","A2615YW1YERQBO","2022-05-26T23:13:28.139Z","rhyme-same_different-task_switching-phon_sim","","null","rhyme","<div style=""font-size:60px;"">+</div>","null","750","","","","","","","","","","","","","","","","","","","","","","","","","","","","","","","","",""
"","","","","","html-keyboard-response","78","850591","0.0-6.0-1.20","A2615YW1YERQBO","2022-05-26T23:13:28.139Z","rhyme-same_different-task_switching-phon_sim","","null","rhyme","<img src=""square.png"" width=""306"" height=""306"" style=""position: fixed;left:14%;top:30%""><img src=""square.png"" width=""306"" height=""306"" style=""position: fixed;left:64%;top:30%"">","null","","","","","","","","","","","","","","","","","","","","","","","","","","","","","","","","","",""
"","","","","","html-keyboard-response","79","853110","0.0-6.0-2.20","A2615YW1YERQBO","2022-05-26T23:13:28.139Z","rhyme-same_different-task_switching-phon_sim","","2510.600000023842","rhyme","<div style=""border: 3px solid #000000; position: fixed;left:14%;top:30%""><img src=""visual/screw.png"" width=""300""></div><div style=""border: 3px solid #000000; position: fixed;left:64%;top:30%""><img src=""visual/shoe.png"" width=""300""></div>","arrowup","","true","experiment","visual/screw.png","visual/shoe.png","ArrowUp","non-ortho","","","","","","","","","","","","","","","","","","","","","","","","","","",""
"","","","","","html-keyboard-response","80","853373","0.0-6.0-0.21","A2615YW1YERQBO","2022-05-26T23:13:28.139Z","rhyme-same_different-task_switching-phon_sim","","null","rhyme","<div style=""font-size:60px;"">+</div>","null","250","","","","","","","","","","","","","","","","","","","","","","","","","","","","","","","","",""
"","","","","","html-keyboard-response","81","853889","0.0-6.0-1.21","A2615YW1YERQBO","2022-05-26T23:13:28.139Z","rhyme-same_different-task_switching-phon_sim","","null","rhyme","<img src=""square.png"" width=""306"" height=""306"" style=""position: fixed;left:14%;top:30%""><img src=""square.png"" width=""306"" height=""306"" style=""position: fixed;left:64%;top:30%"">","null","","","","","","","","","","","","","","","","","","","","","","","","","","","","","","","","","",""
"","","","","","html-keyboard-response","82","855094","0.0-6.0-2.21","A2615YW1YERQBO","2022-05-26T23:13:28.139Z","rhyme-same_different-task_switching-phon_sim","","1202.2999999523163","rhyme","<div style=""border: 3px solid #000000; position: fixed;left:14%;top:30%""><img src=""visual/eye.png"" width=""300""></div><div style=""border: 3px solid #000000; position: fixed;left:64%;top:30%""><img src=""visual/tie.png"" width=""300""></div>","arrowup","","true","experiment","visual/eye.png","visual/tie.png","ArrowUp","non-ortho","","","","","","","","","","","","","","","","","","","","","","","","","","",""
"","","","","","html-keyboard-response","83","855855","0.0-6.0-0.22","A2615YW1YERQBO","2022-05-26T23:13:28.139Z","rhyme-same_different-task_switching-phon_sim","","null","rhyme","<div style=""font-size:60px;"">+</div>","null","750","","","","","","","","","","","","","","","","","","","","","","","","","","","","","","","","",""
"","","","","","html-keyboard-response","84","856367","0.0-6.0-1.22","A2615YW1YERQBO","2022-05-26T23:13:28.139Z","rhyme-same_different-task_switching-phon_sim","","null","rhyme","<img src=""square.png"" width=""306"" height=""306"" style=""position: fixed;left:14%;top:30%""><img src=""square.png"" width=""306"" height=""306"" style=""position: fixed;left:64%;top:30%"">","null","","","","","","","","","","","","","","","","","","","","","","","","","","","","","","","","","",""
"","","","","","html-keyboard-response","85","857718","0.0-6.0-2.22","A2615YW1YERQBO","2022-05-26T23:13:28.139Z","rhyme-same_different-task_switching-phon_sim","","1347.1000000238419","rhyme","<div style=""border: 3px solid #000000; position: fixed;left:14%;top:30%""><img src=""visual/rose.png"" width=""300""></div><div style=""border: 3px solid #000000; position: fixed;left:64%;top:30%""><img src=""visual/nose.png"" width=""300""></div>","arrowup","","true","experiment","visual/rose.png","visual/nose.png","ArrowUp","ortho","","","","","","","","","","","","","","","","","","","","","","","","","","",""
"","","","","","html-keyboard-response","86","858476","0.0-6.0-0.23","A2615YW1YERQBO","2022-05-26T23:13:28.139Z","rhyme-same_different-task_switching-phon_sim","","null","rhyme","<div style=""font-size:60px;"">+</div>","null","750","","","","","","","","","","","","","","","","","","","","","","","","","","","","","","","","",""
"","","","","","html-keyboard-response","87","858990","0.0-6.0-1.23","A2615YW1YERQBO","2022-05-26T23:13:28.139Z","rhyme-same_different-task_switching-phon_sim","","null","rhyme","<img src=""square.png"" width=""306"" height=""306"" style=""position: fixed;left:14%;top:30%""><img src=""square.png"" width=""306"" height=""306"" style=""position: fixed;left:64%;top:30%"">","null","","","","","","","","","","","","","","","","","","","","","","","","","","","","","","","","","",""
"","","","","","html-keyboard-response","88","860873","0.0-6.0-2.23","A2615YW1YERQBO","2022-05-26T23:13:28.139Z","rhyme-same_different-task_switching-phon_sim","","1879","rhyme","<div style=""border: 3px solid #000000; position: fixed;left:14%;top:30%""><img src=""visual/key.png"" width=""300""></div><div style=""border: 3px solid #000000; position: fixed;left:64%;top:30%""><img src=""visual/snail.png"" width=""300""></div>","arrowdown","","true","experiment","visual/key.png","visual/snail.png","ArrowDown","NR","","","","","","","","","","","","","","","","","","","","","","","","","","",""
"","","","","","html-keyboard-response","89","861381","0.0-6.0-0.24","A2615YW1YERQBO","2022-05-26T23:13:28.139Z","rhyme-same_different-task_switching-phon_sim","","null","rhyme","<div style=""font-size:60px;"">+</div>","null","500","","","","","","","","","","","","","","","","","","","","","","","","","","","","","","","","",""
"","","","","","html-keyboard-response","90","861891","0.0-6.0-1.24","A2615YW1YERQBO","2022-05-26T23:13:28.139Z","rhyme-same_different-task_switching-phon_sim","","null","rhyme","<img src=""square.png"" width=""306"" height=""306"" style=""position: fixed;left:14%;top:30%""><img src=""square.png"" width=""306"" height=""306"" style=""position: fixed;left:64%;top:30%"">","null","","","","","","","","","","","","","","","","","","","","","","","","","","","","","","","","","",""
"","","","","","html-keyboard-response","91","863542","0.0-6.0-2.24","A2615YW1YERQBO","2022-05-26T23:13:28.139Z","rhyme-same_different-task_switching-phon_sim","","1648.5999999046326","rhyme","<div style=""border: 3px solid #000000; position: fixed;left:14%;top:30%""><img src=""visual/king.png"" width=""300""></div><div style=""border: 3px solid #000000; position: fixed;left:64%;top:30%""><img src=""visual/ring.png"" width=""300""></div>","arrowup","","true","experiment","visual/king.png","visual/ring.png","ArrowUp","ortho","","","","","","","","","","","","","","","","","","","","","","","","","","",""
"","","","","","html-keyboard-response","92","864556","0.0-6.0-0.25","A2615YW1YERQBO","2022-05-26T23:13:28.139Z","rhyme-same_different-task_switching-phon_sim","","null","rhyme","<div style=""font-size:60px;"">+</div>","null","1000","","","","","","","","","","","","","","","","","","","","","","","","","","","","","","","","",""
"","","","","","html-keyboard-response","93","865070","0.0-6.0-1.25","A2615YW1YERQBO","2022-05-26T23:13:28.139Z","rhyme-same_different-task_switching-phon_sim","","null","rhyme","<img src=""square.png"" width=""306"" height=""306"" style=""position: fixed;left:14%;top:30%""><img src=""square.png"" width=""306"" height=""306"" style=""position: fixed;left:64%;top:30%"">","null","","","","","","","","","","","","","","","","","","","","","","","","","","","","","","","","","",""
"","","","","","html-keyboard-response","94","866838","0.0-6.0-2.25","A2615YW1YERQBO","2022-05-26T23:13:28.139Z","rhyme-same_different-task_switching-phon_sim","","1763.7999999523163","rhyme","<div style=""border: 3px solid #000000; position: fixed;left:14%;top:30%""><img src=""visual/pear.png"" width=""300""></div><div style=""border: 3px solid #000000; position: fixed;left:64%;top:30%""><img src=""visual/rope.png"" width=""300""></div>","arrowdown","","true","experiment","visual/pear.png","visual/rope.png","ArrowDown","NR","","","","","","","","","","","","","","","","","","","","","","","","","","",""
"","","","","","html-keyboard-response","95","867101","0.0-6.0-0.26","A2615YW1YERQBO","2022-05-26T23:13:28.139Z","rhyme-same_different-task_switching-phon_sim","","null","rhyme","<div style=""font-size:60px;"">+</div>","null","250","","","","","","","","","","","","","","","","","","","","","","","","","","","","","","","","",""
"","","","","","html-keyboard-response","96","867618","0.0-6.0-1.26","A2615YW1YERQBO","2022-05-26T23:13:28.139Z","rhyme-same_different-task_switching-phon_sim","","null","rhyme","<img src=""square.png"" width=""306"" height=""306"" style=""position: fixed;left:14%;top:30%""><img src=""square.png"" width=""306"" height=""306"" style=""position: fixed;left:64%;top:30%"">","null","","","","","","","","","","","","","","","","","","","","","","","","","","","","","","","","","",""
"","","","","","html-keyboard-response","97","871176","0.0-6.0-2.26","A2615YW1YERQBO","2022-05-26T23:13:28.139Z","rhyme-same_different-task_switching-phon_sim","","3555.399999976158","rhyme","<div style=""border: 3px solid #000000; position: fixed;left:14%;top:30%""><img src=""visual/wave.png"" width=""300""></div><div style=""border: 3px solid #000000; position: fixed;left:64%;top:30%""><img src=""visual/cave.png"" width=""300""></div>","arrowup","","true","experiment","visual/wave.png","visual/cave.png","ArrowUp","ortho","","","","","","","","","","","","","","","","","","","","","","","","","","",""
"","","","","","html-keyboard-response","98","872179","0.0-6.0-0.27","A2615YW1YERQBO","2022-05-26T23:13:28.139Z","rhyme-same_different-task_switching-phon_sim","","null","rhyme","<div style=""font-size:60px;"">+</div>","null","1000","","","","","","","","","","","","","","","","","","","","","","","","","","","","","","","","",""
"","","","","","html-keyboard-response","99","872690","0.0-6.0-1.27","A2615YW1YERQBO","2022-05-26T23:13:28.139Z","rhyme-same_different-task_switching-phon_sim","","null","rhyme","<img src=""square.png"" width=""306"" height=""306"" style=""position: fixed;left:14%;top:30%""><img src=""square.png"" width=""306"" height=""306"" style=""position: fixed;left:64%;top:30%"">","null","","","","","","","","","","","","","","","","","","","","","","","","","","","","","","","","","",""
"","","","","","html-keyboard-response","100","874357","0.0-6.0-2.27","A2615YW1YERQBO","2022-05-26T23:13:28.139Z","rhyme-same_different-task_switching-phon_sim","","1664.0999999046326","rhyme","<div style=""border: 3px solid #000000; position: fixed;left:14%;top:30%""><img src=""visual/shark.png"" width=""300""></div><div style=""border: 3px solid #000000; position: fixed;left:64%;top:30%""><img src=""visual/moon.png"" width=""300""></div>","arrowdown","","true","experiment","visual/shark.png","visual/moon.png","ArrowDown","NR","","","","","","","","","","","","","","","","","","","","","","","","","","",""
"","","","","","html-keyboard-response","101","874622","0.0-6.0-0.28","A2615YW1YERQBO","2022-05-26T23:13:28.139Z","rhyme-same_different-task_switching-phon_sim","","null","rhyme","<div style=""font-size:60px;"">+</div>","null","250","","","","","","","","","","","","","","","","","","","","","","","","","","","","","","","","",""
"","","","","","html-keyboard-response","102","875132","0.0-6.0-1.28","A2615YW1YERQBO","2022-05-26T23:13:28.139Z","rhyme-same_different-task_switching-phon_sim","","null","rhyme","<img src=""square.png"" width=""306"" height=""306"" style=""position: fixed;left:14%;top:30%""><img src=""square.png"" width=""306"" height=""306"" style=""position: fixed;left:64%;top:30%"">","null","","","","","","","","","","","","","","","","","","","","","","","","","","","","","","","","","",""
"","","","","","html-keyboard-response","103","876790","0.0-6.0-2.28","A2615YW1YERQBO","2022-05-26T23:13:28.139Z","rhyme-same_different-task_switching-phon_sim","","1651.6000000238419","rhyme","<div style=""border: 3px solid #000000; position: fixed;left:14%;top:30%""><img src=""visual/chain.png"" width=""300""></div><div style=""border: 3px solid #000000; position: fixed;left:64%;top:30%""><img src=""visual/brain.png"" width=""300""></div>","arrowup","","true","experiment","visual/chain.png","visual/brain.png","ArrowUp","ortho","","","","","","","","","","","","","","","","","","","","","","","","","","",""
"","","","","","html-keyboard-response","104","877803","0.0-6.0-0.29","A2615YW1YERQBO","2022-05-26T23:13:28.139Z","rhyme-same_different-task_switching-phon_sim","","null","rhyme","<div style=""font-size:60px;"">+</div>","null","1000","","","","","","","","","","","","","","","","","","","","","","","","","","","","","","","","",""
"","","","","","html-keyboard-response","105","878319","0.0-6.0-1.29","A2615YW1YERQBO","2022-05-26T23:13:28.139Z","rhyme-same_different-task_switching-phon_sim","","null","rhyme","<img src=""square.png"" width=""306"" height=""306"" style=""position: fixed;left:14%;top:30%""><img src=""square.png"" width=""306"" height=""306"" style=""position: fixed;left:64%;top:30%"">","null","","","","","","","","","","","","","","","","","","","","","","","","","","","","","","","","","",""
"","","","","","html-keyboard-response","106","879654","0.0-6.0-2.29","A2615YW1YERQBO","2022-05-26T23:13:28.139Z","rhyme-same_different-task_switching-phon_sim","","1331","rhyme","<div style=""border: 3px solid #000000; position: fixed;left:14%;top:30%""><img src=""visual/dart.png"" width=""300""></div><div style=""border: 3px solid #000000; position: fixed;left:64%;top:30%""><img src=""visual/tie.png"" width=""300""></div>","arrowdown","","true","experiment","visual/dart.png","visual/tie.png","ArrowDown","NR","","","","","","","","","","","","","","","","","","","","","","","","","","",""
"","","","","","html-keyboard-response","107","879906","0.0-6.0-0.30","A2615YW1YERQBO","2022-05-26T23:13:28.139Z","rhyme-same_different-task_switching-phon_sim","","null","rhyme","<div style=""font-size:60px;"">+</div>","null","250","","","","","","","","","","","","","","","","","","","","","","","","","","","","","","","","",""
"","","","","","html-keyboard-response","108","880412","0.0-6.0-1.30","A2615YW1YERQBO","2022-05-26T23:13:28.139Z","rhyme-same_different-task_switching-phon_sim","","null","rhyme","<img src=""square.png"" width=""306"" height=""306"" style=""position: fixed;left:14%;top:30%""><img src=""square.png"" width=""306"" height=""306"" style=""position: fixed;left:64%;top:30%"">","null","","","","","","","","","","","","","","","","","","","","","","","","","","","","","","","","","",""
"","","","","","html-keyboard-response","109","882456","0.0-6.0-2.30","A2615YW1YERQBO","2022-05-26T23:13:28.139Z","rhyme-same_different-task_switching-phon_sim","","2041.2000000476837","rhyme","<div style=""border: 3px solid #000000; position: fixed;left:14%;top:30%""><img src=""visual/nail.png"" width=""300""></div><div style=""border: 3px solid #000000; position: fixed;left:64%;top:30%""><img src=""visual/whale.png"" width=""300""></div>","arrowup","","true","experiment","visual/nail.png","visual/whale.png","ArrowUp","non-ortho","","","","","","","","","","","","","","","","","","","","","","","","","","",""
"","","","","","html-keyboard-response","110","882972","0.0-6.0-0.31","A2615YW1YERQBO","2022-05-26T23:13:28.139Z","rhyme-same_different-task_switching-phon_sim","","null","rhyme","<div style=""font-size:60px;"">+</div>","null","500","","","","","","","","","","","","","","","","","","","","","","","","","","","","","","","","",""
"","","","","","html-keyboard-response","111","883475","0.0-6.0-1.31","A2615YW1YERQBO","2022-05-26T23:13:28.139Z","rhyme-same_different-task_switching-phon_sim","","null","rhyme","<img src=""square.png"" width=""306"" height=""306"" style=""position: fixed;left:14%;top:30%""><img src=""square.png"" width=""306"" height=""306"" style=""position: fixed;left:64%;top:30%"">","null","","","","","","","","","","","","","","","","","","","","","","","","","","","","","","","","","",""
"","","","","","html-keyboard-response","112","884919","0.0-6.0-2.31","A2615YW1YERQBO","2022-05-26T23:13:28.139Z","rhyme-same_different-task_switching-phon_sim","","1441.2999999523163","rhyme","<div style=""border: 3px solid #000000; position: fixed;left:14%;top:30%""><img src=""visual/star.png"" width=""300""></div><div style=""border: 3px solid #000000; position: fixed;left:64%;top:30%""><img src=""visual/jar.png"" width=""300""></div>","arrowup","","true","experiment","visual/star.png","visual/jar.png","ArrowUp","ortho","","","","","","","","","","","","","","","","","","","","","","","","","","",""
"","","","","","html-keyboard-response","113","885678","0.0-6.0-0.32","A2615YW1YERQBO","2022-05-26T23:13:28.139Z","rhyme-same_different-task_switching-phon_sim","","null","rhyme","<div style=""font-size:60px;"">+</div>","null","750","","","","","","","","","","","","","","","","","","","","","","","","","","","","","","","","",""
"","","","","","html-keyboard-response","114","886194","0.0-6.0-1.32","A2615YW1YERQBO","2022-05-26T23:13:28.139Z","rhyme-same_different-task_switching-phon_sim","","null","rhyme","<img src=""square.png"" width=""306"" height=""306"" style=""position: fixed;left:14%;top:30%""><img src=""square.png"" width=""306"" height=""306"" style=""position: fixed;left:64%;top:30%"">","null","","","","","","","","","","","","","","","","","","","","","","","","","","","","","","","","","",""
"","","","","","html-keyboard-response","115","891209","0.0-6.0-2.32","A2615YW1YERQBO","2022-05-26T23:13:28.139Z","rhyme-same_different-task_switching-phon_sim","","null","rhyme","<div style=""border: 3px solid #000000; position: fixed;left:14%;top:30%""><img src=""visual/bin.png"" width=""300""></div><div style=""border: 3px solid #000000; position: fixed;left:64%;top:30%""><img src=""visual/chin.png"" width=""300""></div>","null","","false","experiment","visual/bin.png","visual/chin.png","ArrowUp","ortho","","","","","","","","","","","","","","","","","","","","","","","","","","",""
"","","","","","html-keyboard-response","116","892225","0.0-6.0-0.33","A2615YW1YERQBO","2022-05-26T23:13:28.139Z","rhyme-same_different-task_switching-phon_sim","","null","rhyme","<div style=""font-size:60px;"">+</div>","null","1000","","","","","","","","","","","","","","","","","","","","","","","","","","","","","","","","",""
"","","","","","html-keyboard-response","117","892738","0.0-6.0-1.33","A2615YW1YERQBO","2022-05-26T23:13:28.139Z","rhyme-same_different-task_switching-phon_sim","","null","rhyme","<img src=""square.png"" width=""306"" height=""306"" style=""position: fixed;left:14%;top:30%""><img src=""square.png"" width=""306"" height=""306"" style=""position: fixed;left:64%;top:30%"">","null","","","","","","","","","","","","","","","","","","","","","","","","","","","","","","","","","",""
"","","","","","html-keyboard-response","118","895304","0.0-6.0-2.33","A2615YW1YERQBO","2022-05-26T23:13:28.139Z","rhyme-same_different-task_switching-phon_sim","","2562.100000023842","rhyme","<div style=""border: 3px solid #000000; position: fixed;left:14%;top:30%""><img src=""visual/jar.png"" width=""300""></div><div style=""border: 3px solid #000000; position: fixed;left:64%;top:30%""><img src=""visual/whale.png"" width=""300""></div>","arrowdown","","true","experiment","visual/jar.png","visual/whale.png","ArrowDown","NR","","","","","","","","","","","","","","","","","","","","","","","","","","",""
"","","","","","html-keyboard-response","119","896319","0.0-6.0-0.34","A2615YW1YERQBO","2022-05-26T23:13:28.139Z","rhyme-same_different-task_switching-phon_sim","","null","rhyme","<div style=""font-size:60px;"">+</div>","null","1000","","","","","","","","","","","","","","","","","","","","","","","","","","","","","","","","",""
"","","","","","html-keyboard-response","120","896822","0.0-6.0-1.34","A2615YW1YERQBO","2022-05-26T23:13:28.139Z","rhyme-same_different-task_switching-phon_sim","","null","rhyme","<img src=""square.png"" width=""306"" height=""306"" style=""position: fixed;left:14%;top:30%""><img src=""square.png"" width=""306"" height=""306"" style=""position: fixed;left:64%;top:30%"">","null","","","","","","","","","","","","","","","","","","","","","","","","","","","","","","","","","",""
"","","","","","html-keyboard-response","121","898567","0.0-6.0-2.34","A2615YW1YERQBO","2022-05-26T23:13:28.139Z","rhyme-same_different-task_switching-phon_sim","","1738.6000000238419","rhyme","<div style=""border: 3px solid #000000; position: fixed;left:14%;top:30%""><img src=""visual/fan.png"" width=""300""></div><div style=""border: 3px solid #000000; position: fixed;left:64%;top:30%""><img src=""visual/man.png"" width=""300""></div>","arrowup","","true","experiment","visual/fan.png","visual/man.png","ArrowUp","ortho","","","","","","","","","","","","","","","","","","","","","","","","","","",""
"","","","","","html-keyboard-response","122","899083","0.0-6.0-0.35","A2615YW1YERQBO","2022-05-26T23:13:28.139Z","rhyme-same_different-task_switching-phon_sim","","null","rhyme","<div style=""font-size:60px;"">+</div>","null","500","","","","","","","","","","","","","","","","","","","","","","","","","","","","","","","","",""
"","","","","","html-keyboard-response","123","899588","0.0-6.0-1.35","A2615YW1YERQBO","2022-05-26T23:13:28.139Z","rhyme-same_different-task_switching-phon_sim","","null","rhyme","<img src=""square.png"" width=""306"" height=""306"" style=""position: fixed;left:14%;top:30%""><img src=""square.png"" width=""306"" height=""306"" style=""position: fixed;left:64%;top:30%"">","null","","","","","","","","","","","","","","","","","","","","","","","","","","","","","","","","","",""
"","","","","","html-keyboard-response","124","901767","0.0-6.0-2.35","A2615YW1YERQBO","2022-05-26T23:13:28.139Z","rhyme-same_different-task_switching-phon_sim","","2176.100000023842","rhyme","<div style=""border: 3px solid #000000; position: fixed;left:14%;top:30%""><img src=""visual/spoon.png"" width=""300""></div><div style=""border: 3px solid #000000; position: fixed;left:64%;top:30%""><img src=""visual/crab.png"" width=""300""></div>","arrowdown","","true","experiment","visual/spoon.png","visual/crab.png","ArrowDown","NR","","","","","","","","","","","","","","","","","","","","","","","","","","",""
"","","","","","html-keyboard-response","125","902773","0.0-6.0-0.36","A2615YW1YERQBO","2022-05-26T23:13:28.139Z","rhyme-same_different-task_switching-phon_sim","","null","rhyme","<div style=""font-size:60px;"">+</div>","null","1000","","","","","","","","","","","","","","","","","","","","","","","","","","","","","","","","",""
"","","","","","html-keyboard-response","126","903288","0.0-6.0-1.36","A2615YW1YERQBO","2022-05-26T23:13:28.139Z","rhyme-same_different-task_switching-phon_sim","","null","rhyme","<img src=""square.png"" width=""306"" height=""306"" style=""position: fixed;left:14%;top:30%""><img src=""square.png"" width=""306"" height=""306"" style=""position: fixed;left:64%;top:30%"">","null","","","","","","","","","","","","","","","","","","","","","","","","","","","","","","","","","",""
"","","","","","html-keyboard-response","127","907464","0.0-6.0-2.36","A2615YW1YERQBO","2022-05-26T23:13:28.139Z","rhyme-same_different-task_switching-phon_sim","","4173","rhyme","<div style=""border: 3px solid #000000; position: fixed;left:14%;top:30%""><img src=""visual/rake.png"" width=""300""></div><div style=""border: 3px solid #000000; position: fixed;left:64%;top:30%""><img src=""visual/park.png"" width=""300""></div>","arrowdown","","true","experiment","visual/rake.png","visual/park.png","ArrowDown","NR","","","","","","","","","","","","","","","","","","","","","","","","","","",""
"","","","","","html-keyboard-response","128","908240","0.0-6.0-0.37","A2615YW1YERQBO","2022-05-26T23:13:28.139Z","rhyme-same_different-task_switching-phon_sim","","null","rhyme","<div style=""font-size:60px;"">+</div>","null","750","","","","","","","","","","","","","","","","","","","","","","","","","","","","","","","","",""
"","","","","","html-keyboard-response","129","908755","0.0-6.0-1.37","A2615YW1YERQBO","2022-05-26T23:13:28.139Z","rhyme-same_different-task_switching-phon_sim","","null","rhyme","<img src=""square.png"" width=""306"" height=""306"" style=""position: fixed;left:14%;top:30%""><img src=""square.png"" width=""306"" height=""306"" style=""position: fixed;left:64%;top:30%"">","null","","","","","","","","","","","","","","","","","","","","","","","","","","","","","","","","","",""
"","","","","","html-keyboard-response","130","910278","0.0-6.0-2.37","A2615YW1YERQBO","2022-05-26T23:13:28.139Z","rhyme-same_different-task_switching-phon_sim","","1519.3000000715256","rhyme","<div style=""border: 3px solid #000000; position: fixed;left:14%;top:30%""><img src=""visual/egg.png"" width=""300""></div><div style=""border: 3px solid #000000; position: fixed;left:64%;top:30%""><img src=""visual/ring.png"" width=""300""></div>","arrowdown","","true","experiment","visual/egg.png","visual/ring.png","ArrowDown","NR","","","","","","","","","","","","","","","","","","","","","","","","","","",""
"","","","","","html-keyboard-response","131","911036","0.0-6.0-0.38","A2615YW1YERQBO","2022-05-26T23:13:28.139Z","rhyme-same_different-task_switching-phon_sim","","null","rhyme","<div style=""font-size:60px;"">+</div>","null","750","","","","","","","","","","","","","","","","","","","","","","","","","","","","","","","","",""
"","","","","","html-keyboard-response","132","911554","0.0-6.0-1.38","A2615YW1YERQBO","2022-05-26T23:13:28.139Z","rhyme-same_different-task_switching-phon_sim","","null","rhyme","<img src=""square.png"" width=""306"" height=""306"" style=""position: fixed;left:14%;top:30%""><img src=""square.png"" width=""306"" height=""306"" style=""position: fixed;left:64%;top:30%"">","null","","","","","","","","","","","","","","","","","","","","","","","","","","","","","","","","","",""
"","","","","","html-keyboard-response","133","913158","0.0-6.0-2.38","A2615YW1YERQBO","2022-05-26T23:13:28.139Z","rhyme-same_different-task_switching-phon_sim","","1602.3999999761581","rhyme","<div style=""border: 3px solid #000000; position: fixed;left:14%;top:30%""><img src=""visual/well.png"" width=""300""></div><div style=""border: 3px solid #000000; position: fixed;left:64%;top:30%""><img src=""visual/rose.png"" width=""300""></div>","arrowdown","","true","experiment","visual/well.png","visual/rose.png","ArrowDown","NR","","","","","","","","","","","","","","","","","","","","","","","","","","",""
"","","","","","html-keyboard-response","134","914161","0.0-6.0-0.39","A2615YW1YERQBO","2022-05-26T23:13:28.139Z","rhyme-same_different-task_switching-phon_sim","","null","rhyme","<div style=""font-size:60px;"">+</div>","null","1000","","","","","","","","","","","","","","","","","","","","","","","","","","","","","","","","",""
"","","","","","html-keyboard-response","135","914671","0.0-6.0-1.39","A2615YW1YERQBO","2022-05-26T23:13:28.139Z","rhyme-same_different-task_switching-phon_sim","","null","rhyme","<img src=""square.png"" width=""306"" height=""306"" style=""position: fixed;left:14%;top:30%""><img src=""square.png"" width=""306"" height=""306"" style=""position: fixed;left:64%;top:30%"">","null","","","","","","","","","","","","","","","","","","","","","","","","","","","","","","","","","",""
"","","","","","html-keyboard-response","136","917992","0.0-6.0-2.39","A2615YW1YERQBO","2022-05-26T23:13:28.139Z","rhyme-same_different-task_switching-phon_sim","","3316.899999976158","rhyme","<div style=""border: 3px solid #000000; position: fixed;left:14%;top:30%""><img src=""visual/shark.png"" width=""300""></div><div style=""border: 3px solid #000000; position: fixed;left:64%;top:30%""><img src=""visual/park.png"" width=""300""></div>","arrowup","","true","experiment","visual/shark.png","visual/park.png","ArrowUp","ortho","","","","","","","","","","","","","","","","","","","","","","","","","","",""
"","","","","","html-keyboard-response","137","918756","0.0-6.0-0.40","A2615YW1YERQBO","2022-05-26T23:13:28.139Z","rhyme-same_different-task_switching-phon_sim","","null","rhyme","<div style=""font-size:60px;"">+</div>","null","750","","","","","","","","","","","","","","","","","","","","","","","","","","","","","","","","",""
"","","","","","html-keyboard-response","138","919273","0.0-6.0-1.40","A2615YW1YERQBO","2022-05-26T23:13:28.139Z","rhyme-same_different-task_switching-phon_sim","","null","rhyme","<img src=""square.png"" width=""306"" height=""306"" style=""position: fixed;left:14%;top:30%""><img src=""square.png"" width=""306"" height=""306"" style=""position: fixed;left:64%;top:30%"">","null","","","","","","","","","","","","","","","","","","","","","","","","","","","","","","","","","",""
"","","","","","html-keyboard-response","139","922057","0.0-6.0-2.40","A2615YW1YERQBO","2022-05-26T23:13:28.139Z","rhyme-same_different-task_switching-phon_sim","","2780","rhyme","<div style=""border: 3px solid #000000; position: fixed;left:14%;top:30%""><img src=""visual/saw.png"" width=""300""></div><div style=""border: 3px solid #000000; position: fixed;left:64%;top:30%""><img src=""visual/claw.png"" width=""300""></div>","arrowup","","true","experiment","visual/saw.png","visual/claw.png","ArrowUp","ortho","","","","","","","","","","","","","","","","","","","","","","","","","","",""
"","","","","","html-keyboard-response","140","922821","0.0-6.0-0.41","A2615YW1YERQBO","2022-05-26T23:13:28.139Z","rhyme-same_different-task_switching-phon_sim","","null","rhyme","<div style=""font-size:60px;"">+</div>","null","750","","","","","","","","","","","","","","","","","","","","","","","","","","","","","","","","",""
"","","","","","html-keyboard-response","141","923333","0.0-6.0-1.41","A2615YW1YERQBO","2022-05-26T23:13:28.139Z","rhyme-same_different-task_switching-phon_sim","","null","rhyme","<img src=""square.png"" width=""306"" height=""306"" style=""position: fixed;left:14%;top:30%""><img src=""square.png"" width=""306"" height=""306"" style=""position: fixed;left:64%;top:30%"">","null","","","","","","","","","","","","","","","","","","","","","","","","","","","","","","","","","",""
"","","","","","html-keyboard-response","142","925079","0.0-6.0-2.41","A2615YW1YERQBO","2022-05-26T23:13:28.139Z","rhyme-same_different-task_switching-phon_sim","","1742.4000000953674","rhyme","<div style=""border: 3px solid #000000; position: fixed;left:14%;top:30%""><img src=""visual/pope.png"" width=""300""></div><div style=""border: 3px solid #000000; position: fixed;left:64%;top:30%""><img src=""visual/soap.png"" width=""300""></div>","arrowup","","true","experiment","visual/pope.png","visual/soap.png","ArrowUp","non-ortho","","","","","","","","","","","","","","","","","","","","","","","","","","",""
"","","","","","html-keyboard-response","143","925836","0.0-6.0-0.42","A2615YW1YERQBO","2022-05-26T23:13:28.139Z","rhyme-same_different-task_switching-phon_sim","","null","rhyme","<div style=""font-size:60px;"">+</div>","null","750","","","","","","","","","","","","","","","","","","","","","","","","","","","","","","","","",""
"","","","","","html-keyboard-response","144","926348","0.0-6.0-1.42","A2615YW1YERQBO","2022-05-26T23:13:28.139Z","rhyme-same_different-task_switching-phon_sim","","null","rhyme","<img src=""square.png"" width=""306"" height=""306"" style=""position: fixed;left:14%;top:30%""><img src=""square.png"" width=""306"" height=""306"" style=""position: fixed;left:64%;top:30%"">","null","","","","","","","","","","","","","","","","","","","","","","","","","","","","","","","","","",""
"","","","","","html-keyboard-response","145","928104","0.0-6.0-2.42","A2615YW1YERQBO","2022-05-26T23:13:28.139Z","rhyme-same_different-task_switching-phon_sim","","1753.7000000476837","rhyme","<div style=""border: 3px solid #000000; position: fixed;left:14%;top:30%""><img src=""visual/well.png"" width=""300""></div><div style=""border: 3px solid #000000; position: fixed;left:64%;top:30%""><img src=""visual/bell.png"" width=""300""></div>","arrowup","","true","experiment","visual/well.png","visual/bell.png","ArrowUp","ortho","","","","","","","","","","","","","","","","","","","","","","","","","","",""
"","","","","","html-keyboard-response","146","928618","0.0-6.0-0.43","A2615YW1YERQBO","2022-05-26T23:13:28.139Z","rhyme-same_different-task_switching-phon_sim","","null","rhyme","<div style=""font-size:60px;"">+</div>","null","500","","","","","","","","","","","","","","","","","","","","","","","","","","","","","","","","",""
"","","","","","html-keyboard-response","147","929129","0.0-6.0-1.43","A2615YW1YERQBO","2022-05-26T23:13:28.139Z","rhyme-same_different-task_switching-phon_sim","","null","rhyme","<img src=""square.png"" width=""306"" height=""306"" style=""position: fixed;left:14%;top:30%""><img src=""square.png"" width=""306"" height=""306"" style=""position: fixed;left:64%;top:30%"">","null","","","","","","","","","","","","","","","","","","","","","","","","","","","","","","","","","",""
"","","","","","html-keyboard-response","148","930582","0.0-6.0-2.43","A2615YW1YERQBO","2022-05-26T23:13:28.139Z","rhyme-same_different-task_switching-phon_sim","","1449.7999999523163","rhyme","<div style=""border: 3px solid #000000; position: fixed;left:14%;top:30%""><img src=""visual/plane.png"" width=""300""></div><div style=""border: 3px solid #000000; position: fixed;left:64%;top:30%""><img src=""visual/chain.png"" width=""300""></div>","arrowup","","true","experiment","visual/plane.png","visual/chain.png","ArrowUp","non-ortho","","","","","","","","","","","","","","","","","","","","","","","","","","",""
"","","","","","html-keyboard-response","149","931097","0.0-6.0-0.44","A2615YW1YERQBO","2022-05-26T23:13:28.139Z","rhyme-same_different-task_switching-phon_sim","","null","rhyme","<div style=""font-size:60px;"">+</div>","null","500","","","","","","","","","","","","","","","","","","","","","","","","","","","","","","","","",""
"","","","","","html-keyboard-response","150","931607","0.0-6.0-1.44","A2615YW1YERQBO","2022-05-26T23:13:28.139Z","rhyme-same_different-task_switching-phon_sim","","null","rhyme","<img src=""square.png"" width=""306"" height=""306"" style=""position: fixed;left:14%;top:30%""><img src=""square.png"" width=""306"" height=""306"" style=""position: fixed;left:64%;top:30%"">","null","","","","","","","","","","","","","","","","","","","","","","","","","","","","","","","","","",""
"","","","","","html-keyboard-response","151","932935","0.0-6.0-2.44","A2615YW1YERQBO","2022-05-26T23:13:28.139Z","rhyme-same_different-task_switching-phon_sim","","1324.6000000238419","rhyme","<div style=""border: 3px solid #000000; position: fixed;left:14%;top:30%""><img src=""visual/box.png"" width=""300""></div><div style=""border: 3px solid #000000; position: fixed;left:64%;top:30%""><img src=""visual/fox.png"" width=""300""></div>","arrowup","","true","experiment","visual/box.png","visual/fox.png","ArrowUp","ortho","","","","","","","","","","","","","","","","","","","","","","","","","","",""
"","","","","","html-keyboard-response","152","933690","0.0-6.0-0.45","A2615YW1YERQBO","2022-05-26T23:13:28.139Z","rhyme-same_different-task_switching-phon_sim","","null","rhyme","<div style=""font-size:60px;"">+</div>","null","750","","","","","","","","","","","","","","","","","","","","","","","","","","","","","","","","",""
"","","","","","html-keyboard-response","153","934192","0.0-6.0-1.45","A2615YW1YERQBO","2022-05-26T23:13:28.139Z","rhyme-same_different-task_switching-phon_sim","","null","rhyme","<img src=""square.png"" width=""306"" height=""306"" style=""position: fixed;left:14%;top:30%""><img src=""square.png"" width=""306"" height=""306"" style=""position: fixed;left:64%;top:30%"">","null","","","","","","","","","","","","","","","","","","","","","","","","","","","","","","","","","",""
"","","","","","html-keyboard-response","154","937623","0.0-6.0-2.45","A2615YW1YERQBO","2022-05-26T23:13:28.139Z","rhyme-same_different-task_switching-phon_sim","","3428.1999999284744","rhyme","<div style=""border: 3px solid #000000; position: fixed;left:14%;top:30%""><img src=""visual/deer.png"" width=""300""></div><div style=""border: 3px solid #000000; position: fixed;left:64%;top:30%""><img src=""visual/beer.png"" width=""300""></div>","arrowdown","","false","experiment","visual/deer.png","visual/beer.png","ArrowUp","ortho","","","","","","","","","","","","","","","","","","","","","","","","","","",""
"","","","","","html-keyboard-response","155","938128","0.0-6.0-0.46","A2615YW1YERQBO","2022-05-26T23:13:28.139Z","rhyme-same_different-task_switching-phon_sim","","null","rhyme","<div style=""font-size:60px;"">+</div>","null","500","","","","","","","","","","","","","","","","","","","","","","","","","","","","","","","","",""
"","","","","","html-keyboard-response","156","938636","0.0-6.0-1.46","A2615YW1YERQBO","2022-05-26T23:13:28.139Z","rhyme-same_different-task_switching-phon_sim","","null","rhyme","<img src=""square.png"" width=""306"" height=""306"" style=""position: fixed;left:14%;top:30%""><img src=""square.png"" width=""306"" height=""306"" style=""position: fixed;left:64%;top:30%"">","null","","","","","","","","","","","","","","","","","","","","","","","","","","","","","","","","","",""
"","","","","","html-keyboard-response","157","940969","0.0-6.0-2.46","A2615YW1YERQBO","2022-05-26T23:13:28.139Z","rhyme-same_different-task_switching-phon_sim","","2327.899999976158","rhyme","<div style=""border: 3px solid #000000; position: fixed;left:14%;top:30%""><img src=""visual/bone.png"" width=""300""></div><div style=""border: 3px solid #000000; position: fixed;left:64%;top:30%""><img src=""visual/cone.png"" width=""300""></div>","arrowup","","true","experiment","visual/bone.png","visual/cone.png","ArrowUp","ortho","","","","","","","","","","","","","","","","","","","","","","","","","","",""
"","","","","","html-keyboard-response","158","941221","0.0-6.0-0.47","A2615YW1YERQBO","2022-05-26T23:13:28.139Z","rhyme-same_different-task_switching-phon_sim","","null","rhyme","<div style=""font-size:60px;"">+</div>","null","250","","","","","","","","","","","","","","","","","","","","","","","","","","","","","","","","",""
"","","","","","html-keyboard-response","159","941736","0.0-6.0-1.47","A2615YW1YERQBO","2022-05-26T23:13:28.139Z","rhyme-same_different-task_switching-phon_sim","","null","rhyme","<img src=""square.png"" width=""306"" height=""306"" style=""position: fixed;left:14%;top:30%""><img src=""square.png"" width=""306"" height=""306"" style=""position: fixed;left:64%;top:30%"">","null","","","","","","","","","","","","","","","","","","","","","","","","","","","","","","","","","",""
"","","","","","html-keyboard-response","160","944952","0.0-6.0-2.47","A2615YW1YERQBO","2022-05-26T23:13:28.139Z","rhyme-same_different-task_switching-phon_sim","","3213","rhyme","<div style=""border: 3px solid #000000; position: fixed;left:14%;top:30%""><img src=""visual/cake.png"" width=""300""></div><div style=""border: 3px solid #000000; position: fixed;left:64%;top:30%""><img src=""visual/rake.png"" width=""300""></div>","arrowup","","true","experiment","visual/cake.png","visual/rake.png","ArrowUp","ortho","","","","","","","","","","","","","","","","","","","","","","","","","","",""
"","","","","","html-keyboard-response","161","945456","0.0-6.0-0.48","A2615YW1YERQBO","2022-05-26T23:13:28.139Z","rhyme-same_different-task_switching-phon_sim","","null","rhyme","<div style=""font-size:60px;"">+</div>","null","500","","","","","","","","","","","","","","","","","","","","","","","","","","","","","","","","",""
"","","","","","html-keyboard-response","162","945969","0.0-6.0-1.48","A2615YW1YERQBO","2022-05-26T23:13:28.139Z","rhyme-same_different-task_switching-phon_sim","","null","rhyme","<img src=""square.png"" width=""306"" height=""306"" style=""position: fixed;left:14%;top:30%""><img src=""square.png"" width=""306"" height=""306"" style=""position: fixed;left:64%;top:30%"">","null","","","","","","","","","","","","","","","","","","","","","","","","","","","","","","","","","",""
"","","","","","html-keyboard-response","163","947271","0.0-6.0-2.48","A2615YW1YERQBO","2022-05-26T23:13:28.139Z","rhyme-same_different-task_switching-phon_sim","","1298.5","rhyme","<div style=""border: 3px solid #000000; position: fixed;left:14%;top:30%""><img src=""visual/bed.png"" width=""300""></div><div style=""border: 3px solid #000000; position: fixed;left:64%;top:30%""><img src=""visual/bread.png"" width=""300""></div>","arrowup","","true","experiment","visual/bed.png","visual/bread.png","ArrowUp","non-ortho","","","","","","","","","","","","","","","","","","","","","","","","","","",""
"","","","","","html-keyboard-response","164","948284","0.0-6.0-0.49","A2615YW1YERQBO","2022-05-26T23:13:28.139Z","rhyme-same_different-task_switching-phon_sim","","null","rhyme","<div style=""font-size:60px;"">+</div>","null","1000","","","","","","","","","","","","","","","","","","","","","","","","","","","","","","","","",""
"","","","","","html-keyboard-response","165","948802","0.0-6.0-1.49","A2615YW1YERQBO","2022-05-26T23:13:28.139Z","rhyme-same_different-task_switching-phon_sim","","null","rhyme","<img src=""square.png"" width=""306"" height=""306"" style=""position: fixed;left:14%;top:30%""><img src=""square.png"" width=""306"" height=""306"" style=""position: fixed;left:64%;top:30%"">","null","","","","","","","","","","","","","","","","","","","","","","","","","","","","","","","","","",""
"","","","","","html-keyboard-response","166","950791","0.0-6.0-2.49","A2615YW1YERQBO","2022-05-26T23:13:28.139Z","rhyme-same_different-task_switching-phon_sim","","1985.8999999761581","rhyme","<div style=""border: 3px solid #000000; position: fixed;left:14%;top:30%""><img src=""visual/cat.png"" width=""300""></div><div style=""border: 3px solid #000000; position: fixed;left:64%;top:30%""><img src=""visual/sock.png"" width=""300""></div>","arrowdown","","true","experiment","visual/cat.png","visual/sock.png","ArrowDown","NR","","","","","","","","","","","","","","","","","","","","","","","","","","",""
"","","","","","html-keyboard-response","167","951065","0.0-6.0-0.50","A2615YW1YERQBO","2022-05-26T23:13:28.139Z","rhyme-same_different-task_switching-phon_sim","","null","rhyme","<div style=""font-size:60px;"">+</div>","null","250","","","","","","","","","","","","","","","","","","","","","","","","","","","","","","","","",""
"","","","","","html-keyboard-response","168","951569","0.0-6.0-1.50","A2615YW1YERQBO","2022-05-26T23:13:28.139Z","rhyme-same_different-task_switching-phon_sim","","null","rhyme","<img src=""square.png"" width=""306"" height=""306"" style=""position: fixed;left:14%;top:30%""><img src=""square.png"" width=""306"" height=""306"" style=""position: fixed;left:64%;top:30%"">","null","","","","","","","","","","","","","","","","","","","","","","","","","","","","","","","","","",""
"","","","","","html-keyboard-response","169","953400","0.0-6.0-2.50","A2615YW1YERQBO","2022-05-26T23:13:28.139Z","rhyme-same_different-task_switching-phon_sim","","1829.1999999284744","rhyme","<div style=""border: 3px solid #000000; position: fixed;left:14%;top:30%""><img src=""visual/soap.png"" width=""300""></div><div style=""border: 3px solid #000000; position: fixed;left:64%;top:30%""><img src=""visual/shoe.png"" width=""300""></div>","arrowdown","","true","experiment","visual/soap.png","visual/shoe.png","ArrowDown","NR","","","","","","","","","","","","","","","","","","","","","","","","","","",""
"","","","","","html-keyboard-response","170","953902","0.0-6.0-0.51","A2615YW1YERQBO","2022-05-26T23:13:28.139Z","rhyme-same_different-task_switching-phon_sim","","null","rhyme","<div style=""font-size:60px;"">+</div>","null","500","","","","","","","","","","","","","","","","","","","","","","","","","","","","","","","","",""
"","","","","","html-keyboard-response","171","954418","0.0-6.0-1.51","A2615YW1YERQBO","2022-05-26T23:13:28.139Z","rhyme-same_different-task_switching-phon_sim","","null","rhyme","<img src=""square.png"" width=""306"" height=""306"" style=""position: fixed;left:14%;top:30%""><img src=""square.png"" width=""306"" height=""306"" style=""position: fixed;left:64%;top:30%"">","null","","","","","","","","","","","","","","","","","","","","","","","","","","","","","","","","","",""
"","","","","","html-keyboard-response","172","958471","0.0-6.0-2.51","A2615YW1YERQBO","2022-05-26T23:13:28.139Z","rhyme-same_different-task_switching-phon_sim","","4051.2000000476837","rhyme","<div style=""border: 3px solid #000000; position: fixed;left:14%;top:30%""><img src=""visual/wheel.png"" width=""300""></div><div style=""border: 3px solid #000000; position: fixed;left:64%;top:30%""><img src=""visual/seal.png"" width=""300""></div>","arrowup","","true","experiment","visual/wheel.png","visual/seal.png","ArrowUp","non-ortho","","","","","","","","","","","","","","","","","","","","","","","","","","",""
"","","","","","html-keyboard-response","173","959484","0.0-6.0-0.52","A2615YW1YERQBO","2022-05-26T23:13:28.139Z","rhyme-same_different-task_switching-phon_sim","","null","rhyme","<div style=""font-size:60px;"">+</div>","null","1000","","","","","","","","","","","","","","","","","","","","","","","","","","","","","","","","",""
"","","","","","html-keyboard-response","174","960002","0.0-6.0-1.52","A2615YW1YERQBO","2022-05-26T23:13:28.139Z","rhyme-same_different-task_switching-phon_sim","","null","rhyme","<img src=""square.png"" width=""306"" height=""306"" style=""position: fixed;left:14%;top:30%""><img src=""square.png"" width=""306"" height=""306"" style=""position: fixed;left:64%;top:30%"">","null","","","","","","","","","","","","","","","","","","","","","","","","","","","","","","","","","",""
"","","","","","html-keyboard-response","175","962935","0.0-6.0-2.52","A2615YW1YERQBO","2022-05-26T23:13:28.139Z","rhyme-same_different-task_switching-phon_sim","","2929.600000023842","rhyme","<div style=""border: 3px solid #000000; position: fixed;left:14%;top:30%""><img src=""visual/bear.png"" width=""300""></div><div style=""border: 3px solid #000000; position: fixed;left:64%;top:30%""><img src=""visual/hair.png"" width=""300""></div>","arrowup","","true","experiment","visual/bear.png","visual/hair.png","ArrowUp","non-ortho","","","","","","","","","","","","","","","","","","","","","","","","","","",""
"","","","","","html-keyboard-response","176","963200","0.0-6.0-0.53","A2615YW1YERQBO","2022-05-26T23:13:28.139Z","rhyme-same_different-task_switching-phon_sim","","null","rhyme","<div style=""font-size:60px;"">+</div>","null","250","","","","","","","","","","","","","","","","","","","","","","","","","","","","","","","","",""
"","","","","","html-keyboard-response","177","963718","0.0-6.0-1.53","A2615YW1YERQBO","2022-05-26T23:13:28.139Z","rhyme-same_different-task_switching-phon_sim","","null","rhyme","<img src=""square.png"" width=""306"" height=""306"" style=""position: fixed;left:14%;top:30%""><img src=""square.png"" width=""306"" height=""306"" style=""position: fixed;left:64%;top:30%"">","null","","","","","","","","","","","","","","","","","","","","","","","","","","","","","","","","","",""
"","","","","","html-keyboard-response","178","965176","0.0-6.0-2.53","A2615YW1YERQBO","2022-05-26T23:13:28.139Z","rhyme-same_different-task_switching-phon_sim","","1454.8000000715256","rhyme","<div style=""border: 3px solid #000000; position: fixed;left:14%;top:30%""><img src=""visual/fly.png"" width=""300""></div><div style=""border: 3px solid #000000; position: fixed;left:64%;top:30%""><img src=""visual/plane.png"" width=""300""></div>","arrowdown","","true","experiment","visual/fly.png","visual/plane.png","ArrowDown","NR","","","","","","","","","","","","","","","","","","","","","","","","","","",""
"","","","","","html-keyboard-response","179","965934","0.0-6.0-0.54","A2615YW1YERQBO","2022-05-26T23:13:28.139Z","rhyme-same_different-task_switching-phon_sim","","null","rhyme","<div style=""font-size:60px;"">+</div>","null","750","","","","","","","","","","","","","","","","","","","","","","","","","","","","","","","","",""
"","","","","","html-keyboard-response","180","966438","0.0-6.0-1.54","A2615YW1YERQBO","2022-05-26T23:13:28.139Z","rhyme-same_different-task_switching-phon_sim","","null","rhyme","<img src=""square.png"" width=""306"" height=""306"" style=""position: fixed;left:14%;top:30%""><img src=""square.png"" width=""306"" height=""306"" style=""position: fixed;left:64%;top:30%"">","null","","","","","","","","","","","","","","","","","","","","","","","","","","","","","","","","","",""
"","","","","","html-keyboard-response","181","968327","0.0-6.0-2.54","A2615YW1YERQBO","2022-05-26T23:13:28.139Z","rhyme-same_different-task_switching-phon_sim","","1886.7000000476837","rhyme","<div style=""border: 3px solid #000000; position: fixed;left:14%;top:30%""><img src=""visual/tie.png"" width=""300""></div><div style=""border: 3px solid #000000; position: fixed;left:64%;top:30%""><img src=""visual/fly.png"" width=""300""></div>","arrowup","","true","experiment","visual/tie.png","visual/fly.png","ArrowUp","non-ortho","","","","","","","","","","","","","","","","","","","","","","","","","","",""
"","","","","","html-keyboard-response","182","968835","0.0-6.0-0.55","A2615YW1YERQBO","2022-05-26T23:13:28.139Z","rhyme-same_different-task_switching-phon_sim","","null","rhyme","<div style=""font-size:60px;"">+</div>","null","500","","","","","","","","","","","","","","","","","","","","","","","","","","","","","","","","",""
"","","","","","html-keyboard-response","183","969347","0.0-6.0-1.55","A2615YW1YERQBO","2022-05-26T23:13:28.139Z","rhyme-same_different-task_switching-phon_sim","","null","rhyme","<img src=""square.png"" width=""306"" height=""306"" style=""position: fixed;left:14%;top:30%""><img src=""square.png"" width=""306"" height=""306"" style=""position: fixed;left:64%;top:30%"">","null","","","","","","","","","","","","","","","","","","","","","","","","","","","","","","","","","",""
"","","","","","html-keyboard-response","184","971511","0.0-6.0-2.55","A2615YW1YERQBO","2022-05-26T23:13:28.139Z","rhyme-same_different-task_switching-phon_sim","","2160.899999976158","rhyme","<div style=""border: 3px solid #000000; position: fixed;left:14%;top:30%""><img src=""visual/bear.png"" width=""300""></div><div style=""border: 3px solid #000000; position: fixed;left:64%;top:30%""><img src=""visual/square_rhyme.png"" width=""300""></div>","arrowup","","true","experiment","visual/bear.png","visual/square_rhyme.png","ArrowUp","non-ortho","","","","","","","","","","","","","","","","","","","","","","","","","","",""
"","","","","","html-keyboard-response","185","972516","0.0-6.0-0.56","A2615YW1YERQBO","2022-05-26T23:13:28.139Z","rhyme-same_different-task_switching-phon_sim","","null","rhyme","<div style=""font-size:60px;"">+</div>","null","1000","","","","","","","","","","","","","","","","","","","","","","","","","","","","","","","","",""
"","","","","","html-keyboard-response","186","973036","0.0-6.0-1.56","A2615YW1YERQBO","2022-05-26T23:13:28.139Z","rhyme-same_different-task_switching-phon_sim","","null","rhyme","<img src=""square.png"" width=""306"" height=""306"" style=""position: fixed;left:14%;top:30%""><img src=""square.png"" width=""306"" height=""306"" style=""position: fixed;left:64%;top:30%"">","null","","","","","","","","","","","","","","","","","","","","","","","","","","","","","","","","","",""
"","","","","","html-keyboard-response","187","976297","0.0-6.0-2.56","A2615YW1YERQBO","2022-05-26T23:13:28.139Z","rhyme-same_different-task_switching-phon_sim","","3257","rhyme","<div style=""border: 3px solid #000000; position: fixed;left:14%;top:30%""><img src=""visual/cab.png"" width=""300""></div><div style=""border: 3px solid #000000; position: fixed;left:64%;top:30%""><img src=""visual/crab.png"" width=""300""></div>","arrowup","","true","experiment","visual/cab.png","visual/crab.png","ArrowUp","ortho","","","","","","","","","","","","","","","","","","","","","","","","","","",""
"","","","","","html-keyboard-response","188","976550","0.0-6.0-0.57","A2615YW1YERQBO","2022-05-26T23:13:28.139Z","rhyme-same_different-task_switching-phon_sim","","null","rhyme","<div style=""font-size:60px;"">+</div>","null","250","","","","","","","","","","","","","","","","","","","","","","","","","","","","","","","","",""
"","","","","","html-keyboard-response","189","977065","0.0-6.0-1.57","A2615YW1YERQBO","2022-05-26T23:13:28.139Z","rhyme-same_different-task_switching-phon_sim","","null","rhyme","<img src=""square.png"" width=""306"" height=""306"" style=""position: fixed;left:14%;top:30%""><img src=""square.png"" width=""306"" height=""306"" style=""position: fixed;left:64%;top:30%"">","null","","","","","","","","","","","","","","","","","","","","","","","","","","","","","","","","","",""
"","","","","","html-keyboard-response","190","978088","0.0-6.0-2.57","A2615YW1YERQBO","2022-05-26T23:13:28.139Z","rhyme-same_different-task_switching-phon_sim","","1019.1000000238419","rhyme","<div style=""border: 3px solid #000000; position: fixed;left:14%;top:30%""><img src=""visual/spoon.png"" width=""300""></div><div style=""border: 3px solid #000000; position: fixed;left:64%;top:30%""><img src=""visual/moon.png"" width=""300""></div>","arrowup","","true","experiment","visual/spoon.png","visual/moon.png","ArrowUp","ortho","","","","","","","","","","","","","","","","","","","","","","","","","","",""
"","","","","","html-keyboard-response","191","978850","0.0-6.0-0.58","A2615YW1YERQBO","2022-05-26T23:13:28.139Z","rhyme-same_different-task_switching-phon_sim","","null","rhyme","<div style=""font-size:60px;"">+</div>","null","750","","","","","","","","","","","","","","","","","","","","","","","","","","","","","","","","",""
"","","","","","html-keyboard-response","192","979360","0.0-6.0-1.58","A2615YW1YERQBO","2022-05-26T23:13:28.139Z","rhyme-same_different-task_switching-phon_sim","","null","rhyme","<img src=""square.png"" width=""306"" height=""306"" style=""position: fixed;left:14%;top:30%""><img src=""square.png"" width=""306"" height=""306"" style=""position: fixed;left:64%;top:30%"">","null","","","","","","","","","","","","","","","","","","","","","","","","","","","","","","","","","",""
"","","","","","html-keyboard-response","193","981735","0.0-6.0-2.58","A2615YW1YERQBO","2022-05-26T23:13:28.139Z","rhyme-same_different-task_switching-phon_sim","","2372.2999999523163","rhyme","<div style=""border: 3px solid #000000; position: fixed;left:14%;top:30%""><img src=""visual/snail.png"" width=""300""></div><div style=""border: 3px solid #000000; position: fixed;left:64%;top:30%""><img src=""visual/whale.png"" width=""300""></div>","arrowup","","true","experiment","visual/snail.png","visual/whale.png","ArrowUp","non-ortho","","","","","","","","","","","","","","","","","","","","","","","","","","",""
"","","","","","html-keyboard-response","194","982487","0.0-6.0-0.59","A2615YW1YERQBO","2022-05-26T23:13:28.139Z","rhyme-same_different-task_switching-phon_sim","","null","rhyme","<div style=""font-size:60px;"">+</div>","null","750","","","","","","","","","","","","","","","","","","","","","","","","","","","","","","","","",""
"","","","","","html-keyboard-response","195","983001","0.0-6.0-1.59","A2615YW1YERQBO","2022-05-26T23:13:28.139Z","rhyme-same_different-task_switching-phon_sim","","null","rhyme","<img src=""square.png"" width=""306"" height=""306"" style=""position: fixed;left:14%;top:30%""><img src=""square.png"" width=""306"" height=""306"" style=""position: fixed;left:64%;top:30%"">","null","","","","","","","","","","","","","","","","","","","","","","","","","","","","","","","","","",""
"","","","","","html-keyboard-response","196","984231","0.0-6.0-2.59","A2615YW1YERQBO","2022-05-26T23:13:28.139Z","rhyme-same_different-task_switching-phon_sim","","1226.7999999523163","rhyme","<div style=""border: 3px solid #000000; position: fixed;left:14%;top:30%""><img src=""visual/chair.png"" width=""300""></div><div style=""border: 3px solid #000000; position: fixed;left:64%;top:30%""><img src=""visual/pear.png"" width=""300""></div>","arrowup","","true","experiment","visual/chair.png","visual/pear.png","ArrowUp","non-ortho","","","","","","","","","","","","","","","","","","","","","","","","","","",""
"","","","","","survey-multi-choice","197","989009","0.0-7.0","A2615YW1YERQBO","2022-05-26T23:13:28.139Z","rhyme-same_different-task_switching-phon_sim","","4775","rhyme","","{""Q0"":""No""}","","","","","","","","[0]","No","","","","","","","","","","","","","","","","","","","","","","","","",""
"","","","","","survey-text","198","1020745","0.0-8.0","A2615YW1YERQBO","2022-05-26T23:13:28.139Z","rhyme-same_different-task_switching-phon_sim","","31729.099999904633","rhyme","","{""Q0"":""I had to guess at first for some of these.""}","","","","","","","","","","I had to guess at first for some of these.","","","","","","","","","","","","","","","","","","","","","","","",""
"","","","","","instructions","199","1022937","0.0-9.0","A2615YW1YERQBO","2022-05-26T23:13:28.139Z","rhyme-same_different-task_switching-phon_sim","[{""page_index"":0,""viewing_time"":2190.1999999284744}]","2190.399999976158","rhyme","","","","","","","","","","","","","","","","","","","","","","","","","","","","","","","","","","","",""
"","","","","","instructions","200","1159356","0.0-10.0","A2615YW1YERQBO","2022-05-26T23:13:28.139Z","rhyme-same_different-task_switching-phon_sim","[{""page_index"":0,""viewing_time"":136423.10000002384}]","136423.29999995232","same_different","","","","","","","","","","","","","","","","","","","","","","","","","","","","","","","","","","","",""
"","","","","","instructions","201","1177644","0.0-11.0","A2615YW1YERQBO","2022-05-26T23:13:28.139Z","rhyme-same_different-task_switching-phon_sim","[{""page_index"":0,""viewing_time"":18287}]","18287.200000047684","","","","","","","","","","","","","","","","","","","","","","","","","","","","","","","","","","","","",""
"","","","","","html-keyboard-response","202","1178409","0.0-12.0-0.0","A2615YW1YERQBO","2022-05-26T23:13:28.139Z","rhyme-same_different-task_switching-phon_sim","","null","same_different","<div style=""font-size:60px"">+</div>","null","","","","","","","","","","","","","","","","","","","","","","","","","","","","","","","","","",""
"","","","","","html-keyboard-response","203","1183172","0.0-12.0-1.0","A2615YW1YERQBO","2022-05-26T23:13:28.139Z","rhyme-same_different-task_switching-phon_sim","","4757","same_different","[""<img src=\""square.png\"" width=\""100\"" height=\""100\"" style=\""position: fixed;left:39%;top:47%\""><img src=\""square.png\"" width=\""100\"" height=\""100\"" style=\""position: fixed;left:54%;top:47%\""><img src=\""square.png\"" width=\""100\"" height=\""100\"" style=\""position: fixed;left:46.5%;top:32%\""><img src=\""square.png\"" width=\""100\"" height=\""100\"" style=\""position: fixed;left:46.5%;top:61%\""><div style=\""font-size:60px; text-align: center;margin-top:45.5%\"">+</div><div id=\""first\"" style=\""position: fixed;visibility: hidden;left:40%;top:48%\""><img src=\""same_diff_imgs/C14.gif\""></div><div id=\""delayed\"" style=\""position: fixed;visibility: hidden;left:48%;top:34%\""><img src=\""same_diff_imgs/D09.gif\""></div>""]","arrowdown","","true","","","","","","","","","identical_image","same_diff_imgs/C14.gif","same_diff_imgs/D09.gif","no","different","1","","","","","","","","","","","","","","","","","",""
"","","","","","html-keyboard-response","204","1183177","0.0-12.0-2.0","A2615YW1YERQBO","2022-05-26T23:13:28.139Z","rhyme-same_different-task_switching-phon_sim","","null",""," ","null","","","","","","","","","","","","","","","","","","","","","","","","","","","","","","","","","",""
"","","","","","html-keyboard-response","205","1183479","0.0-12.0-3.0","A2615YW1YERQBO","2022-05-26T23:13:28.139Z","rhyme-same_different-task_switching-phon_sim","","null","same_different"," ","null","","","","","","","","","","","","","","","","","","","","","","","","","","","","","","","","","",""
"","","","","","html-keyboard-response","206","1184236","0.0-12.0-0.1","A2615YW1YERQBO","2022-05-26T23:13:28.139Z","rhyme-same_different-task_switching-phon_sim","","null","same_different","<div style=""font-size:60px"">+</div>","null","","","","","","","","","","","","","","","","","","","","","","","","","","","","","","","","","",""
"","","","","","html-keyboard-response","207","1186435","0.0-12.0-1.1","A2615YW1YERQBO","2022-05-26T23:13:28.139Z","rhyme-same_different-task_switching-phon_sim","","2196.399999976158","same_different","[""<img src=\""square.png\"" width=\""100\"" height=\""100\"" style=\""position: fixed;left:39%;top:47%\""><img src=\""square.png\"" width=\""100\"" height=\""100\"" style=\""position: fixed;left:54%;top:47%\""><img src=\""square.png\"" width=\""100\"" height=\""100\"" style=\""position: fixed;left:46.5%;top:32%\""><img src=\""square.png\"" width=\""100\"" height=\""100\"" style=\""position: fixed;left:46.5%;top:61%\""><div style=\""font-size:60px; text-align: center;margin-top:45.5%\"">+</div><div id=\""first\"" style=\""position: fixed;visibility: hidden;left:48%;top:62%\""><img src=\""same_diff_imgs/C09.gif\""></div><div id=\""delayed\"" style=\""position: fixed;visibility: hidden;left:48%;top:34%\""><img src=\""same_diff_imgs/C09.gif\""></div>""]","arrowup","","true","","","","","","","","","identical_image","same_diff_imgs/C09.gif","same_diff_imgs/C09.gif","no","same","","1","","","","","","","","","","","","","","","","",""
"","","","","","html-keyboard-response","208","1186438","0.0-12.0-2.1","A2615YW1YERQBO","2022-05-26T23:13:28.139Z","rhyme-same_different-task_switching-phon_sim","","null",""," ","null","","","","","","","","","","","","","","","","","","","","","","","","","","","","","","","","","",""
"","","","","","html-keyboard-response","209","1186746","0.0-12.0-3.1","A2615YW1YERQBO","2022-05-26T23:13:28.139Z","rhyme-same_different-task_switching-phon_sim","","null","same_different"," ","null","","","","","","","","","","","","","","","","","","","","","","","","","","","","","","","","","",""
"","","","","","html-keyboard-response","210","1187503","0.0-12.0-0.2","A2615YW1YERQBO","2022-05-26T23:13:28.139Z","rhyme-same_different-task_switching-phon_sim","","null","same_different","<div style=""font-size:60px"">+</div>","null","","","","","","","","","","","","","","","","","","","","","","","","","","","","","","","","","",""
