"success","timeout","failed_images","failed_audio","failed_video","trial_type","trial_index","time_elapsed","internal_node_id","worker_id","start_time","experiment_order","view_history","rt","experiment","response","phase","stimulus","condition","answer","correct","operation","trial_no","color_cue","symbol_cue","question_order","talk_out_loud","strategy_free_ans","wait_time","image_1","image_2","cor_key","type","word_1","word_2","word_3","word_4","word_5","original_word_set","response_1","response_2","response_3","response_4","response_5","judgment_type","stim_1","stim_2","inverted","true_pos","true_neg","false_neg","false_pos"
"true","false","[]","[]","[]","preload","0","7871","0.0-0.0","A1CB72B51L7TKE","2022-05-23T17:54:51.978Z","task_switching-rhyme-phon_sim-same_different","","","","","","","","","","","","","","","","","","","","","","","","","","","","","","","","","","","","","","","",""
"","","","","","instructions","1","41716","0.0-1.0","A1CB72B51L7TKE","2022-05-23T17:54:51.978Z","task_switching-rhyme-phon_sim-same_different","[{""page_index"":0,""viewing_time"":33843.700000047684}]","33844.10000002384","","","","","","","","","","","","","","","","","","","","","","","","","","","","","","","","","","","","","",""
"true","","","","","fullscreen","2","44735","0.0-2.0","A1CB72B51L7TKE","2022-05-23T17:54:51.978Z","task_switching-rhyme-phon_sim-same_different","","","","","","","","","","","","","","","","","","","","","","","","","","","","","","","","","","","","","","","",""
"","","","","","instructions","3","69068","0.0-3.0","A1CB72B51L7TKE","2022-05-23T17:54:51.978Z","task_switching-rhyme-phon_sim-same_different","[{""page_index"":0,""viewing_time"":24331.5}]","24331.80000001192","task_switching","","","","","","","","","","","","","","","","","","","","","","","","","","","","","","","","","","","","",""
"","","","","","instructions","4","80820","0.0-4.0","A1CB72B51L7TKE","2022-05-23T17:54:51.978Z","task_switching-rhyme-phon_sim-same_different","[{""page_index"":0,""viewing_time"":11750.399999976158}]","11750.600000023842","task_switching","","","","","","","","","","","","","","","","","","","","","","","","","","","","","","","","","","","","",""
"","","","","","survey-text","5","85152","0.0-5.0","A1CB72B51L7TKE","2022-05-23T17:54:51.978Z","task_switching-rhyme-phon_sim-same_different","","4325.199999988079","task_switching","{""subtraction_ans"":""41""}","training","44","subtraction","41","true","subtract","","","","","","","","","","","","","","","","","","","","","","","","","","","","","",""
"","","","","","html-keyboard-response","6","86156","0.0-6.0","A1CB72B51L7TKE","2022-05-23T17:54:51.978Z","task_switching-rhyme-phon_sim-same_different","","null","task_switching","null","training","<div style=""color:darkgreen; font-size:60px"">Well done!</div>","subtraction","","","","","","","","","","","","","","","","","","","","","","","","","","","","","","","","",""
"","","","","","survey-text","7","89390","0.0-7.0","A1CB72B51L7TKE","2022-05-23T17:54:51.978Z","task_switching-rhyme-phon_sim-same_different","","3231.399999976158","task_switching","{""subtraction_ans"":""54""}","training","57","subtraction","54","true","subtract","","","","","","","","","","","","","","","","","","","","","","","","","","","","","",""
"","","","","","html-keyboard-response","8","90407","0.0-8.0","A1CB72B51L7TKE","2022-05-23T17:54:51.978Z","task_switching-rhyme-phon_sim-same_different","","null","task_switching","null","training","<div style=""color:darkgreen; font-size:60px"">Well done!</div>","subtraction","","","","","","","","","","","","","","","","","","","","","","","","","","","","","","","","",""
"","","","","","survey-text","9","93470","0.0-9.0","A1CB72B51L7TKE","2022-05-23T17:54:51.978Z","task_switching-rhyme-phon_sim-same_different","","3060.199999988079","task_switching","{""subtraction_ans"":""67""}","training","70","subtraction","67","true","subtract","","","","","","","","","","","","","","","","","","","","","","","","","","","","","",""
"","","","","","html-keyboard-response","10","94477","0.0-10.0","A1CB72B51L7TKE","2022-05-23T17:54:51.978Z","task_switching-rhyme-phon_sim-same_different","","null","task_switching","null","training","<div style=""color:darkgreen; font-size:60px"">Well done!</div>","subtraction","","","","","","","","","","","","","","","","","","","","","","","","","","","","","","","","",""
"","","","","","survey-text","11","97152","0.0-11.0","A1CB72B51L7TKE","2022-05-23T17:54:51.978Z","task_switching-rhyme-phon_sim-same_different","","2673","task_switching","{""subtraction_ans"":""92""}","training","95","subtraction","92","true","subtract","","","","","","","","","","","","","","","","","","","","","","","","","","","","","",""
"","","","","","html-keyboard-response","12","98156","0.0-12.0","A1CB72B51L7TKE","2022-05-23T17:54:51.978Z","task_switching-rhyme-phon_sim-same_different","","null","task_switching","null","training","<div style=""color:darkgreen; font-size:60px"">Well done!</div>","subtraction","","","","","","","","","","","","","","","","","","","","","","","","","","","","","","","","",""
"","","","","","survey-text","13","101052","0.0-13.0","A1CB72B51L7TKE","2022-05-23T17:54:51.978Z","task_switching-rhyme-phon_sim-same_different","","2888.199999988079","task_switching","{""subtraction_ans"":""20""}","training","23","subtraction","20","true","subtract","","","","","","","","","","","","","","","","","","","","","","","","","","","","","",""
"","","","","","html-keyboard-response","14","102064","0.0-14.0","A1CB72B51L7TKE","2022-05-23T17:54:51.978Z","task_switching-rhyme-phon_sim-same_different","","null","task_switching","null","training","<div style=""color:darkgreen; font-size:60px"">Well done!</div>","subtraction","","","","","","","","","","","","","","","","","","","","","","","","","","","","","","","","",""
"","","","","","survey-text","15","105441","0.0-15.0","A1CB72B51L7TKE","2022-05-23T17:54:51.978Z","task_switching-rhyme-phon_sim-same_different","","3367.900000035763","task_switching","{""subtraction_ans"":""72""}","training","75","subtraction","72","true","subtract","","","","","","","","","","","","","","","","","","","","","","","","","","","","","",""
"","","","","","html-keyboard-response","16","106448","0.0-16.0","A1CB72B51L7TKE","2022-05-23T17:54:51.978Z","task_switching-rhyme-phon_sim-same_different","","null","task_switching","null","training","<div style=""color:darkgreen; font-size:60px"">Well done!</div>","subtraction","","","","","","","","","","","","","","","","","","","","","","","","","","","","","","","","",""
"","","","","","survey-text","17","109338","0.0-17.0","A1CB72B51L7TKE","2022-05-23T17:54:51.978Z","task_switching-rhyme-phon_sim-same_different","","2888.399999976158","task_switching","{""subtraction_ans"":""74""}","training","77","subtraction","74","true","subtract","","","","","","","","","","","","","","","","","","","","","","","","","","","","","",""
"","","","","","html-keyboard-response","18","110340","0.0-18.0","A1CB72B51L7TKE","2022-05-23T17:54:51.978Z","task_switching-rhyme-phon_sim-same_different","","null","task_switching","null","training","<div style=""color:darkgreen; font-size:60px"">Well done!</div>","subtraction","","","","","","","","","","","","","","","","","","","","","","","","","","","","","","","","",""
"","","","","","survey-text","19","113636","0.0-19.0","A1CB72B51L7TKE","2022-05-23T17:54:51.978Z","task_switching-rhyme-phon_sim-same_different","","3293.600000023842","task_switching","{""subtraction_ans"":""86""}","training","89","subtraction","86","true","subtract","","","","","","","","","","","","","","","","","","","","","","","","","","","","","",""
"","","","","","html-keyboard-response","20","114638","0.0-20.0","A1CB72B51L7TKE","2022-05-23T17:54:51.978Z","task_switching-rhyme-phon_sim-same_different","","null","task_switching","null","training","<div style=""color:darkgreen; font-size:60px"">Well done!</div>","subtraction","","","","","","","","","","","","","","","","","","","","","","","","","","","","","","","","",""
"","","","","","survey-text","21","117560","0.0-21.0","A1CB72B51L7TKE","2022-05-23T17:54:51.978Z","task_switching-rhyme-phon_sim-same_different","","2919.399999976158","task_switching","{""subtraction_ans"":""23""}","training","26","subtraction","23","true","subtract","","","","","","","","","","","","","","","","","","","","","","","","","","","","","",""
"","","","","","html-keyboard-response","22","118577","0.0-22.0","A1CB72B51L7TKE","2022-05-23T17:54:51.978Z","task_switching-rhyme-phon_sim-same_different","","null","task_switching","null","training","<div style=""color:darkgreen; font-size:60px"">Well done!</div>","subtraction","","","","","","","","","","","","","","","","","","","","","","","","","","","","","","","","",""
"","","","","","survey-text","23","121630","0.0-23.0","A1CB72B51L7TKE","2022-05-23T17:54:51.978Z","task_switching-rhyme-phon_sim-same_different","","3050.100000023842","task_switching","{""subtraction_ans"":""58""}","training","61","subtraction","58","true","subtract","","","","","","","","","","","","","","","","","","","","","","","","","","","","","",""
"","","","","","html-keyboard-response","24","122643","0.0-24.0","A1CB72B51L7TKE","2022-05-23T17:54:51.978Z","task_switching-rhyme-phon_sim-same_different","","null","task_switching","null","training","<div style=""color:darkgreen; font-size:60px"">Well done!</div>","subtraction","","","","","","","","","","","","","","","","","","","","","","","","","","","","","","","","",""
"","","","","","instructions","25","125103","0.0-25.0","A1CB72B51L7TKE","2022-05-23T17:54:51.978Z","task_switching-rhyme-phon_sim-same_different","[{""page_index"":0,""viewing_time"":2460.399999976158}]","2460.699999988079","task_switching","","","","","","","","","","","","","","","","","","","","","","","","","","","","","","","","","","","","",""
"","","","","","survey-text","26","127980","0.0-26.0","A1CB72B51L7TKE","2022-05-23T17:54:51.978Z","task_switching-rhyme-phon_sim-same_different","","2873.7999999523163","task_switching","{""subtraction_ans"":""65""}","experiment","68","subtraction","65","true","subtract","","","","","","","","","","","","","","","","","","","","","","","","","","","","","",""
"","","","","","survey-text","27","130759","0.0-27.0","A1CB72B51L7TKE","2022-05-23T17:54:51.978Z","task_switching-rhyme-phon_sim-same_different","","2775.300000011921","task_switching","{""subtraction_ans"":""89""}","experiment","92","subtraction","89","true","subtract","","","","","","","","","","","","","","","","","","","","","","","","","","","","","",""
"","","","","","survey-text","28","133159","0.0-28.0","A1CB72B51L7TKE","2022-05-23T17:54:51.978Z","task_switching-rhyme-phon_sim-same_different","","2397.5","task_switching","{""subtraction_ans"":""87""}","experiment","90","subtraction","87","true","subtract","","","","","","","","","","","","","","","","","","","","","","","","","","","","","",""
"","","","","","survey-text","29","138719","0.0-29.0","A1CB72B51L7TKE","2022-05-23T17:54:51.978Z","task_switching-rhyme-phon_sim-same_different","","5555.199999988079","task_switching","{""subtraction_ans"":""24""}","experiment","27","subtraction","24","true","subtract","","","","","","","","","","","","","","","","","","","","","","","","","","","","","",""
"","","","","","survey-text","30","140695","0.0-30.0","A1CB72B51L7TKE","2022-05-23T17:54:51.978Z","task_switching-rhyme-phon_sim-same_different","","1970.5999999642372","task_switching","{""subtraction_ans"":""74""}","experiment","77","subtraction","74","true","subtract","","","","","","","","","","","","","","","","","","","","","","","","","","","","","",""
"","","","","","survey-text","31","144423","0.0-31.0","A1CB72B51L7TKE","2022-05-23T17:54:51.978Z","task_switching-rhyme-phon_sim-same_different","","3723.900000035763","task_switching","{""subtraction_ans"":""49""}","experiment","52","subtraction","49","true","subtract","","","","","","","","","","","","","","","","","","","","","","","","","","","","","",""
"","","","","","survey-text","32","146455","0.0-32.0","A1CB72B51L7TKE","2022-05-23T17:54:51.978Z","task_switching-rhyme-phon_sim-same_different","","2026.300000011921","task_switching","{""subtraction_ans"":""27""}","experiment","30","subtraction","27","true","subtract","","","","","","","","","","","","","","","","","","","","","","","","","","","","","",""
"","","","","","survey-text","33","148235","0.0-33.0","A1CB72B51L7TKE","2022-05-23T17:54:51.978Z","task_switching-rhyme-phon_sim-same_different","","1776.2999999523163","task_switching","{""subtraction_ans"":""70""}","experiment","73","subtraction","70","true","subtract","","","","","","","","","","","","","","","","","","","","","","","","","","","","","",""
"","","","","","survey-text","34","150191","0.0-34.0","A1CB72B51L7TKE","2022-05-23T17:54:51.978Z","task_switching-rhyme-phon_sim-same_different","","1950.300000011921","task_switching","{""subtraction_ans"":""90""}","experiment","93","subtraction","90","true","subtract","","","","","","","","","","","","","","","","","","","","","","","","","","","","","",""
"","","","","","survey-text","35","152447","0.0-35.0","A1CB72B51L7TKE","2022-05-23T17:54:51.978Z","task_switching-rhyme-phon_sim-same_different","","2252.900000035763","task_switching","{""subtraction_ans"":""73""}","experiment","76","subtraction","73","true","subtract","","","","","","","","","","","","","","","","","","","","","","","","","","","","","",""
"","","","","","survey-text","36","154591","0.0-36.0","A1CB72B51L7TKE","2022-05-23T17:54:51.978Z","task_switching-rhyme-phon_sim-same_different","","2139","task_switching","{""subtraction_ans"":""36""}","experiment","39","subtraction","36","true","subtract","","","","","","","","","","","","","","","","","","","","","","","","","","","","","",""
"","","","","","survey-text","37","156536","0.0-37.0","A1CB72B51L7TKE","2022-05-23T17:54:51.978Z","task_switching-rhyme-phon_sim-same_different","","1941.300000011921","task_switching","{""subtraction_ans"":""56""}","experiment","59","subtraction","56","true","subtract","","","","","","","","","","","","","","","","","","","","","","","","","","","","","",""
"","","","","","survey-text","38","158319","0.0-38.0","A1CB72B51L7TKE","2022-05-23T17:54:51.978Z","task_switching-rhyme-phon_sim-same_different","","1777.199999988079","task_switching","{""subtraction_ans"":""70""}","experiment","83","subtraction","70","false","subtract","","","","","","","","","","","","","","","","","","","","","","","","","","","","","",""
"","","","","","survey-text","39","160639","0.0-39.0","A1CB72B51L7TKE","2022-05-23T17:54:51.978Z","task_switching-rhyme-phon_sim-same_different","","2316.800000011921","task_switching","{""subtraction_ans"":""81""}","experiment","84","subtraction","81","true","subtract","","","","","","","","","","","","","","","","","","","","","","","","","","","","","",""
"","","","","","survey-text","40","162336","0.0-40.0","A1CB72B51L7TKE","2022-05-23T17:54:51.978Z","task_switching-rhyme-phon_sim-same_different","","1693.5","task_switching","{""subtraction_ans"":""88""}","experiment","91","subtraction","88","true","subtract","","","","","","","","","","","","","","","","","","","","","","","","","","","","","",""
"","","","","","survey-text","41","164768","0.0-41.0","A1CB72B51L7TKE","2022-05-23T17:54:51.978Z","task_switching-rhyme-phon_sim-same_different","","2423.100000023842","task_switching","{""subtraction_ans"":""25""}","experiment","28","subtraction","25","true","subtract","","","","","","","","","","","","","","","","","","","","","","","","","","","","","",""
"","","","","","survey-text","42","166850","0.0-42.0","A1CB72B51L7TKE","2022-05-23T17:54:51.978Z","task_switching-rhyme-phon_sim-same_different","","2076.400000035763","task_switching","{""subtraction_ans"":""13""}","experiment","16","subtraction","13","true","subtract","","","","","","","","","","","","","","","","","","","","","","","","","","","","","",""
"","","","","","survey-text","43","168649","0.0-43.0","A1CB72B51L7TKE","2022-05-23T17:54:51.978Z","task_switching-rhyme-phon_sim-same_different","","1793.199999988079","task_switching","{""subtraction_ans"":""17""}","experiment","20","subtraction","17","true","subtract","","","","","","","","","","","","","","","","","","","","","","","","","","","","","",""
"","","","","","survey-text","44","170263","0.0-44.0","A1CB72B51L7TKE","2022-05-23T17:54:51.978Z","task_switching-rhyme-phon_sim-same_different","","1611.0999999642372","task_switching","{""subtraction_ans"":""85""}","experiment","88","subtraction","85","true","subtract","","","","","","","","","","","","","","","","","","","","","","","","","","","","","",""
"","","","","","survey-text","45","171816","0.0-45.0","A1CB72B51L7TKE","2022-05-23T17:54:51.978Z","task_switching-rhyme-phon_sim-same_different","","1549.199999988079","task_switching","{""subtraction_ans"":""33""}","experiment","36","subtraction","33","true","subtract","","","","","","","","","","","","","","","","","","","","","","","","","","","","","",""
"","","","","","survey-text","46","173743","0.0-46.0","A1CB72B51L7TKE","2022-05-23T17:54:51.978Z","task_switching-rhyme-phon_sim-same_different","","1920.8999999761581","task_switching","{""subtraction_ans"":""40""}","experiment","43","subtraction","40","true","subtract","","","","","","","","","","","","","","","","","","","","","","","","","","","","","",""
"","","","","","survey-text","47","175896","0.0-47.0","A1CB72B51L7TKE","2022-05-23T17:54:51.978Z","task_switching-rhyme-phon_sim-same_different","","2148.5","task_switching","{""subtraction_ans"":""26""}","experiment","29","subtraction","26","true","subtract","","","","","","","","","","","","","","","","","","","","","","","","","","","","","",""
"","","","","","survey-text","48","177728","0.0-48.0","A1CB72B51L7TKE","2022-05-23T17:54:51.978Z","task_switching-rhyme-phon_sim-same_different","","1826.6000000238419","task_switching","{""subtraction_ans"":""71""}","experiment","74","subtraction","71","true","subtract","","","","","","","","","","","","","","","","","","","","","","","","","","","","","",""
"","","","","","survey-text","49","179384","0.0-49.0","A1CB72B51L7TKE","2022-05-23T17:54:51.978Z","task_switching-rhyme-phon_sim-same_different","","1650.699999988079","task_switching","{""subtraction_ans"":""14""}","experiment","17","subtraction","14","true","subtract","","","","","","","","","","","","","","","","","","","","","","","","","","","","","",""
"","","","","","survey-text","50","180847","0.0-50.0","A1CB72B51L7TKE","2022-05-23T17:54:51.978Z","task_switching-rhyme-phon_sim-same_different","","1456.800000011921","task_switching","{""subtraction_ans"":""12""}","experiment","15","subtraction","12","true","subtract","","","","","","","","","","","","","","","","","","","","","","","","","","","","","",""
"","","","","","survey-text","51","182408","0.0-51.0","A1CB72B51L7TKE","2022-05-23T17:54:51.978Z","task_switching-rhyme-phon_sim-same_different","","1556.6000000238419","task_switching","{""subtraction_ans"":""51""}","experiment","54","subtraction","51","true","subtract","","","","","","","","","","","","","","","","","","","","","","","","","","","","","",""
"","","","","","survey-text","52","183983","0.0-52.0","A1CB72B51L7TKE","2022-05-23T17:54:51.978Z","task_switching-rhyme-phon_sim-same_different","","1570.2000000476837","task_switching","{""subtraction_ans"":""16""}","experiment","19","subtraction","16","true","subtract","","","","","","","","","","","","","","","","","","","","","","","","","","","","","",""
"","","","","","survey-text","53","185599","0.0-53.0","A1CB72B51L7TKE","2022-05-23T17:54:51.978Z","task_switching-rhyme-phon_sim-same_different","","1613","task_switching","{""subtraction_ans"":""45""}","experiment","48","subtraction","45","true","subtract","","","","","","","","","","","","","","","","","","","","","","","","","","","","","",""
"","","","","","survey-text","54","187296","0.0-54.0","A1CB72B51L7TKE","2022-05-23T17:54:51.978Z","task_switching-rhyme-phon_sim-same_different","","1694","task_switching","{""subtraction_ans"":""18""}","experiment","21","subtraction","18","true","subtract","","","","","","","","","","","","","","","","","","","","","","","","","","","","","",""
"","","","","","survey-text","55","188991","0.0-55.0","A1CB72B51L7TKE","2022-05-23T17:54:51.978Z","task_switching-rhyme-phon_sim-same_different","","1691.8999999761581","task_switching","{""subtraction_ans"":""44""}","experiment","47","subtraction","44","true","subtract","","","","","","","","","","","","","","","","","","","","","","","","","","","","","",""
"","","","","","instructions","56","192022","0.0-56.0","A1CB72B51L7TKE","2022-05-23T17:54:51.978Z","task_switching-rhyme-phon_sim-same_different","[{""page_index"":0,""viewing_time"":3029.900000035763}]","3030.400000035763","task_switching","","","","","","","","","","","","","","","","","","","","","","","","","","","","","","","","","","","","",""
"","","","","","survey-text","57","195511","0.0-57.0","A1CB72B51L7TKE","2022-05-23T17:54:51.978Z","task_switching-rhyme-phon_sim-same_different","","3484.2999999523163","task_switching","{""addition_ans"":""27""}","training","24","addition","27","true","add","","","","","","","","","","","","","","","","","","","","","","","","","","","","","",""
"","","","","","html-keyboard-response","58","196525","0.0-58.0","A1CB72B51L7TKE","2022-05-23T17:54:51.978Z","task_switching-rhyme-phon_sim-same_different","","null","task_switching","null","training","<div style=""color:darkgreen; font-size:60px"">Well done!</div>","addition","","","","","","","","","","","","","","","","","","","","","","","","","","","","","","","","",""
"","","","","","survey-text","59","198271","0.0-59.0","A1CB72B51L7TKE","2022-05-23T17:54:51.978Z","task_switching-rhyme-phon_sim-same_different","","1743.8999999761581","task_switching","{""addition_ans"":""36""}","training","33","addition","36","true","add","","","","","","","","","","","","","","","","","","","","","","","","","","","","","",""
"","","","","","html-keyboard-response","60","199276","0.0-60.0","A1CB72B51L7TKE","2022-05-23T17:54:51.978Z","task_switching-rhyme-phon_sim-same_different","","null","task_switching","null","training","<div style=""color:darkgreen; font-size:60px"">Well done!</div>","addition","","","","","","","","","","","","","","","","","","","","","","","","","","","","","","","","",""
"","","","","","survey-text","61","201055","0.0-61.0","A1CB72B51L7TKE","2022-05-23T17:54:51.978Z","task_switching-rhyme-phon_sim-same_different","","1776.5999999642372","task_switching","{""addition_ans"":""48""}","training","45","addition","48","true","add","","","","","","","","","","","","","","","","","","","","","","","","","","","","","",""
"","","","","","html-keyboard-response","62","202067","0.0-62.0","A1CB72B51L7TKE","2022-05-23T17:54:51.978Z","task_switching-rhyme-phon_sim-same_different","","null","task_switching","null","training","<div style=""color:darkgreen; font-size:60px"">Well done!</div>","addition","","","","","","","","","","","","","","","","","","","","","","","","","","","","","","","","",""
"","","","","","survey-text","63","203895","0.0-63.0","A1CB72B51L7TKE","2022-05-23T17:54:51.978Z","task_switching-rhyme-phon_sim-same_different","","1825.8999999761581","task_switching","{""addition_ans"":""68""}","training","65","addition","68","true","add","","","","","","","","","","","","","","","","","","","","","","","","","","","","","",""
"","","","","","html-keyboard-response","64","204910","0.0-64.0","A1CB72B51L7TKE","2022-05-23T17:54:51.978Z","task_switching-rhyme-phon_sim-same_different","","null","task_switching","null","training","<div style=""color:darkgreen; font-size:60px"">Well done!</div>","addition","","","","","","","","","","","","","","","","","","","","","","","","","","","","","","","","",""
"","","","","","survey-text","65","208375","0.0-65.0","A1CB72B51L7TKE","2022-05-23T17:54:51.978Z","task_switching-rhyme-phon_sim-same_different","","3461.800000011921","task_switching","{""addition_ans"":""96""}","training","93","addition","96","true","add","","","","","","","","","","","","","","","","","","","","","","","","","","","","","",""
"","","","","","html-keyboard-response","66","209380","0.0-66.0","A1CB72B51L7TKE","2022-05-23T17:54:51.978Z","task_switching-rhyme-phon_sim-same_different","","null","task_switching","null","training","<div style=""color:darkgreen; font-size:60px"">Well done!</div>","addition","","","","","","","","","","","","","","","","","","","","","","","","","","","","","","","","",""
"","","","","","survey-text","67","211311","0.0-67.0","A1CB72B51L7TKE","2022-05-23T17:54:51.978Z","task_switching-rhyme-phon_sim-same_different","","1927.8999999761581","task_switching","{""addition_ans"":""76""}","training","73","addition","76","true","add","","","","","","","","","","","","","","","","","","","","","","","","","","","","","",""
"","","","","","html-keyboard-response","68","212328","0.0-68.0","A1CB72B51L7TKE","2022-05-23T17:54:51.978Z","task_switching-rhyme-phon_sim-same_different","","null","task_switching","null","training","<div style=""color:darkgreen; font-size:60px"">Well done!</div>","addition","","","","","","","","","","","","","","","","","","","","","","","","","","","","","","","","",""
"","","","","","survey-text","69","214240","0.0-69.0","A1CB72B51L7TKE","2022-05-23T17:54:51.978Z","task_switching-rhyme-phon_sim-same_different","","1908.5","task_switching","{""addition_ans"":""82""}","training","79","addition","82","true","add","","","","","","","","","","","","","","","","","","","","","","","","","","","","","",""
"","","","","","html-keyboard-response","70","215252","0.0-70.0","A1CB72B51L7TKE","2022-05-23T17:54:51.978Z","task_switching-rhyme-phon_sim-same_different","","null","task_switching","null","training","<div style=""color:darkgreen; font-size:60px"">Well done!</div>","addition","","","","","","","","","","","","","","","","","","","","","","","","","","","","","","","","",""
"","","","","","survey-text","71","217462","0.0-71.0","A1CB72B51L7TKE","2022-05-23T17:54:51.978Z","task_switching-rhyme-phon_sim-same_different","","2207","task_switching","{""addition_ans"":""41""}","training","38","addition","41","true","add","","","","","","","","","","","","","","","","","","","","","","","","","","","","","",""
"","","","","","html-keyboard-response","72","218469","0.0-72.0","A1CB72B51L7TKE","2022-05-23T17:54:51.978Z","task_switching-rhyme-phon_sim-same_different","","null","task_switching","null","training","<div style=""color:darkgreen; font-size:60px"">Well done!</div>","addition","","","","","","","","","","","","","","","","","","","","","","","","","","","","","","","","",""
"","","","","","survey-text","73","220903","0.0-73.0","A1CB72B51L7TKE","2022-05-23T17:54:51.978Z","task_switching-rhyme-phon_sim-same_different","","2431.099999964237","task_switching","{""addition_ans"":""35""}","training","32","addition","35","true","add","","","","","","","","","","","","","","","","","","","","","","","","","","","","","",""
"","","","","","html-keyboard-response","74","221916","0.0-74.0","A1CB72B51L7TKE","2022-05-23T17:54:51.978Z","task_switching-rhyme-phon_sim-same_different","","null","task_switching","null","training","<div style=""color:darkgreen; font-size:60px"">Well done!</div>","addition","","","","","","","","","","","","","","","","","","","","","","","","","","","","","","","","",""
"","","","","","survey-text","75","223592","0.0-75.0","A1CB72B51L7TKE","2022-05-23T17:54:51.978Z","task_switching-rhyme-phon_sim-same_different","","1673.8999999761581","task_switching","{""addition_ans"":""44""}","training","41","addition","44","true","add","","","","","","","","","","","","","","","","","","","","","","","","","","","","","",""
"","","","","","html-keyboard-response","76","224609","0.0-76.0","A1CB72B51L7TKE","2022-05-23T17:54:51.978Z","task_switching-rhyme-phon_sim-same_different","","null","task_switching","null","training","<div style=""color:darkgreen; font-size:60px"">Well done!</div>","addition","","","","","","","","","","","","","","","","","","","","","","","","","","","","","","","","",""
"","","","","","instructions","77","226182","0.0-77.0","A1CB72B51L7TKE","2022-05-23T17:54:51.978Z","task_switching-rhyme-phon_sim-same_different","[{""page_index"":0,""viewing_time"":1572}]","1572.4000000357628","task_switching","","","","","","","","","","","","","","","","","","","","","","","","","","","","","","","","","","","","",""
"","","","","","survey-text","78","227831","0.0-78.0","A1CB72B51L7TKE","2022-05-23T17:54:51.978Z","task_switching-rhyme-phon_sim-same_different","","1646.1000000238419","task_switching","{""addition_ans"":""20""}","experiment","17","addition","20","true","add","","","","","","","","","","","","","","","","","","","","","","","","","","","","","",""
"","","","","","survey-text","79","230311","0.0-79.0","A1CB72B51L7TKE","2022-05-23T17:54:51.978Z","task_switching-rhyme-phon_sim-same_different","","2477.600000023842","task_switching","{""addition_ans"":""40""}","experiment","37","addition","40","true","add","","","","","","","","","","","","","","","","","","","","","","","","","","","","","",""
"","","","","","survey-text","80","232191","0.0-80.0","A1CB72B51L7TKE","2022-05-23T17:54:51.978Z","task_switching-rhyme-phon_sim-same_different","","1874.800000011921","task_switching","{""addition_ans"":""34""}","experiment","31","addition","34","true","add","","","","","","","","","","","","","","","","","","","","","","","","","","","","","",""
"","","","","","survey-text","81","233543","0.0-81.0","A1CB72B51L7TKE","2022-05-23T17:54:51.978Z","task_switching-rhyme-phon_sim-same_different","","1345.9000000357628","task_switching","{""addition_ans"":""13""}","experiment","10","addition","13","true","add","","","","","","","","","","","","","","","","","","","","","","","","","","","","","",""
"","","","","","survey-text","82","235023","0.0-82.0","A1CB72B51L7TKE","2022-05-23T17:54:51.978Z","task_switching-rhyme-phon_sim-same_different","","1475.1000000238419","task_switching","{""addition_ans"":""50""}","experiment","47","addition","50","true","add","","","","","","","","","","","","","","","","","","","","","","","","","","","","","",""
"","","","","","survey-text","83","236752","0.0-83.0","A1CB72B51L7TKE","2022-05-23T17:54:51.978Z","task_switching-rhyme-phon_sim-same_different","","1722.7000000476837","task_switching","{""addition_ans"":""77""}","experiment","74","addition","77","true","add","","","","","","","","","","","","","","","","","","","","","","","","","","","","","",""
"","","","","","survey-text","84","238759","0.0-84.0","A1CB72B51L7TKE","2022-05-23T17:54:51.978Z","task_switching-rhyme-phon_sim-same_different","","2001.7999999523163","task_switching","{""addition_ans"":""76""}","experiment","73","addition","76","true","add","","","","","","","","","","","","","","","","","","","","","","","","","","","","","",""
"","","","","","survey-text","85","240559","0.0-85.0","A1CB72B51L7TKE","2022-05-23T17:54:51.978Z","task_switching-rhyme-phon_sim-same_different","","1797.9000000357628","task_switching","{""addition_ans"":""98""}","experiment","95","addition","98","true","add","","","","","","","","","","","","","","","","","","","","","","","","","","","","","",""
"","","","","","survey-text","86","242382","0.0-86.0","A1CB72B51L7TKE","2022-05-23T17:54:51.978Z","task_switching-rhyme-phon_sim-same_different","","1818.8999999761581","task_switching","{""addition_ans"":""57""}","experiment","54","addition","57","true","add","","","","","","","","","","","","","","","","","","","","","","","","","","","","","",""
"","","","","","survey-text","87","244670","0.0-87.0","A1CB72B51L7TKE","2022-05-23T17:54:51.978Z","task_switching-rhyme-phon_sim-same_different","","2285.800000011921","task_switching","{""addition_ans"":""60""}","experiment","57","addition","60","true","add","","","","","","","","","","","","","","","","","","","","","","","","","","","","","",""
"","","","","","survey-text","88","246582","0.0-88.0","A1CB72B51L7TKE","2022-05-23T17:54:51.978Z","task_switching-rhyme-phon_sim-same_different","","1908.699999988079","task_switching","{""addition_ans"":""16""}","experiment","13","addition","16","true","add","","","","","","","","","","","","","","","","","","","","","","","","","","","","","",""
"","","","","","survey-text","89","248903","0.0-89.0","A1CB72B51L7TKE","2022-05-23T17:54:51.978Z","task_switching-rhyme-phon_sim-same_different","","2317.5","task_switching","{""addition_ans"":""29""}","experiment","26","addition","29","true","add","","","","","","","","","","","","","","","","","","","","","","","","","","","","","",""
"","","","","","survey-text","90","250728","0.0-90.0","A1CB72B51L7TKE","2022-05-23T17:54:51.978Z","task_switching-rhyme-phon_sim-same_different","","1819.9000000357628","task_switching","{""addition_ans"":""26""}","experiment","23","addition","26","true","add","","","","","","","","","","","","","","","","","","","","","","","","","","","","","",""
"","","","","","survey-text","91","253087","0.0-91.0","A1CB72B51L7TKE","2022-05-23T17:54:51.978Z","task_switching-rhyme-phon_sim-same_different","","2355.5","task_switching","{""addition_ans"":""46""}","experiment","43","addition","46","true","add","","","","","","","","","","","","","","","","","","","","","","","","","","","","","",""
"","","","","","survey-text","92","254935","0.0-92.0","A1CB72B51L7TKE","2022-05-23T17:54:51.978Z","task_switching-rhyme-phon_sim-same_different","","1842.6000000238419","task_switching","{""addition_ans"":""97""}","experiment","94","addition","97","true","add","","","","","","","","","","","","","","","","","","","","","","","","","","","","","",""
"","","","","","survey-text","93","256830","0.0-93.0","A1CB72B51L7TKE","2022-05-23T17:54:51.978Z","task_switching-rhyme-phon_sim-same_different","","1890.4000000357628","task_switching","{""addition_ans"":""85""}","experiment","82","addition","85","true","add","","","","","","","","","","","","","","","","","","","","","","","","","","","","","",""
"","","","","","survey-text","94","258574","0.0-94.0","A1CB72B51L7TKE","2022-05-23T17:54:51.978Z","task_switching-rhyme-phon_sim-same_different","","1741.1000000238419","task_switching","{""addition_ans"":""30""}","experiment","27","addition","30","true","add","","","","","","","","","","","","","","","","","","","","","","","","","","","","","",""
"","","","","","survey-text","95","260175","0.0-95.0","A1CB72B51L7TKE","2022-05-23T17:54:51.978Z","task_switching-rhyme-phon_sim-same_different","","1597.4000000357628","task_switching","{""addition_ans"":""24""}","experiment","21","addition","24","true","add","","","","","","","","","","","","","","","","","","","","","","","","","","","","","",""
"","","","","","survey-text","96","262270","0.0-96.0","A1CB72B51L7TKE","2022-05-23T17:54:51.978Z","task_switching-rhyme-phon_sim-same_different","","2090.399999976158","task_switching","{""addition_ans"":""63""}","experiment","60","addition","63","true","add","","","","","","","","","","","","","","","","","","","","","","","","","","","","","",""
"","","","","","survey-text","97","264486","0.0-97.0","A1CB72B51L7TKE","2022-05-23T17:54:51.978Z","task_switching-rhyme-phon_sim-same_different","","2212.2000000476837","task_switching","{""addition_ans"":""36""}","experiment","33","addition","36","true","add","","","","","","","","","","","","","","","","","","","","","","","","","","","","","",""
"","","","","","survey-text","98","266486","0.0-98.0","A1CB72B51L7TKE","2022-05-23T17:54:51.978Z","task_switching-rhyme-phon_sim-same_different","","1996.7999999523163","task_switching","{""addition_ans"":""62""}","experiment","59","addition","62","true","add","","","","","","","","","","","","","","","","","","","","","","","","","","","","","",""
"","","","","","survey-text","99","268575","0.0-99.0","A1CB72B51L7TKE","2022-05-23T17:54:51.978Z","task_switching-rhyme-phon_sim-same_different","","2084.900000035763","task_switching","{""addition_ans"":""95""}","experiment","92","addition","95","true","add","","","","","","","","","","","","","","","","","","","","","","","","","","","","","",""
"","","","","","survey-text","100","270487","0.0-100.0","A1CB72B51L7TKE","2022-05-23T17:54:51.978Z","task_switching-rhyme-phon_sim-same_different","","1905.199999988079","task_switching","{""addition_ans"":""61""}","experiment","58","addition","61","true","add","","","","","","","","","","","","","","","","","","","","","","","","","","","","","",""
"","","","","","survey-text","101","272299","0.0-101.0","A1CB72B51L7TKE","2022-05-23T17:54:51.978Z","task_switching-rhyme-phon_sim-same_different","","1806","task_switching","{""addition_ans"":""44""}","experiment","41","addition","44","true","add","","","","","","","","","","","","","","","","","","","","","","","","","","","","","",""
"","","","","","survey-text","102","274350","0.0-102.0","A1CB72B51L7TKE","2022-05-23T17:54:51.978Z","task_switching-rhyme-phon_sim-same_different","","2046.7000000476837","task_switching","{""addition_ans"":""27""}","experiment","24","addition","27","true","add","","","","","","","","","","","","","","","","","","","","","","","","","","","","","",""
"","","","","","survey-text","103","276951","0.0-103.0","A1CB72B51L7TKE","2022-05-23T17:54:51.978Z","task_switching-rhyme-phon_sim-same_different","","2597.699999988079","task_switching","{""addition_ans"":""89""}","experiment","86","addition","89","true","add","","","","","","","","","","","","","","","","","","","","","","","","","","","","","",""
"","","","","","survey-text","104","278558","0.0-104.0","A1CB72B51L7TKE","2022-05-23T17:54:51.978Z","task_switching-rhyme-phon_sim-same_different","","1601.3999999761581","task_switching","{""addition_ans"":""45""}","experiment","42","addition","45","true","add","","","","","","","","","","","","","","","","","","","","","","","","","","","","","",""
"","","","","","survey-text","105","280143","0.0-105.0","A1CB72B51L7TKE","2022-05-23T17:54:51.978Z","task_switching-rhyme-phon_sim-same_different","","1581.300000011921","task_switching","{""addition_ans"":""47""}","experiment","44","addition","47","true","add","","","","","","","","","","","","","","","","","","","","","","","","","","","","","",""
"","","","","","survey-text","106","282095","0.0-106.0","A1CB72B51L7TKE","2022-05-23T17:54:51.978Z","task_switching-rhyme-phon_sim-same_different","","1947.6000000238419","task_switching","{""addition_ans"":""41""}","experiment","38","addition","41","true","add","","","","","","","","","","","","","","","","","","","","","","","","","","","","","",""
"","","","","","survey-text","107","1639621","0.0-107.0","A1CB72B51L7TKE","2022-05-23T17:54:51.978Z","task_switching-rhyme-phon_sim-same_different","","1357521.5999999642","task_switching","{""addition_ans"":""51""}","experiment","48","addition","51","true","add","","","","","","","","","","","","","","","","","","","","","","","","","","","","","",""
"","","","","","instructions","108","1788082","0.0-108.0","A1CB72B51L7TKE","2022-05-23T17:54:51.978Z","task_switching-rhyme-phon_sim-same_different","[{""page_index"":0,""viewing_time"":148459.5}]","148460.5","task_switching","","","","","","","","","","","","","","","","","","","","","","","","","","","","","","","","","","","","",""
"","","","","","survey-text","109","1791781","0.0-109.0","A1CB72B51L7TKE","2022-05-23T17:54:51.978Z","task_switching-rhyme-phon_sim-same_different","","3694.600000023842","task_switching","{""uncued_switch_ans"":""24""}","training","21","uncued_switch","24","true","add","0","","","","","","","","","","","","","","","","","","","","","","","","","","","","",""
"","","","","","html-keyboard-response","110","1792797","0.0-110.0","A1CB72B51L7TKE","2022-05-23T17:54:51.978Z","task_switching-rhyme-phon_sim-same_different","","null","task_switching","null","training","<div style=""color:darkgreen; font-size:60px"">Well done!</div>","uncued_switch","","","","","","","","","","","","","","","","","","","","","","","","","","","","","","","","",""
"","","","","","survey-text","111","1795525","0.0-111.0","A1CB72B51L7TKE","2022-05-23T17:54:51.978Z","task_switching-rhyme-phon_sim-same_different","","2724.5","task_switching","{""uncued_switch_ans"":""85""}","training","88","uncued_switch","85","true","subtract","1","","","","","","","","","","","","","","","","","","","","","","","","","","","","",""
"","","","","","html-keyboard-response","112","1796537","0.0-112.0","A1CB72B51L7TKE","2022-05-23T17:54:51.978Z","task_switching-rhyme-phon_sim-same_different","","null","task_switching","null","training","<div style=""color:darkgreen; font-size:60px"">Well done!</div>","uncued_switch","","","","","","","","","","","","","","","","","","","","","","","","","","","","","","","","",""
"","","","","","survey-text","113","1798798","0.0-113.0","A1CB72B51L7TKE","2022-05-23T17:54:51.978Z","task_switching-rhyme-phon_sim-same_different","","2256.399999976158","task_switching","{""uncued_switch_ans"":""73""}","training","70","uncued_switch","73","true","add","2","","","","","","","","","","","","","","","","","","","","","","","","","","","","",""
"","","","","","html-keyboard-response","114","1799813","0.0-114.0","A1CB72B51L7TKE","2022-05-23T17:54:51.978Z","task_switching-rhyme-phon_sim-same_different","","null","task_switching","null","training","<div style=""color:darkgreen; font-size:60px"">Well done!</div>","uncued_switch","","","","","","","","","","","","","","","","","","","","","","","","","","","","","","","","",""
"","","","","","survey-text","115","1801805","0.0-115.0","A1CB72B51L7TKE","2022-05-23T17:54:51.978Z","task_switching-rhyme-phon_sim-same_different","","1988.199999988079","task_switching","{""uncued_switch_ans"":""70""}","training","73","uncued_switch","70","true","subtract","3","","","","","","","","","","","","","","","","","","","","","","","","","","","","",""
"","","","","","html-keyboard-response","116","1802816","0.0-116.0","A1CB72B51L7TKE","2022-05-23T17:54:51.978Z","task_switching-rhyme-phon_sim-same_different","","null","task_switching","null","training","<div style=""color:darkgreen; font-size:60px"">Well done!</div>","uncued_switch","","","","","","","","","","","","","","","","","","","","","","","","","","","","","","","","",""
"","","","","","survey-text","117","1804700","0.0-117.0","A1CB72B51L7TKE","2022-05-23T17:54:51.978Z","task_switching-rhyme-phon_sim-same_different","","1882.300000011921","task_switching","{""uncued_switch_ans"":""50""}","training","47","uncued_switch","50","true","add","4","","","","","","","","","","","","","","","","","","","","","","","","","","","","",""
"","","","","","html-keyboard-response","118","1805709","0.0-118.0","A1CB72B51L7TKE","2022-05-23T17:54:51.978Z","task_switching-rhyme-phon_sim-same_different","","null","task_switching","null","training","<div style=""color:darkgreen; font-size:60px"">Well done!</div>","uncued_switch","","","","","","","","","","","","","","","","","","","","","","","","","","","","","","","","",""
"","","","","","survey-text","119","1807540","0.0-119.0","A1CB72B51L7TKE","2022-05-23T17:54:51.978Z","task_switching-rhyme-phon_sim-same_different","","1828.5999999642372","task_switching","{""uncued_switch_ans"":""30""}","training","33","uncued_switch","30","true","subtract","5","","","","","","","","","","","","","","","","","","","","","","","","","","","","",""
"","","","","","html-keyboard-response","120","1808549","0.0-120.0","A1CB72B51L7TKE","2022-05-23T17:54:51.978Z","task_switching-rhyme-phon_sim-same_different","","null","task_switching","null","training","<div style=""color:darkgreen; font-size:60px"">Well done!</div>","uncued_switch","","","","","","","","","","","","","","","","","","","","","","","","","","","","","","","","",""
"","","","","","survey-text","121","1810525","0.0-121.0","A1CB72B51L7TKE","2022-05-23T17:54:51.978Z","task_switching-rhyme-phon_sim-same_different","","1973.699999988079","task_switching","{""uncued_switch_ans"":""43""}","training","40","uncued_switch","43","true","add","6","","","","","","","","","","","","","","","","","","","","","","","","","","","","",""
"","","","","","html-keyboard-response","122","1811530","0.0-122.0","A1CB72B51L7TKE","2022-05-23T17:54:51.978Z","task_switching-rhyme-phon_sim-same_different","","null","task_switching","null","training","<div style=""color:darkgreen; font-size:60px"">Well done!</div>","uncued_switch","","","","","","","","","","","","","","","","","","","","","","","","","","","","","","","","",""
"","","","","","survey-text","123","1813516","0.0-123.0","A1CB72B51L7TKE","2022-05-23T17:54:51.978Z","task_switching-rhyme-phon_sim-same_different","","1983","task_switching","{""uncued_switch_ans"":""59""}","training","62","uncued_switch","59","true","subtract","7","","","","","","","","","","","","","","","","","","","","","","","","","","","","",""
"","","","","","html-keyboard-response","124","1814529","0.0-124.0","A1CB72B51L7TKE","2022-05-23T17:54:51.978Z","task_switching-rhyme-phon_sim-same_different","","null","task_switching","null","training","<div style=""color:darkgreen; font-size:60px"">Well done!</div>","uncued_switch","","","","","","","","","","","","","","","","","","","","","","","","","","","","","","","","",""
"","","","","","survey-text","125","1816468","0.0-125.0","A1CB72B51L7TKE","2022-05-23T17:54:51.978Z","task_switching-rhyme-phon_sim-same_different","","1936.8999999761581","task_switching","{""uncued_switch_ans"":""49""}","training","46","uncued_switch","49","true","add","8","","","","","","","","","","","","","","","","","","","","","","","","","","","","",""
"","","","","","html-keyboard-response","126","1817478","0.0-126.0","A1CB72B51L7TKE","2022-05-23T17:54:51.978Z","task_switching-rhyme-phon_sim-same_different","","null","task_switching","null","training","<div style=""color:darkgreen; font-size:60px"">Well done!</div>","uncued_switch","","","","","","","","","","","","","","","","","","","","","","","","","","","","","","","","",""
"","","","","","survey-text","127","1819109","0.0-127.0","A1CB72B51L7TKE","2022-05-23T17:54:51.978Z","task_switching-rhyme-phon_sim-same_different","","1628.5","task_switching","{""uncued_switch_ans"":""52""}","training","55","uncued_switch","52","true","subtract","9","","","","","","","","","","","","","","","","","","","","","","","","","","","","",""
"","","","","","html-keyboard-response","128","1820117","0.0-128.0","A1CB72B51L7TKE","2022-05-23T17:54:51.978Z","task_switching-rhyme-phon_sim-same_different","","null","task_switching","null","training","<div style=""color:darkgreen; font-size:60px"">Well done!</div>","uncued_switch","","","","","","","","","","","","","","","","","","","","","","","","","","","","","","","","",""
"","","","","","instructions","129","1824749","0.0-129.0","A1CB72B51L7TKE","2022-05-23T17:54:51.978Z","task_switching-rhyme-phon_sim-same_different","[{""page_index"":0,""viewing_time"":4631.300000011921}]","4631.5","task_switching","","","","","","","","","","","","","","","","","","","","","","","","","","","","","","","","","","","","",""
"","","","","","survey-text","130","1826628","0.0-130.0","A1CB72B51L7TKE","2022-05-23T17:54:51.978Z","task_switching-rhyme-phon_sim-same_different","","1877","task_switching","{""uncued_switch_ans"":""42""}","experiment","39","uncued_switch","42","true","add","0","","","","","","","","","","","","","","","","","","","","","","","","","","","","",""
"","","","","","survey-text","131","1828669","0.0-131.0","A1CB72B51L7TKE","2022-05-23T17:54:51.978Z","task_switching-rhyme-phon_sim-same_different","","2037.1000000238419","task_switching","{""uncued_switch_ans"":""53""}","experiment","56","uncued_switch","53","true","subtract","1","","","","","","","","","","","","","","","","","","","","","","","","","","","","",""
"","","","","","survey-text","132","1830628","0.0-132.0","A1CB72B51L7TKE","2022-05-23T17:54:51.978Z","task_switching-rhyme-phon_sim-same_different","","1952.800000011921","task_switching","{""uncued_switch_ans"":""57""}","experiment","54","uncued_switch","57","true","add","2","","","","","","","","","","","","","","","","","","","","","","","","","","","","",""
"","","","","","survey-text","133","1832477","0.0-133.0","A1CB72B51L7TKE","2022-05-23T17:54:51.978Z","task_switching-rhyme-phon_sim-same_different","","1845","task_switching","{""uncued_switch_ans"":""72""}","experiment","75","uncued_switch","72","true","subtract","3","","","","","","","","","","","","","","","","","","","","","","","","","","","","",""
"","","","","","survey-text","134","1834845","0.0-134.0","A1CB72B51L7TKE","2022-05-23T17:54:51.978Z","task_switching-rhyme-phon_sim-same_different","","2363","task_switching","{""uncued_switch_ans"":""91""}","experiment","88","uncued_switch","91","true","add","4","","","","","","","","","","","","","","","","","","","","","","","","","","","","",""
"","","","","","survey-text","135","1836814","0.0-135.0","A1CB72B51L7TKE","2022-05-23T17:54:51.978Z","task_switching-rhyme-phon_sim-same_different","","1964.7000000476837","task_switching","{""uncued_switch_ans"":""55""}","experiment","58","uncued_switch","55","true","subtract","5","","","","","","","","","","","","","","","","","","","","","","","","","","","","",""
"","","","","","survey-text","136","1838796","0.0-136.0","A1CB72B51L7TKE","2022-05-23T17:54:51.978Z","task_switching-rhyme-phon_sim-same_different","","1977.800000011921","task_switching","{""uncued_switch_ans"":""49""}","experiment","46","uncued_switch","49","true","add","6","","","","","","","","","","","","","","","","","","","","","","","","","","","","",""
"","","","","","survey-text","137","1840596","0.0-137.0","A1CB72B51L7TKE","2022-05-23T17:54:51.978Z","task_switching-rhyme-phon_sim-same_different","","1796.7999999523163","task_switching","{""uncued_switch_ans"":""74""}","experiment","77","uncued_switch","74","true","subtract","7","","","","","","","","","","","","","","","","","","","","","","","","","","","","",""
"","","","","","survey-text","138","1843221","0.0-138.0","A1CB72B51L7TKE","2022-05-23T17:54:51.978Z","task_switching-rhyme-phon_sim-same_different","","2620.7999999523163","task_switching","{""uncued_switch_ans"":""35""}","experiment","32","uncued_switch","35","true","add","8","","","","","","","","","","","","","","","","","","","","","","","","","","","","",""
"","","","","","survey-text","139","1845325","0.0-139.0","A1CB72B51L7TKE","2022-05-23T17:54:51.978Z","task_switching-rhyme-phon_sim-same_different","","2100.599999964237","task_switching","{""uncued_switch_ans"":""58""}","experiment","61","uncued_switch","58","true","subtract","9","","","","","","","","","","","","","","","","","","","","","","","","","","","","",""
"","","","","","survey-text","140","1847125","0.0-140.0","A1CB72B51L7TKE","2022-05-23T17:54:51.978Z","task_switching-rhyme-phon_sim-same_different","","1795.5","task_switching","{""uncued_switch_ans"":""17""}","experiment","14","uncued_switch","17","true","add","10","","","","","","","","","","","","","","","","","","","","","","","","","","","","",""
"","","","","","survey-text","141","1848676","0.0-141.0","A1CB72B51L7TKE","2022-05-23T17:54:51.978Z","task_switching-rhyme-phon_sim-same_different","","1543.800000011921","task_switching","{""uncued_switch_ans"":""52""}","experiment","55","uncued_switch","52","true","subtract","11","","","","","","","","","","","","","","","","","","","","","","","","","","","","",""
"","","","","","survey-text","142","1850468","0.0-142.0","A1CB72B51L7TKE","2022-05-23T17:54:51.978Z","task_switching-rhyme-phon_sim-same_different","","1789.199999988079","task_switching","{""uncued_switch_ans"":""90""}","experiment","87","uncued_switch","90","true","add","12","","","","","","","","","","","","","","","","","","","","","","","","","","","","",""
"","","","","","survey-text","143","1852820","0.0-143.0","A1CB72B51L7TKE","2022-05-23T17:54:51.978Z","task_switching-rhyme-phon_sim-same_different","","2348.800000011921","task_switching","{""uncued_switch_ans"":""82""}","experiment","85","uncued_switch","82","true","subtract","13","","","","","","","","","","","","","","","","","","","","","","","","","","","","",""
"","","","","","survey-text","144","1854237","0.0-144.0","A1CB72B51L7TKE","2022-05-23T17:54:51.978Z","task_switching-rhyme-phon_sim-same_different","","1413.3999999761581","task_switching","{""uncued_switch_ans"":""22""}","experiment","19","uncued_switch","22","true","add","14","","","","","","","","","","","","","","","","","","","","","","","","","","","","",""
"","","","","","survey-text","145","1856053","0.0-145.0","A1CB72B51L7TKE","2022-05-23T17:54:51.978Z","task_switching-rhyme-phon_sim-same_different","","1813","task_switching","{""uncued_switch_ans"":""90""}","experiment","93","uncued_switch","90","true","subtract","15","","","","","","","","","","","","","","","","","","","","","","","","","","","","",""
"","","","","","survey-text","146","1858093","0.0-146.0","A1CB72B51L7TKE","2022-05-23T17:54:51.978Z","task_switching-rhyme-phon_sim-same_different","","2036.3999999761581","task_switching","{""uncued_switch_ans"":""50""}","experiment","47","uncued_switch","50","true","add","16","","","","","","","","","","","","","","","","","","","","","","","","","","","","",""
"","","","","","survey-text","147","1860012","0.0-147.0","A1CB72B51L7TKE","2022-05-23T17:54:51.978Z","task_switching-rhyme-phon_sim-same_different","","1917.1000000238419","task_switching","{""uncued_switch_ans"":""86""}","experiment","89","uncued_switch","86","true","subtract","17","","","","","","","","","","","","","","","","","","","","","","","","","","","","",""
"","","","","","survey-text","148","1861804","0.0-148.0","A1CB72B51L7TKE","2022-05-23T17:54:51.978Z","task_switching-rhyme-phon_sim-same_different","","1787.5","task_switching","{""uncued_switch_ans"":""89""}","experiment","86","uncued_switch","89","true","add","18","","","","","","","","","","","","","","","","","","","","","","","","","","","","",""
"","","","","","survey-text","149","1863933","0.0-149.0","A1CB72B51L7TKE","2022-05-23T17:54:51.978Z","task_switching-rhyme-phon_sim-same_different","","2125.199999988079","task_switching","{""uncued_switch_ans"":""61""}","experiment","64","uncued_switch","61","true","subtract","19","","","","","","","","","","","","","","","","","","","","","","","","","","","","",""
"","","","","","survey-text","150","1866140","0.0-150.0","A1CB72B51L7TKE","2022-05-23T17:54:51.978Z","task_switching-rhyme-phon_sim-same_different","","2201.300000011921","task_switching","{""uncued_switch_ans"":""37""}","experiment","34","uncued_switch","37","true","add","20","","","","","","","","","","","","","","","","","","","","","","","","","","","","",""
"","","","","","survey-text","151","1867917","0.0-151.0","A1CB72B51L7TKE","2022-05-23T17:54:51.978Z","task_switching-rhyme-phon_sim-same_different","","1772.300000011921","task_switching","{""uncued_switch_ans"":""30""}","experiment","33","uncued_switch","30","true","subtract","21","","","","","","","","","","","","","","","","","","","","","","","","","","","","",""
"","","","","","survey-text","152","1869716","0.0-152.0","A1CB72B51L7TKE","2022-05-23T17:54:51.978Z","task_switching-rhyme-phon_sim-same_different","","1797","task_switching","{""uncued_switch_ans"":""47""}","experiment","44","uncued_switch","47","true","add","22","","","","","","","","","","","","","","","","","","","","","","","","","","","","",""
"","","","","","survey-text","153","1871220","0.0-153.0","A1CB72B51L7TKE","2022-05-23T17:54:51.978Z","task_switching-rhyme-phon_sim-same_different","","1501","task_switching","{""uncued_switch_ans"":""12""}","experiment","15","uncued_switch","12","true","subtract","23","","","","","","","","","","","","","","","","","","","","","","","","","","","","",""
"","","","","","survey-text","154","1873764","0.0-154.0","A1CB72B51L7TKE","2022-05-23T17:54:51.978Z","task_switching-rhyme-phon_sim-same_different","","2539.399999976158","task_switching","{""uncued_switch_ans"":""85""}","experiment","82","uncued_switch","85","true","add","24","","","","","","","","","","","","","","","","","","","","","","","","","","","","",""
"","","","","","survey-text","155","1875862","0.0-155.0","A1CB72B51L7TKE","2022-05-23T17:54:51.978Z","task_switching-rhyme-phon_sim-same_different","","2093.600000023842","task_switching","{""uncued_switch_ans"":""42""}","experiment","45","uncued_switch","42","true","subtract","25","","","","","","","","","","","","","","","","","","","","","","","","","","","","",""
"","","","","","survey-text","156","1878069","0.0-156.0","A1CB72B51L7TKE","2022-05-23T17:54:51.978Z","task_switching-rhyme-phon_sim-same_different","","2201.199999988079","task_switching","{""uncued_switch_ans"":""87""}","experiment","84","uncued_switch","87","true","add","26","","","","","","","","","","","","","","","","","","","","","","","","","","","","",""
"","","","","","survey-text","157","1879909","0.0-157.0","A1CB72B51L7TKE","2022-05-23T17:54:51.978Z","task_switching-rhyme-phon_sim-same_different","","1836.8999999761581","task_switching","{""uncued_switch_ans"":""19""}","experiment","22","uncued_switch","19","true","subtract","27","","","","","","","","","","","","","","","","","","","","","","","","","","","","",""
"","","","","","survey-text","158","1882365","0.0-158.0","A1CB72B51L7TKE","2022-05-23T17:54:51.978Z","task_switching-rhyme-phon_sim-same_different","","2452.699999988079","task_switching","{""uncued_switch_ans"":""84""}","experiment","81","uncued_switch","84","true","add","28","","","","","","","","","","","","","","","","","","","","","","","","","","","","",""
"","","","","","survey-text","159","1884357","0.0-159.0","A1CB72B51L7TKE","2022-05-23T17:54:51.978Z","task_switching-rhyme-phon_sim-same_different","","1986.1000000238419","task_switching","{""uncued_switch_ans"":""80""}","experiment","83","uncued_switch","80","true","subtract","29","","","","","","","","","","","","","","","","","","","","","","","","","","","","",""
"","","","","","instructions","160","1893345","0.0-160.0","A1CB72B51L7TKE","2022-05-23T17:54:51.978Z","task_switching-rhyme-phon_sim-same_different","[{""page_index"":0,""viewing_time"":8987.5}]","8987.799999952316","task_switching","","","","","","","","","","","","","","","","","","","","","","","","","","","","","","","","","","","","",""
"","","","","","survey-text","161","1895348","0.0-161.0","A1CB72B51L7TKE","2022-05-23T17:54:51.978Z","task_switching-rhyme-phon_sim-same_different","","1999.1000000238419","task_switching","{""colorcue_switch_ans"":""70""}","training","67","colorcue_switch","70","true","add","0","red","","","","","","","","","","","","","","","","","","","","","","","","","","","",""
"","","","","","html-keyboard-response","162","1896362","0.0-162.0","A1CB72B51L7TKE","2022-05-23T17:54:51.978Z","task_switching-rhyme-phon_sim-same_different","","null","task_switching","null","training","<div style=""color:darkgreen; font-size:60px"">Well done!</div>","colorcue_switch","","","","","","","","","","","","","","","","","","","","","","","","","","","","","","","","",""
"","","","","","survey-text","163","1898164","0.0-163.0","A1CB72B51L7TKE","2022-05-23T17:54:51.978Z","task_switching-rhyme-phon_sim-same_different","","1799.699999988079","task_switching","{""colorcue_switch_ans"":""59""}","training","62","colorcue_switch","59","true","subtract","1","blue","","","","","","","","","","","","","","","","","","","","","","","","","","","",""
"","","","","","html-keyboard-response","164","1899169","0.0-164.0","A1CB72B51L7TKE","2022-05-23T17:54:51.978Z","task_switching-rhyme-phon_sim-same_different","","null","task_switching","null","training","<div style=""color:darkgreen; font-size:60px"">Well done!</div>","colorcue_switch","","","","","","","","","","","","","","","","","","","","","","","","","","","","","","","","",""
"","","","","","survey-text","165","1900901","0.0-165.0","A1CB72B51L7TKE","2022-05-23T17:54:51.978Z","task_switching-rhyme-phon_sim-same_different","","1729.8999999761581","task_switching","{""colorcue_switch_ans"":""91""}","training","88","colorcue_switch","91","true","add","2","red","","","","","","","","","","","","","","","","","","","","","","","","","","","",""
"","","","","","html-keyboard-response","166","1901913","0.0-166.0","A1CB72B51L7TKE","2022-05-23T17:54:51.978Z","task_switching-rhyme-phon_sim-same_different","","null","task_switching","null","training","<div style=""color:darkgreen; font-size:60px"">Well done!</div>","colorcue_switch","","","","","","","","","","","","","","","","","","","","","","","","","","","","","","","","",""
"","","","","","survey-text","167","1903613","0.0-167.0","A1CB72B51L7TKE","2022-05-23T17:54:51.978Z","task_switching-rhyme-phon_sim-same_different","","1696.8999999761581","task_switching","{""colorcue_switch_ans"":""56""}","training","59","colorcue_switch","56","true","subtract","3","blue","","","","","","","","","","","","","","","","","","","","","","","","","","","",""
"","","","","","html-keyboard-response","168","1904630","0.0-168.0","A1CB72B51L7TKE","2022-05-23T17:54:51.978Z","task_switching-rhyme-phon_sim-same_different","","null","task_switching","null","training","<div style=""color:darkgreen; font-size:60px"">Well done!</div>","colorcue_switch","","","","","","","","","","","","","","","","","","","","","","","","","","","","","","","","",""
"","","","","","survey-text","169","1906925","0.0-169.0","A1CB72B51L7TKE","2022-05-23T17:54:51.978Z","task_switching-rhyme-phon_sim-same_different","","2292","task_switching","{""colorcue_switch_ans"":""38""}","training","35","colorcue_switch","38","true","add","4","red","","","","","","","","","","","","","","","","","","","","","","","","","","","",""
"","","","","","html-keyboard-response","170","1907939","0.0-170.0","A1CB72B51L7TKE","2022-05-23T17:54:51.978Z","task_switching-rhyme-phon_sim-same_different","","null","task_switching","null","training","<div style=""color:darkgreen; font-size:60px"">Well done!</div>","colorcue_switch","","","","","","","","","","","","","","","","","","","","","","","","","","","","","","","","",""
"","","","","","survey-text","171","1910021","0.0-171.0","A1CB72B51L7TKE","2022-05-23T17:54:51.978Z","task_switching-rhyme-phon_sim-same_different","","2079.099999964237","task_switching","{""colorcue_switch_ans"":""21""}","training","24","colorcue_switch","21","true","subtract","5","blue","","","","","","","","","","","","","","","","","","","","","","","","","","","",""
"","","","","","html-keyboard-response","172","1911034","0.0-172.0","A1CB72B51L7TKE","2022-05-23T17:54:51.978Z","task_switching-rhyme-phon_sim-same_different","","null","task_switching","null","training","<div style=""color:darkgreen; font-size:60px"">Well done!</div>","colorcue_switch","","","","","","","","","","","","","","","","","","","","","","","","","","","","","","","","",""
"","","","","","survey-text","173","1913484","0.0-173.0","A1CB72B51L7TKE","2022-05-23T17:54:51.978Z","task_switching-rhyme-phon_sim-same_different","","2447.800000011921","task_switching","{""colorcue_switch_ans"":""86""}","training","83","colorcue_switch","86","true","add","6","red","","","","","","","","","","","","","","","","","","","","","","","","","","","",""
"","","","","","html-keyboard-response","174","1914501","0.0-174.0","A1CB72B51L7TKE","2022-05-23T17:54:51.978Z","task_switching-rhyme-phon_sim-same_different","","null","task_switching","null","training","<div style=""color:darkgreen; font-size:60px"">Well done!</div>","colorcue_switch","","","","","","","","","","","","","","","","","","","","","","","","","","","","","","","","",""
"","","","","","survey-text","175","1916389","0.0-175.0","A1CB72B51L7TKE","2022-05-23T17:54:51.978Z","task_switching-rhyme-phon_sim-same_different","","1885.300000011921","task_switching","{""colorcue_switch_ans"":""60""}","training","63","colorcue_switch","60","true","subtract","7","blue","","","","","","","","","","","","","","","","","","","","","","","","","","","",""
"","","","","","html-keyboard-response","176","1917398","0.0-176.0","A1CB72B51L7TKE","2022-05-23T17:54:51.978Z","task_switching-rhyme-phon_sim-same_different","","null","task_switching","null","training","<div style=""color:darkgreen; font-size:60px"">Well done!</div>","colorcue_switch","","","","","","","","","","","","","","","","","","","","","","","","","","","","","","","","",""
"","","","","","survey-text","177","1919445","0.0-177.0","A1CB72B51L7TKE","2022-05-23T17:54:51.978Z","task_switching-rhyme-phon_sim-same_different","","2040.699999988079","task_switching","{""colorcue_switch_ans"":""36""}","training","33","colorcue_switch","36","true","add","8","red","","","","","","","","","","","","","","","","","","","","","","","","","","","",""
"","","","","","html-keyboard-response","178","1920451","0.0-178.0","A1CB72B51L7TKE","2022-05-23T17:54:51.978Z","task_switching-rhyme-phon_sim-same_different","","null","task_switching","null","training","<div style=""color:darkgreen; font-size:60px"">Well done!</div>","colorcue_switch","","","","","","","","","","","","","","","","","","","","","","","","","","","","","","","","",""
"","","","","","survey-text","179","1924396","0.0-179.0","A1CB72B51L7TKE","2022-05-23T17:54:51.978Z","task_switching-rhyme-phon_sim-same_different","","3942.899999976158","task_switching","{""colorcue_switch_ans"":""62""}","training","65","colorcue_switch","62","true","subtract","9","blue","","","","","","","","","","","","","","","","","","","","","","","","","","","",""
"","","","","","html-keyboard-response","180","1925409","0.0-180.0","A1CB72B51L7TKE","2022-05-23T17:54:51.978Z","task_switching-rhyme-phon_sim-same_different","","null","task_switching","null","training","<div style=""color:darkgreen; font-size:60px"">Well done!</div>","colorcue_switch","","","","","","","","","","","","","","","","","","","","","","","","","","","","","","","","",""
"","","","","","instructions","181","1927369","0.0-181.0","A1CB72B51L7TKE","2022-05-23T17:54:51.978Z","task_switching-rhyme-phon_sim-same_different","[{""page_index"":0,""viewing_time"":1958.9000000357628}]","1960","task_switching","","","","","","","","","","","","","","","","","","","","","","","","","","","","","","","","","","","","",""
"","","","","","survey-text","182","1928868","0.0-182.0","A1CB72B51L7TKE","2022-05-23T17:54:51.978Z","task_switching-rhyme-phon_sim-same_different","","1494.699999988079","task_switching","{""colorcue_switch_ans"":""16""}","experiment","13","colorcue_switch","16","true","add","0","red","","","","","","","","","","","","","","","","","","","","","","","","","","","",""
"","","","","","survey-text","183","1930684","0.0-183.0","A1CB72B51L7TKE","2022-05-23T17:54:51.978Z","task_switching-rhyme-phon_sim-same_different","","1813","task_switching","{""colorcue_switch_ans"":""91""}","experiment","94","colorcue_switch","91","true","subtract","1","blue","","","","","","","","","","","","","","","","","","","","","","","","","","","",""
"","","","","","survey-text","184","1932564","0.0-184.0","A1CB72B51L7TKE","2022-05-23T17:54:51.978Z","task_switching-rhyme-phon_sim-same_different","","1876.8999999761581","task_switching","{""colorcue_switch_ans"":""43""}","experiment","40","colorcue_switch","43","true","add","2","red","","","","","","","","","","","","","","","","","","","","","","","","","","","",""
"","","","","","survey-text","185","1934230","0.0-185.0","A1CB72B51L7TKE","2022-05-23T17:54:51.978Z","task_switching-rhyme-phon_sim-same_different","","1662.0999999642372","task_switching","{""colorcue_switch_ans"":""11""}","experiment","14","colorcue_switch","11","true","subtract","3","blue","","","","","","","","","","","","","","","","","","","","","","","","","","","",""
"","","","","","survey-text","186","1935979","0.0-186.0","A1CB72B51L7TKE","2022-05-23T17:54:51.978Z","task_switching-rhyme-phon_sim-same_different","","1740.1000000238419","task_switching","{""colorcue_switch_ans"":""47""}","experiment","44","colorcue_switch","47","true","add","4","red","","","","","","","","","","","","","","","","","","","","","","","","","","","",""
"","","","","","survey-text","187","1937853","0.0-187.0","A1CB72B51L7TKE","2022-05-23T17:54:51.978Z","task_switching-rhyme-phon_sim-same_different","","1860.2999999523163","task_switching","{""colorcue_switch_ans"":""36""}","experiment","39","colorcue_switch","36","true","subtract","5","blue","","","","","","","","","","","","","","","","","","","","","","","","","","","",""
"","","","","","survey-text","188","1939781","0.0-188.0","A1CB72B51L7TKE","2022-05-23T17:54:51.978Z","task_switching-rhyme-phon_sim-same_different","","1923.300000011921","task_switching","{""colorcue_switch_ans"":""31""}","experiment","28","colorcue_switch","31","true","add","6","red","","","","","","","","","","","","","","","","","","","","","","","","","","","",""
"","","","","","survey-text","189","1942188","0.0-189.0","A1CB72B51L7TKE","2022-05-23T17:54:51.978Z","task_switching-rhyme-phon_sim-same_different","","2401.900000035763","task_switching","{""colorcue_switch_ans"":""87""}","experiment","90","colorcue_switch","87","true","subtract","7","blue","","","","","","","","","","","","","","","","","","","","","","","","","","","",""
"","","","","","survey-text","190","1946420","0.0-190.0","A1CB72B51L7TKE","2022-05-23T17:54:51.978Z","task_switching-rhyme-phon_sim-same_different","","4228.699999988079","task_switching","{""colorcue_switch_ans"":""98""}","experiment","95","colorcue_switch","98","true","add","8","red","","","","","","","","","","","","","","","","","","","","","","","","","","","",""
"","","","","","survey-text","191","1948116","0.0-191.0","A1CB72B51L7TKE","2022-05-23T17:54:51.978Z","task_switching-rhyme-phon_sim-same_different","","1692.800000011921","task_switching","{""colorcue_switch_ans"":""13""}","experiment","16","colorcue_switch","13","true","subtract","9","blue","","","","","","","","","","","","","","","","","","","","","","","","","","","",""
"","","","","","survey-text","192","1950365","0.0-192.0","A1CB72B51L7TKE","2022-05-23T17:54:51.978Z","task_switching-rhyme-phon_sim-same_different","","2244.5","task_switching","{""colorcue_switch_ans"":""70""}","experiment","67","colorcue_switch","70","true","add","10","red","","","","","","","","","","","","","","","","","","","","","","","","","","","",""
"","","","","","survey-text","193","1952421","0.0-193.0","A1CB72B51L7TKE","2022-05-23T17:54:51.978Z","task_switching-rhyme-phon_sim-same_different","","2051.099999964237","task_switching","{""colorcue_switch_ans"":""35""}","experiment","38","colorcue_switch","35","true","subtract","11","blue","","","","","","","","","","","","","","","","","","","","","","","","","","","",""
"","","","","","survey-text","194","1954356","0.0-194.0","A1CB72B51L7TKE","2022-05-23T17:54:51.978Z","task_switching-rhyme-phon_sim-same_different","","1929","task_switching","{""colorcue_switch_ans"":""29""}","experiment","26","colorcue_switch","29","true","add","12","red","","","","","","","","","","","","","","","","","","","","","","","","","","","",""
"","","","","","survey-text","195","1956133","0.0-195.0","A1CB72B51L7TKE","2022-05-23T17:54:51.978Z","task_switching-rhyme-phon_sim-same_different","","1771.699999988079","task_switching","{""colorcue_switch_ans"":""81""}","experiment","84","colorcue_switch","81","true","subtract","13","blue","","","","","","","","","","","","","","","","","","","","","","","","","","","",""
"","","","","","survey-text","196","1958204","0.0-196.0","A1CB72B51L7TKE","2022-05-23T17:54:51.978Z","task_switching-rhyme-phon_sim-same_different","","2066.5","task_switching","{""colorcue_switch_ans"":""74""}","experiment","71","colorcue_switch","74","true","add","14","red","","","","","","","","","","","","","","","","","","","","","","","","","","","",""
"","","","","","survey-text","197","1960324","0.0-197.0","A1CB72B51L7TKE","2022-05-23T17:54:51.978Z","task_switching-rhyme-phon_sim-same_different","","2116.399999976158","task_switching","{""colorcue_switch_ans"":""73""}","experiment","76","colorcue_switch","73","true","subtract","15","blue","","","","","","","","","","","","","","","","","","","","","","","","","","","",""
"","","","","","survey-text","198","1962173","0.0-198.0","A1CB72B51L7TKE","2022-05-23T17:54:51.978Z","task_switching-rhyme-phon_sim-same_different","","1844.699999988079","task_switching","{""colorcue_switch_ans"":""48""}","experiment","45","colorcue_switch","48","true","add","16","red","","","","","","","","","","","","","","","","","","","","","","","","","","","",""
"","","","","","survey-text","199","1964317","0.0-199.0","A1CB72B51L7TKE","2022-05-23T17:54:51.978Z","task_switching-rhyme-phon_sim-same_different","","2138.300000011921","task_switching","{""colorcue_switch_ans"":""78""}","experiment","81","colorcue_switch","78","true","subtract","17","blue","","","","","","","","","","","","","","","","","","","","","","","","","","","",""
"","","","","","survey-text","200","1966556","0.0-200.0","A1CB72B51L7TKE","2022-05-23T17:54:51.978Z","task_switching-rhyme-phon_sim-same_different","","2234.600000023842","task_switching","{""colorcue_switch_ans"":""28""}","experiment","25","colorcue_switch","28","true","add","18","red","","","","","","","","","","","","","","","","","","","","","","","","","","","",""
"","","","","","survey-text","201","1968140","0.0-201.0","A1CB72B51L7TKE","2022-05-23T17:54:51.978Z","task_switching-rhyme-phon_sim-same_different","","1580.800000011921","task_switching","{""colorcue_switch_ans"":""20""}","experiment","23","colorcue_switch","20","true","subtract","19","blue","","","","","","","","","","","","","","","","","","","","","","","","","","","",""
"","","","","","survey-text","202","1970229","0.0-202.0","A1CB72B51L7TKE","2022-05-23T17:54:51.978Z","task_switching-rhyme-phon_sim-same_different","","2084.599999964237","task_switching","{""colorcue_switch_ans"":""89""}","experiment","86","colorcue_switch","89","true","add","20","red","","","","","","","","","","","","","","","","","","","","","","","","","","","",""
"","","","","","survey-text","203","1972470","0.0-203.0","A1CB72B51L7TKE","2022-05-23T17:54:51.978Z","task_switching-rhyme-phon_sim-same_different","","2236.699999988079","task_switching","{""colorcue_switch_ans"":""90""}","experiment","93","colorcue_switch","90","true","subtract","21","blue","","","","","","","","","","","","","","","","","","","","","","","","","","","",""
"","","","","","survey-text","204","1974500","0.0-204.0","A1CB72B51L7TKE","2022-05-23T17:54:51.978Z","task_switching-rhyme-phon_sim-same_different","","2023.9000000357628","task_switching","{""colorcue_switch_ans"":""66""}","experiment","63","colorcue_switch","66","true","add","22","red","","","","","","","","","","","","","","","","","","","","","","","","","","","",""
"","","","","","survey-text","205","1976693","0.0-205.0","A1CB72B51L7TKE","2022-05-23T17:54:51.978Z","task_switching-rhyme-phon_sim-same_different","","2188.600000023842","task_switching","{""colorcue_switch_ans"":""50""}","experiment","53","colorcue_switch","50","true","subtract","23","blue","","","","","","","","","","","","","","","","","","","","","","","","","","","",""
"","","","","","survey-text","206","1978692","0.0-206.0","A1CB72B51L7TKE","2022-05-23T17:54:51.978Z","task_switching-rhyme-phon_sim-same_different","","1994.1000000238419","task_switching","{""colorcue_switch_ans"":""39""}","experiment","36","colorcue_switch","39","true","add","24","red","","","","","","","","","","","","","","","","","","","","","","","","","","","",""
"","","","","","survey-text","207","1980236","0.0-207.0","A1CB72B51L7TKE","2022-05-23T17:54:51.978Z","task_switching-rhyme-phon_sim-same_different","","1539.800000011921","task_switching","{""colorcue_switch_ans"":""45""}","experiment","48","colorcue_switch","45","true","subtract","25","blue","","","","","","","","","","","","","","","","","","","","","","","","","","","",""
"","","","","","survey-text","208","1982156","0.0-208.0","A1CB72B51L7TKE","2022-05-23T17:54:51.978Z","task_switching-rhyme-phon_sim-same_different","","1916.699999988079","task_switching","{""colorcue_switch_ans"":""88""}","experiment","85","colorcue_switch","88","true","add","26","red","","","","","","","","","","","","","","","","","","","","","","","","","","","",""
"","","","","","survey-text","209","1983932","0.0-209.0","A1CB72B51L7TKE","2022-05-23T17:54:51.978Z","task_switching-rhyme-phon_sim-same_different","","1772.699999988079","task_switching","{""colorcue_switch_ans"":""80""}","experiment","83","colorcue_switch","80","true","subtract","27","blue","","","","","","","","","","","","","","","","","","","","","","","","","","","",""
"","","","","","survey-text","210","1985973","0.0-210.0","A1CB72B51L7TKE","2022-05-23T17:54:51.978Z","task_switching-rhyme-phon_sim-same_different","","2036.6000000238419","task_switching","{""colorcue_switch_ans"":""81""}","experiment","78","colorcue_switch","81","true","add","28","red","","","","","","","","","","","","","","","","","","","","","","","","","","","",""
"","","","","","survey-text","211","1987765","0.0-211.0","A1CB72B51L7TKE","2022-05-23T17:54:51.978Z","task_switching-rhyme-phon_sim-same_different","","1786.2999999523163","task_switching","{""colorcue_switch_ans"":""93""}","experiment","96","colorcue_switch","93","true","subtract","29","blue","","","","","","","","","","","","","","","","","","","","","","","","","","","",""
"","","","","","instructions","212","1994501","0.0-212.0","A1CB72B51L7TKE","2022-05-23T17:54:51.978Z","task_switching-rhyme-phon_sim-same_different","[{""page_index"":0,""viewing_time"":6735.100000023842}]","6735.400000035763","task_switching","","","","","","","","","","","","","","","","","","","","","","","","","","","","","","","","","","","","",""
"","","","","","survey-text","213","1996430","0.0-213.0","A1CB72B51L7TKE","2022-05-23T17:54:51.978Z","task_switching-rhyme-phon_sim-same_different","","1925.300000011921","task_switching","{""symbolcue_switch_ans"":""20""}","training","17","symbolcue_switch","20","true","add","0","","+","","","","","","","","","","","","","","","","","","","","","","","","","","",""
"","","","","","html-keyboard-response","214","1997437","0.0-214.0","A1CB72B51L7TKE","2022-05-23T17:54:51.978Z","task_switching-rhyme-phon_sim-same_different","","null","task_switching","null","training","<div style=""color:darkgreen; font-size:60px"">Well done!</div>","symbolcue_switch","","","","","","","","","","","","","","","","","","","","","","","","","","","","","","","","",""
"","","","","","survey-text","215","1999284","0.0-215.0","A1CB72B51L7TKE","2022-05-23T17:54:51.978Z","task_switching-rhyme-phon_sim-same_different","","1843.699999988079","task_switching","{""symbolcue_switch_ans"":""74""}","training","77","symbolcue_switch","74","true","subtract","1","","-","","","","","","","","","","","","","","","","","","","","","","","","","","",""
"","","","","","html-keyboard-response","216","2000290","0.0-216.0","A1CB72B51L7TKE","2022-05-23T17:54:51.978Z","task_switching-rhyme-phon_sim-same_different","","null","task_switching","null","training","<div style=""color:darkgreen; font-size:60px"">Well done!</div>","symbolcue_switch","","","","","","","","","","","","","","","","","","","","","","","","","","","","","","","","",""
"","","","","","survey-text","217","2001836","0.0-217.0","A1CB72B51L7TKE","2022-05-23T17:54:51.978Z","task_switching-rhyme-phon_sim-same_different","","1543.8999999761581","task_switching","{""symbolcue_switch_ans"":""21""}","training","18","symbolcue_switch","21","true","add","2","","+","","","","","","","","","","","","","","","","","","","","","","","","","","",""
"","","","","","html-keyboard-response","218","2002848","0.0-218.0","A1CB72B51L7TKE","2022-05-23T17:54:51.978Z","task_switching-rhyme-phon_sim-same_different","","null","task_switching","null","training","<div style=""color:darkgreen; font-size:60px"">Well done!</div>","symbolcue_switch","","","","","","","","","","","","","","","","","","","","","","","","","","","","","","","","",""
"","","","","","survey-text","219","2004525","0.0-219.0","A1CB72B51L7TKE","2022-05-23T17:54:51.978Z","task_switching-rhyme-phon_sim-same_different","","1674.9000000357628","task_switching","{""symbolcue_switch_ans"":""63""}","training","66","symbolcue_switch","63","true","subtract","3","","-","","","","","","","","","","","","","","","","","","","","","","","","","","",""
"","","","","","html-keyboard-response","220","2005542","0.0-220.0","A1CB72B51L7TKE","2022-05-23T17:54:51.978Z","task_switching-rhyme-phon_sim-same_different","","null","task_switching","null","training","<div style=""color:darkgreen; font-size:60px"">Well done!</div>","symbolcue_switch","","","","","","","","","","","","","","","","","","","","","","","","","","","","","","","","",""
"","","","","","survey-text","221","2007141","0.0-221.0","A1CB72B51L7TKE","2022-05-23T17:54:51.978Z","task_switching-rhyme-phon_sim-same_different","","1596.0999999642372","task_switching","{""symbolcue_switch_ans"":""24""}","training","21","symbolcue_switch","24","true","add","4","","+","","","","","","","","","","","","","","","","","","","","","","","","","","",""
"","","","","","html-keyboard-response","222","2008154","0.0-222.0","A1CB72B51L7TKE","2022-05-23T17:54:51.978Z","task_switching-rhyme-phon_sim-same_different","","null","task_switching","null","training","<div style=""color:darkgreen; font-size:60px"">Well done!</div>","symbolcue_switch","","","","","","","","","","","","","","","","","","","","","","","","","","","","","","","","",""
"","","","","","survey-text","223","2010668","0.0-223.0","A1CB72B51L7TKE","2022-05-23T17:54:51.978Z","task_switching-rhyme-phon_sim-same_different","","2510.600000023842","task_switching","{""symbolcue_switch_ans"":""60""}","training","63","symbolcue_switch","60","true","subtract","5","","-","","","","","","","","","","","","","","","","","","","","","","","","","","",""
"","","","","","html-keyboard-response","224","2011677","0.0-224.0","A1CB72B51L7TKE","2022-05-23T17:54:51.978Z","task_switching-rhyme-phon_sim-same_different","","null","task_switching","null","training","<div style=""color:darkgreen; font-size:60px"">Well done!</div>","symbolcue_switch","","","","","","","","","","","","","","","","","","","","","","","","","","","","","","","","",""
"","","","","","survey-text","225","2013596","0.0-225.0","A1CB72B51L7TKE","2022-05-23T17:54:51.978Z","task_switching-rhyme-phon_sim-same_different","","1915.7999999523163","task_switching","{""symbolcue_switch_ans"":""82""}","training","79","symbolcue_switch","82","true","add","6","","+","","","","","","","","","","","","","","","","","","","","","","","","","","",""
"","","","","","html-keyboard-response","226","2014609","0.0-226.0","A1CB72B51L7TKE","2022-05-23T17:54:51.978Z","task_switching-rhyme-phon_sim-same_different","","null","task_switching","null","training","<div style=""color:darkgreen; font-size:60px"">Well done!</div>","symbolcue_switch","","","","","","","","","","","","","","","","","","","","","","","","","","","","","","","","",""
"","","","","","survey-text","227","2017340","0.0-227.0","A1CB72B51L7TKE","2022-05-23T17:54:51.978Z","task_switching-rhyme-phon_sim-same_different","","2727.7999999523163","task_switching","{""symbolcue_switch_ans"":""83""}","training","86","symbolcue_switch","83","true","subtract","7","","-","","","","","","","","","","","","","","","","","","","","","","","","","","",""
"","","","","","html-keyboard-response","228","2018345","0.0-228.0","A1CB72B51L7TKE","2022-05-23T17:54:51.978Z","task_switching-rhyme-phon_sim-same_different","","null","task_switching","null","training","<div style=""color:darkgreen; font-size:60px"">Well done!</div>","symbolcue_switch","","","","","","","","","","","","","","","","","","","","","","","","","","","","","","","","",""
"","","","","","survey-text","229","2020485","0.0-229.0","A1CB72B51L7TKE","2022-05-23T17:54:51.978Z","task_switching-rhyme-phon_sim-same_different","","2137","task_switching","{""symbolcue_switch_ans"":""91""}","training","88","symbolcue_switch","91","true","add","8","","+","","","","","","","","","","","","","","","","","","","","","","","","","","",""
"","","","","","html-keyboard-response","230","2021498","0.0-230.0","A1CB72B51L7TKE","2022-05-23T17:54:51.978Z","task_switching-rhyme-phon_sim-same_different","","null","task_switching","null","training","<div style=""color:darkgreen; font-size:60px"">Well done!</div>","symbolcue_switch","","","","","","","","","","","","","","","","","","","","","","","","","","","","","","","","",""
"","","","","","survey-text","231","2024308","0.0-231.0","A1CB72B51L7TKE","2022-05-23T17:54:51.978Z","task_switching-rhyme-phon_sim-same_different","","2807.600000023842","task_switching","{""symbolcue_switch_ans"":""64""}","training","67","symbolcue_switch","64","true","subtract","9","","-","","","","","","","","","","","","","","","","","","","","","","","","","","",""
"","","","","","html-keyboard-response","232","2025325","0.0-232.0","A1CB72B51L7TKE","2022-05-23T17:54:51.978Z","task_switching-rhyme-phon_sim-same_different","","null","task_switching","null","training","<div style=""color:darkgreen; font-size:60px"">Well done!</div>","symbolcue_switch","","","","","","","","","","","","","","","","","","","","","","","","","","","","","","","","",""
"","","","","","instructions","233","2028061","0.0-233.0","A1CB72B51L7TKE","2022-05-23T17:54:51.978Z","task_switching-rhyme-phon_sim-same_different","[{""page_index"":0,""viewing_time"":2734.5}]","2735","task_switching","","","","","","","","","","","","","","","","","","","","","","","","","","","","","","","","","","","","",""
"","","","","","survey-text","234","2030045","0.0-234.0","A1CB72B51L7TKE","2022-05-23T17:54:51.978Z","task_switching-rhyme-phon_sim-same_different","","1980.1000000238419","task_switching","{""symbolcue_switch_ans"":""63""}","experiment","60","symbolcue_switch","63","true","add","0","","+","","","","","","","","","","","","","","","","","","","","","","","","","","",""
"","","","","","survey-text","235","2031829","0.0-235.0","A1CB72B51L7TKE","2022-05-23T17:54:51.978Z","task_switching-rhyme-phon_sim-same_different","","1780.7000000476837","task_switching","{""symbolcue_switch_ans"":""71""}","experiment","74","symbolcue_switch","71","true","subtract","1","","-","","","","","","","","","","","","","","","","","","","","","","","","","","",""
"","","","","","survey-text","236","2034517","0.0-236.0","A1CB72B51L7TKE","2022-05-23T17:54:51.978Z","task_switching-rhyme-phon_sim-same_different","","2684.900000035763","task_switching","{""symbolcue_switch_ans"":""68""}","experiment","65","symbolcue_switch","68","true","add","2","","+","","","","","","","","","","","","","","","","","","","","","","","","","","",""
"","","","","","survey-text","237","2036365","0.0-237.0","A1CB72B51L7TKE","2022-05-23T17:54:51.978Z","task_switching-rhyme-phon_sim-same_different","","1844.699999988079","task_switching","{""symbolcue_switch_ans"":""55""}","experiment","58","symbolcue_switch","55","true","subtract","3","","-","","","","","","","","","","","","","","","","","","","","","","","","","","",""
"","","","","","survey-text","238","2038484","0.0-238.0","A1CB72B51L7TKE","2022-05-23T17:54:51.978Z","task_switching-rhyme-phon_sim-same_different","","2116.599999964237","task_switching","{""symbolcue_switch_ans"":""52""}","experiment","49","symbolcue_switch","52","true","add","4","","+","","","","","","","","","","","","","","","","","","","","","","","","","","",""
"","","","","","survey-text","239","2040389","0.0-239.0","A1CB72B51L7TKE","2022-05-23T17:54:51.978Z","task_switching-rhyme-phon_sim-same_different","","1901.1000000238419","task_switching","{""symbolcue_switch_ans"":""27""}","experiment","30","symbolcue_switch","27","true","subtract","5","","-","","","","","","","","","","","","","","","","","","","","","","","","","","",""
"","","","","","survey-text","240","2042445","0.0-240.0","A1CB72B51L7TKE","2022-05-23T17:54:51.978Z","task_switching-rhyme-phon_sim-same_different","","2050.099999964237","task_switching","{""symbolcue_switch_ans"":""42""}","experiment","39","symbolcue_switch","42","true","add","6","","+","","","","","","","","","","","","","","","","","","","","","","","","","","",""
"","","","","","survey-text","241","2044413","0.0-241.0","A1CB72B51L7TKE","2022-05-23T17:54:51.978Z","task_switching-rhyme-phon_sim-same_different","","1959.699999988079","task_switching","{""symbolcue_switch_ans"":""59""}","experiment","62","symbolcue_switch","59","true","subtract","7","","-","","","","","","","","","","","","","","","","","","","","","","","","","","",""
"","","","","","survey-text","242","2046725","0.0-242.0","A1CB72B51L7TKE","2022-05-23T17:54:51.978Z","task_switching-rhyme-phon_sim-same_different","","2309","task_switching","{""symbolcue_switch_ans"":""94""}","experiment","91","symbolcue_switch","94","true","add","8","","+","","","","","","","","","","","","","","","","","","","","","","","","","","",""
"","","","","","survey-text","243","2048886","0.0-243.0","A1CB72B51L7TKE","2022-05-23T17:54:51.978Z","task_switching-rhyme-phon_sim-same_different","","2157.199999988079","task_switching","{""symbolcue_switch_ans"":""92""}","experiment","95","symbolcue_switch","92","true","subtract","9","","-","","","","","","","","","","","","","","","","","","","","","","","","","","",""
"","","","","","survey-text","244","2050468","0.0-244.0","A1CB72B51L7TKE","2022-05-23T17:54:51.978Z","task_switching-rhyme-phon_sim-same_different","","1577.199999988079","task_switching","{""symbolcue_switch_ans"":""20""}","experiment","17","symbolcue_switch","20","true","add","10","","+","","","","","","","","","","","","","","","","","","","","","","","","","","",""
"","","","","","survey-text","245","2052509","0.0-245.0","A1CB72B51L7TKE","2022-05-23T17:54:51.978Z","task_switching-rhyme-phon_sim-same_different","","2036.9000000357628","task_switching","{""symbolcue_switch_ans"":""26""}","experiment","29","symbolcue_switch","26","true","subtract","11","","-","","","","","","","","","","","","","","","","","","","","","","","","","","",""
"","","","","","survey-text","246","2054292","0.0-246.0","A1CB72B51L7TKE","2022-05-23T17:54:51.978Z","task_switching-rhyme-phon_sim-same_different","","1778.199999988079","task_switching","{""symbolcue_switch_ans"":""39""}","experiment","36","symbolcue_switch","39","true","add","12","","+","","","","","","","","","","","","","","","","","","","","","","","","","","",""
"","","","","","survey-text","247","2056092","0.0-247.0","A1CB72B51L7TKE","2022-05-23T17:54:51.978Z","task_switching-rhyme-phon_sim-same_different","","1797","task_switching","{""symbolcue_switch_ans"":""24""}","experiment","27","symbolcue_switch","24","true","subtract","13","","-","","","","","","","","","","","","","","","","","","","","","","","","","","",""
"","","","","","survey-text","248","2057941","0.0-248.0","A1CB72B51L7TKE","2022-05-23T17:54:51.978Z","task_switching-rhyme-phon_sim-same_different","","1845","task_switching","{""symbolcue_switch_ans"":""70""}","experiment","67","symbolcue_switch","70","true","add","14","","+","","","","","","","","","","","","","","","","","","","","","","","","","","",""
"","","","","","survey-text","249","2059756","0.0-249.0","A1CB72B51L7TKE","2022-05-23T17:54:51.978Z","task_switching-rhyme-phon_sim-same_different","","1812.300000011921","task_switching","{""symbolcue_switch_ans"":""67""}","experiment","70","symbolcue_switch","67","true","subtract","15","","-","","","","","","","","","","","","","","","","","","","","","","","","","","",""
"","","","","","survey-text","250","2061405","0.0-250.0","A1CB72B51L7TKE","2022-05-23T17:54:51.978Z","task_switching-rhyme-phon_sim-same_different","","1644.800000011921","task_switching","{""symbolcue_switch_ans"":""35""}","experiment","32","symbolcue_switch","35","true","add","16","","+","","","","","","","","","","","","","","","","","","","","","","","","","","",""
"","","","","","survey-text","251","2063102","0.0-251.0","A1CB72B51L7TKE","2022-05-23T17:54:51.978Z","task_switching-rhyme-phon_sim-same_different","","1693.5","task_switching","{""symbolcue_switch_ans"":""19""}","experiment","22","symbolcue_switch","19","true","subtract","17","","-","","","","","","","","","","","","","","","","","","","","","","","","","","",""
"","","","","","survey-text","252","2065733","0.0-252.0","A1CB72B51L7TKE","2022-05-23T17:54:51.978Z","task_switching-rhyme-phon_sim-same_different","","2625.300000011921","task_switching","{""symbolcue_switch_ans"":""59""}","experiment","56","symbolcue_switch","59","true","add","18","","+","","","","","","","","","","","","","","","","","","","","","","","","","","",""
"","","","","","survey-text","253","2067309","0.0-253.0","A1CB72B51L7TKE","2022-05-23T17:54:51.978Z","task_switching-rhyme-phon_sim-same_different","","1572.5","task_switching","{""symbolcue_switch_ans"":""61""}","experiment","64","symbolcue_switch","61","true","subtract","19","","-","","","","","","","","","","","","","","","","","","","","","","","","","","",""
"","","","","","survey-text","254","2068861","0.0-254.0","A1CB72B51L7TKE","2022-05-23T17:54:51.978Z","task_switching-rhyme-phon_sim-same_different","","1549","task_switching","{""symbolcue_switch_ans"":""80""}","experiment","77","symbolcue_switch","80","true","add","20","","+","","","","","","","","","","","","","","","","","","","","","","","","","","",""
"","","","","","survey-text","255","2070757","0.0-255.0","A1CB72B51L7TKE","2022-05-23T17:54:51.978Z","task_switching-rhyme-phon_sim-same_different","","1892.2999999523163","task_switching","{""symbolcue_switch_ans"":""56""}","experiment","59","symbolcue_switch","56","true","subtract","21","","-","","","","","","","","","","","","","","","","","","","","","","","","","","",""
"","","","","","survey-text","256","2072333","0.0-256.0","A1CB72B51L7TKE","2022-05-23T17:54:51.978Z","task_switching-rhyme-phon_sim-same_different","","1572.3999999761581","task_switching","{""symbolcue_switch_ans"":""85""}","experiment","82","symbolcue_switch","85","true","add","22","","+","","","","","","","","","","","","","","","","","","","","","","","","","","",""
"","","","","","survey-text","257","2074581","0.0-257.0","A1CB72B51L7TKE","2022-05-23T17:54:51.978Z","task_switching-rhyme-phon_sim-same_different","","2244.899999976158","task_switching","{""symbolcue_switch_ans"":""68""}","experiment","71","symbolcue_switch","68","true","subtract","23","","-","","","","","","","","","","","","","","","","","","","","","","","","","","",""
"","","","","","survey-text","258","2076180","0.0-258.0","A1CB72B51L7TKE","2022-05-23T17:54:51.978Z","task_switching-rhyme-phon_sim-same_different","","1596.4000000357628","task_switching","{""symbolcue_switch_ans"":""47""}","experiment","44","symbolcue_switch","47","true","add","24","","+","","","","","","","","","","","","","","","","","","","","","","","","","","",""
"","","","","","survey-text","259","2078205","0.0-259.0","A1CB72B51L7TKE","2022-05-23T17:54:51.978Z","task_switching-rhyme-phon_sim-same_different","","2021.0999999642372","task_switching","{""symbolcue_switch_ans"":""83""}","experiment","86","symbolcue_switch","83","true","subtract","25","","-","","","","","","","","","","","","","","","","","","","","","","","","","","",""
"","","","","","survey-text","260","2079725","0.0-260.0","A1CB72B51L7TKE","2022-05-23T17:54:51.978Z","task_switching-rhyme-phon_sim-same_different","","1516.8999999761581","task_switching","{""symbolcue_switch_ans"":""55""}","experiment","52","symbolcue_switch","55","true","add","26","","+","","","","","","","","","","","","","","","","","","","","","","","","","","",""
"","","","","","survey-text","261","2081405","0.0-261.0","A1CB72B51L7TKE","2022-05-23T17:54:51.978Z","task_switching-rhyme-phon_sim-same_different","","1674.0999999642372","task_switching","{""symbolcue_switch_ans"":""90""}","experiment","93","symbolcue_switch","90","true","subtract","27","","-","","","","","","","","","","","","","","","","","","","","","","","","","","",""
"","","","","","survey-text","262","2083167","0.0-262.0","A1CB72B51L7TKE","2022-05-23T17:54:51.978Z","task_switching-rhyme-phon_sim-same_different","","1758.1000000238419","task_switching","{""symbolcue_switch_ans"":""18""}","experiment","15","symbolcue_switch","18","true","add","28","","+","","","","","","","","","","","","","","","","","","","","","","","","","","",""
"","","","","","survey-text","263","2085053","0.0-263.0","A1CB72B51L7TKE","2022-05-23T17:54:51.978Z","task_switching-rhyme-phon_sim-same_different","","1881.199999988079","task_switching","{""symbolcue_switch_ans"":""28""}","experiment","31","symbolcue_switch","28","true","subtract","29","","-","","","","","","","","","","","","","","","","","","","","","","","","","","",""
"","","","","","survey-multi-choice","264","2088884","0.0-264.0","A1CB72B51L7TKE","2022-05-23T17:54:51.978Z","task_switching-rhyme-phon_sim-same_different","","3829.5","task_switching","{""Q0"":""Yes""}","","","","","","","","","","[0]","Yes","","","","","","","","","","","","","","","","","","","","","","","","",""
"","","","","","survey-text","265","2126476","0.0-265.0","A1CB72B51L7TKE","2022-05-23T17:54:51.978Z","task_switching-rhyme-phon_sim-same_different","","37586.10000002384","task_switching","{""Q0"":""The only one that I really needed a strategy for was talking out loud \""RED ADD BLUE SUBTRACT\""""}","","","","","","","","","","","","The only one that I really needed a strategy for was talking out loud ""RED ADD BLUE SUBTRACT""","","","","","","","","","","","","","","","","","","","","","","","",""
"","","","","","instructions","266","2127953","0.0-266.0","A1CB72B51L7TKE","2022-05-23T17:54:51.978Z","task_switching-rhyme-phon_sim-same_different","[{""page_index"":0,""viewing_time"":1474.7999999523163}]","1475.0999999642372","task_switching","","","","","","","","","","","","","","","","","","","","","","","","","","","","","","","","","","","","",""
"","","","","","instructions","267","2149141","0.0-267.0","A1CB72B51L7TKE","2022-05-23T17:54:51.978Z","task_switching-rhyme-phon_sim-same_different","[{""page_index"":0,""viewing_time"":21187.5}]","21187.80000001192","rhyme","","","","","","","","","","","","","","","","","","","","","","","","","","","","","","","","","","","","",""
"","","","","","html-keyboard-response","268","2149657","0.0-268.0-0.0","A1CB72B51L7TKE","2022-05-23T17:54:51.978Z","task_switching-rhyme-phon_sim-same_different","","null","rhyme","null","","<div style=""font-size:60px;"">+</div>","","","","","","","","","","","500","","","","","","","","","","","","","","","","","","","","","","",""
"","","","","","html-keyboard-response","269","2150173","0.0-268.0-1.0","A1CB72B51L7TKE","2022-05-23T17:54:51.978Z","task_switching-rhyme-phon_sim-same_different","","null","rhyme","null","","<img src=""square.png"" width=""306"" height=""306"" style=""position: fixed;left:14%;top:30%""><img src=""square.png"" width=""306"" height=""306"" style=""position: fixed;left:64%;top:30%"">","","","","","","","","","","","","","","","","","","","","","","","","","","","","","","","","","",""
