"success","timeout","failed_images","failed_audio","failed_video","trial_type","trial_index","time_elapsed","internal_node_id","worker_id","start_time","experiment_order","view_history","rt","experiment","stimulus","response","wait_time","correct","phase","image_1","image_2","cor_key","type","question_order","talk_out_loud","strategy_free_ans","judgment_type","stim_1","stim_2","inverted","answer","true_neg","false_pos","true_pos","false_neg","condition","operation","trial_no","color_cue","symbol_cue","word_1","word_2","word_3","word_4","word_5","original_word_set","response_1","response_2","response_3","response_4","response_5"
"true","false","[]","[]","[]","preload","0","2922","0.0-0.0","A289D98Z4GAZ28","2022-05-26T23:45:34.947Z","rhyme-same_different-task_switching-phon_sim","","","","","","","","","","","","","","","","","","","","","","","","","","","","","","","","","","","","","","","",""
"","","","","","instructions","1","10815","0.0-1.0","A289D98Z4GAZ28","2022-05-26T23:45:34.947Z","rhyme-same_different-task_switching-phon_sim","[{""page_index"":0,""viewing_time"":7892.10000000149}]","7892.20000000298","","","","","","","","","","","","","","","","","","","","","","","","","","","","","","","","","","","","","",""
"true","","","","","fullscreen","2","21647","0.0-2.0","A289D98Z4GAZ28","2022-05-26T23:45:34.947Z","rhyme-same_different-task_switching-phon_sim","","","","","","","","","","","","","","","","","","","","","","","","","","","","","","","","","","","","","","","",""
"","","","","","instructions","3","54422","0.0-3.0","A289D98Z4GAZ28","2022-05-26T23:45:34.947Z","rhyme-same_different-task_switching-phon_sim","[{""page_index"":0,""viewing_time"":32774.89999999851}]","32774.89999999851","rhyme","","","","","","","","","","","","","","","","","","","","","","","","","","","","","","","","","","","","",""
"","","","","","html-keyboard-response","4","54673","0.0-4.0-0.0","A289D98Z4GAZ28","2022-05-26T23:45:34.947Z","rhyme-same_different-task_switching-phon_sim","","null","rhyme","<div style=""font-size:60px;"">+</div>","null","250","","","","","","","","","","","","","","","","","","","","","","","","","","","","","","","","","",""
"","","","","","html-keyboard-response","5","55180","0.0-4.0-1.0","A289D98Z4GAZ28","2022-05-26T23:45:34.947Z","rhyme-same_different-task_switching-phon_sim","","null","rhyme","<img src=""square.png"" width=""306"" height=""306"" style=""position: fixed;left:14%;top:30%""><img src=""square.png"" width=""306"" height=""306"" style=""position: fixed;left:64%;top:30%"">","null","","","","","","","","","","","","","","","","","","","","","","","","","","","","","","","","","","",""
"","","","","","categorize-html","6","61202","0.0-4.0-2.0","A289D98Z4GAZ28","2022-05-26T23:45:34.947Z","rhyme-same_different-task_switching-phon_sim","","null","rhyme","<div style=""border: 3px solid #000000; position: fixed;left:14%;top:30%""><img src=""visual/chess.png"" width=""300""></div><div style=""border: 3px solid #000000; position: fixed;left:64%;top:30%""><img src=""visual/suit.png"" width=""300""></div>","null","","false","training","visual/chess.png","visual/suit.png","ArrowDown","NA","","","","","","","","","","","","","","","","","","","","","","","","","","","",""
"","","","","","html-keyboard-response","7","61463","0.0-4.0-0.1","A289D98Z4GAZ28","2022-05-26T23:45:34.947Z","rhyme-same_different-task_switching-phon_sim","","null","rhyme","<div style=""font-size:60px;"">+</div>","null","250","","","","","","","","","","","","","","","","","","","","","","","","","","","","","","","","","",""
"","","","","","html-keyboard-response","8","61964","0.0-4.0-1.1","A289D98Z4GAZ28","2022-05-26T23:45:34.947Z","rhyme-same_different-task_switching-phon_sim","","null","rhyme","<img src=""square.png"" width=""306"" height=""306"" style=""position: fixed;left:14%;top:30%""><img src=""square.png"" width=""306"" height=""306"" style=""position: fixed;left:64%;top:30%"">","null","","","","","","","","","","","","","","","","","","","","","","","","","","","","","","","","","","",""
"","","","","","categorize-html","9","64146","0.0-4.0-2.1","A289D98Z4GAZ28","2022-05-26T23:45:34.947Z","rhyme-same_different-task_switching-phon_sim","","1176","rhyme","<div style=""border: 3px solid #000000; position: fixed;left:14%;top:30%""><img src=""visual/house.png"" width=""300""></div><div style=""border: 3px solid #000000; position: fixed;left:64%;top:30%""><img src=""visual/mouse.png"" width=""300""></div>","arrowup","","true","training","visual/house.png","visual/mouse.png","ArrowUp","NA","","","","","","","","","","","","","","","","","","","","","","","","","","","",""
"","","","","","html-keyboard-response","10","64397","0.0-4.0-0.2","A289D98Z4GAZ28","2022-05-26T23:45:34.947Z","rhyme-same_different-task_switching-phon_sim","","null","rhyme","<div style=""font-size:60px;"">+</div>","null","250","","","","","","","","","","","","","","","","","","","","","","","","","","","","","","","","","",""
"","","","","","html-keyboard-response","11","64912","0.0-4.0-1.2","A289D98Z4GAZ28","2022-05-26T23:45:34.947Z","rhyme-same_different-task_switching-phon_sim","","null","rhyme","<img src=""square.png"" width=""306"" height=""306"" style=""position: fixed;left:14%;top:30%""><img src=""square.png"" width=""306"" height=""306"" style=""position: fixed;left:64%;top:30%"">","null","","","","","","","","","","","","","","","","","","","","","","","","","","","","","","","","","","",""
"","","","","","categorize-html","12","67428","0.0-4.0-2.2","A289D98Z4GAZ28","2022-05-26T23:45:34.947Z","rhyme-same_different-task_switching-phon_sim","","1507.8999999985099","rhyme","<div style=""border: 3px solid #000000; position: fixed;left:14%;top:30%""><img src=""visual/dress.png"" width=""300""></div><div style=""border: 3px solid #000000; position: fixed;left:64%;top:30%""><img src=""visual/chess.png"" width=""300""></div>","arrowup","","true","training","visual/dress.png","visual/chess.png","ArrowUp","NA","","","","","","","","","","","","","","","","","","","","","","","","","","","",""
"","","","","","html-keyboard-response","13","67680","0.0-4.0-0.3","A289D98Z4GAZ28","2022-05-26T23:45:34.947Z","rhyme-same_different-task_switching-phon_sim","","null","rhyme","<div style=""font-size:60px;"">+</div>","null","250","","","","","","","","","","","","","","","","","","","","","","","","","","","","","","","","","",""
"","","","","","html-keyboard-response","14","68196","0.0-4.0-1.3","A289D98Z4GAZ28","2022-05-26T23:45:34.947Z","rhyme-same_different-task_switching-phon_sim","","null","rhyme","<img src=""square.png"" width=""306"" height=""306"" style=""position: fixed;left:14%;top:30%""><img src=""square.png"" width=""306"" height=""306"" style=""position: fixed;left:64%;top:30%"">","null","","","","","","","","","","","","","","","","","","","","","","","","","","","","","","","","","","",""
"","","","","","categorize-html","15","70996","0.0-4.0-2.3","A289D98Z4GAZ28","2022-05-26T23:45:34.947Z","rhyme-same_different-task_switching-phon_sim","","1784.0999999940395","rhyme","<div style=""border: 3px solid #000000; position: fixed;left:14%;top:30%""><img src=""visual/mouse.png"" width=""300""></div><div style=""border: 3px solid #000000; position: fixed;left:64%;top:30%""><img src=""visual/dress.png"" width=""300""></div>","arrowdown","","true","training","visual/mouse.png","visual/dress.png","ArrowDown","NA","","","","","","","","","","","","","","","","","","","","","","","","","","","",""
"","","","","","instructions","16","77109","0.0-5.0","A289D98Z4GAZ28","2022-05-26T23:45:34.947Z","rhyme-same_different-task_switching-phon_sim","[{""page_index"":0,""viewing_time"":6112.5}]","6112.60000000149","","","","","","","","","","","","","","","","","","","","","","","","","","","","","","","","","","","","","",""
"","","","","","html-keyboard-response","17","77612","0.0-6.0-0.0","A289D98Z4GAZ28","2022-05-26T23:45:34.947Z","rhyme-same_different-task_switching-phon_sim","","null","rhyme","<div style=""font-size:60px;"">+</div>","null","500","","","","","","","","","","","","","","","","","","","","","","","","","","","","","","","","","",""
"","","","","","html-keyboard-response","18","78128","0.0-6.0-1.0","A289D98Z4GAZ28","2022-05-26T23:45:34.947Z","rhyme-same_different-task_switching-phon_sim","","null","rhyme","<img src=""square.png"" width=""306"" height=""306"" style=""position: fixed;left:14%;top:30%""><img src=""square.png"" width=""306"" height=""306"" style=""position: fixed;left:64%;top:30%"">","null","","","","","","","","","","","","","","","","","","","","","","","","","","","","","","","","","","",""
"","","","","","html-keyboard-response","19","79661","0.0-6.0-2.0","A289D98Z4GAZ28","2022-05-26T23:45:34.947Z","rhyme-same_different-task_switching-phon_sim","","1531.5","rhyme","<div style=""border: 3px solid #000000; position: fixed;left:14%;top:30%""><img src=""visual/wave.png"" width=""300""></div><div style=""border: 3px solid #000000; position: fixed;left:64%;top:30%""><img src=""visual/cave.png"" width=""300""></div>","arrowdown","","false","experiment","visual/wave.png","visual/cave.png","ArrowUp","ortho","","","","","","","","","","","","","","","","","","","","","","","","","","","",""
"","","","","","html-keyboard-response","20","80662","0.0-6.0-0.1","A289D98Z4GAZ28","2022-05-26T23:45:34.947Z","rhyme-same_different-task_switching-phon_sim","","null","rhyme","<div style=""font-size:60px;"">+</div>","null","1000","","","","","","","","","","","","","","","","","","","","","","","","","","","","","","","","","",""
"","","","","","html-keyboard-response","21","81178","0.0-6.0-1.1","A289D98Z4GAZ28","2022-05-26T23:45:34.947Z","rhyme-same_different-task_switching-phon_sim","","null","rhyme","<img src=""square.png"" width=""306"" height=""306"" style=""position: fixed;left:14%;top:30%""><img src=""square.png"" width=""306"" height=""306"" style=""position: fixed;left:64%;top:30%"">","null","","","","","","","","","","","","","","","","","","","","","","","","","","","","","","","","","","",""
"","","","","","html-keyboard-response","22","82845","0.0-6.0-2.1","A289D98Z4GAZ28","2022-05-26T23:45:34.947Z","rhyme-same_different-task_switching-phon_sim","","1666.0999999940395","rhyme","<div style=""border: 3px solid #000000; position: fixed;left:14%;top:30%""><img src=""visual/bed.png"" width=""300""></div><div style=""border: 3px solid #000000; position: fixed;left:64%;top:30%""><img src=""visual/bread.png"" width=""300""></div>","arrowup","","true","experiment","visual/bed.png","visual/bread.png","ArrowUp","non-ortho","","","","","","","","","","","","","","","","","","","","","","","","","","","",""
"","","","","","html-keyboard-response","23","83111","0.0-6.0-0.2","A289D98Z4GAZ28","2022-05-26T23:45:34.947Z","rhyme-same_different-task_switching-phon_sim","","null","rhyme","<div style=""font-size:60px;"">+</div>","null","250","","","","","","","","","","","","","","","","","","","","","","","","","","","","","","","","","",""
"","","","","","html-keyboard-response","24","83613","0.0-6.0-1.2","A289D98Z4GAZ28","2022-05-26T23:45:34.947Z","rhyme-same_different-task_switching-phon_sim","","null","rhyme","<img src=""square.png"" width=""306"" height=""306"" style=""position: fixed;left:14%;top:30%""><img src=""square.png"" width=""306"" height=""306"" style=""position: fixed;left:64%;top:30%"">","null","","","","","","","","","","","","","","","","","","","","","","","","","","","","","","","","","","",""
"","","","","","html-keyboard-response","25","85037","0.0-6.0-2.2","A289D98Z4GAZ28","2022-05-26T23:45:34.947Z","rhyme-same_different-task_switching-phon_sim","","1423.1999999955297","rhyme","<div style=""border: 3px solid #000000; position: fixed;left:14%;top:30%""><img src=""visual/plane.png"" width=""300""></div><div style=""border: 3px solid #000000; position: fixed;left:64%;top:30%""><img src=""visual/train.png"" width=""300""></div>","arrowdown","","false","experiment","visual/plane.png","visual/train.png","ArrowUp","non-ortho","","","","","","","","","","","","","","","","","","","","","","","","","","","",""
"","","","","","html-keyboard-response","26","86044","0.0-6.0-0.3","A289D98Z4GAZ28","2022-05-26T23:45:34.947Z","rhyme-same_different-task_switching-phon_sim","","null","rhyme","<div style=""font-size:60px;"">+</div>","null","1000","","","","","","","","","","","","","","","","","","","","","","","","","","","","","","","","","",""
"","","","","","html-keyboard-response","27","86561","0.0-6.0-1.3","A289D98Z4GAZ28","2022-05-26T23:45:34.947Z","rhyme-same_different-task_switching-phon_sim","","null","rhyme","<img src=""square.png"" width=""306"" height=""306"" style=""position: fixed;left:14%;top:30%""><img src=""square.png"" width=""306"" height=""306"" style=""position: fixed;left:64%;top:30%"">","null","","","","","","","","","","","","","","","","","","","","","","","","","","","","","","","","","","",""
"","","","","","html-keyboard-response","28","88141","0.0-6.0-2.3","A289D98Z4GAZ28","2022-05-26T23:45:34.947Z","rhyme-same_different-task_switching-phon_sim","","1579.7000000029802","rhyme","<div style=""border: 3px solid #000000; position: fixed;left:14%;top:30%""><img src=""visual/tie.png"" width=""300""></div><div style=""border: 3px solid #000000; position: fixed;left:64%;top:30%""><img src=""visual/fly.png"" width=""300""></div>","arrowup","","true","experiment","visual/tie.png","visual/fly.png","ArrowUp","non-ortho","","","","","","","","","","","","","","","","","","","","","","","","","","","",""
"","","","","","html-keyboard-response","29","88396","0.0-6.0-0.4","A289D98Z4GAZ28","2022-05-26T23:45:34.947Z","rhyme-same_different-task_switching-phon_sim","","null","rhyme","<div style=""font-size:60px;"">+</div>","null","250","","","","","","","","","","","","","","","","","","","","","","","","","","","","","","","","","",""
"","","","","","html-keyboard-response","30","88911","0.0-6.0-1.4","A289D98Z4GAZ28","2022-05-26T23:45:34.947Z","rhyme-same_different-task_switching-phon_sim","","null","rhyme","<img src=""square.png"" width=""306"" height=""306"" style=""position: fixed;left:14%;top:30%""><img src=""square.png"" width=""306"" height=""306"" style=""position: fixed;left:64%;top:30%"">","null","","","","","","","","","","","","","","","","","","","","","","","","","","","","","","","","","","",""
"","","","","","html-keyboard-response","31","90533","0.0-6.0-2.4","A289D98Z4GAZ28","2022-05-26T23:45:34.947Z","rhyme-same_different-task_switching-phon_sim","","1621.5","rhyme","<div style=""border: 3px solid #000000; position: fixed;left:14%;top:30%""><img src=""visual/brain.png"" width=""300""></div><div style=""border: 3px solid #000000; position: fixed;left:64%;top:30%""><img src=""visual/clock.png"" width=""300""></div>","arrowdown","","true","experiment","visual/brain.png","visual/clock.png","ArrowDown","NR","","","","","","","","","","","","","","","","","","","","","","","","","","","",""
"","","","","","html-keyboard-response","32","91295","0.0-6.0-0.5","A289D98Z4GAZ28","2022-05-26T23:45:34.947Z","rhyme-same_different-task_switching-phon_sim","","null","rhyme","<div style=""font-size:60px;"">+</div>","null","750","","","","","","","","","","","","","","","","","","","","","","","","","","","","","","","","","",""
"","","","","","html-keyboard-response","33","91796","0.0-6.0-1.5","A289D98Z4GAZ28","2022-05-26T23:45:34.947Z","rhyme-same_different-task_switching-phon_sim","","null","rhyme","<img src=""square.png"" width=""306"" height=""306"" style=""position: fixed;left:14%;top:30%""><img src=""square.png"" width=""306"" height=""306"" style=""position: fixed;left:64%;top:30%"">","null","","","","","","","","","","","","","","","","","","","","","","","","","","","","","","","","","","",""
"","","","","","html-keyboard-response","34","93365","0.0-6.0-2.5","A289D98Z4GAZ28","2022-05-26T23:45:34.947Z","rhyme-same_different-task_switching-phon_sim","","1567.7999999970198","rhyme","<div style=""border: 3px solid #000000; position: fixed;left:14%;top:30%""><img src=""visual/cab.png"" width=""300""></div><div style=""border: 3px solid #000000; position: fixed;left:64%;top:30%""><img src=""visual/crab.png"" width=""300""></div>","arrowup","","true","experiment","visual/cab.png","visual/crab.png","ArrowUp","ortho","","","","","","","","","","","","","","","","","","","","","","","","","","","",""
"","","","","","html-keyboard-response","35","93878","0.0-6.0-0.6","A289D98Z4GAZ28","2022-05-26T23:45:34.947Z","rhyme-same_different-task_switching-phon_sim","","null","rhyme","<div style=""font-size:60px;"">+</div>","null","500","","","","","","","","","","","","","","","","","","","","","","","","","","","","","","","","","",""
"","","","","","html-keyboard-response","36","94394","0.0-6.0-1.6","A289D98Z4GAZ28","2022-05-26T23:45:34.947Z","rhyme-same_different-task_switching-phon_sim","","null","rhyme","<img src=""square.png"" width=""306"" height=""306"" style=""position: fixed;left:14%;top:30%""><img src=""square.png"" width=""306"" height=""306"" style=""position: fixed;left:64%;top:30%"">","null","","","","","","","","","","","","","","","","","","","","","","","","","","","","","","","","","","",""
"","","","","","html-keyboard-response","37","96445","0.0-6.0-2.6","A289D98Z4GAZ28","2022-05-26T23:45:34.947Z","rhyme-same_different-task_switching-phon_sim","","2050.2999999970198","rhyme","<div style=""border: 3px solid #000000; position: fixed;left:14%;top:30%""><img src=""visual/key.png"" width=""300""></div><div style=""border: 3px solid #000000; position: fixed;left:64%;top:30%""><img src=""visual/snail.png"" width=""300""></div>","arrowdown","","true","experiment","visual/key.png","visual/snail.png","ArrowDown","NR","","","","","","","","","","","","","","","","","","","","","","","","","","","",""
"","","","","","html-keyboard-response","38","97211","0.0-6.0-0.7","A289D98Z4GAZ28","2022-05-26T23:45:34.947Z","rhyme-same_different-task_switching-phon_sim","","null","rhyme","<div style=""font-size:60px;"">+</div>","null","750","","","","","","","","","","","","","","","","","","","","","","","","","","","","","","","","","",""
"","","","","","html-keyboard-response","39","97712","0.0-6.0-1.7","A289D98Z4GAZ28","2022-05-26T23:45:34.947Z","rhyme-same_different-task_switching-phon_sim","","null","rhyme","<img src=""square.png"" width=""306"" height=""306"" style=""position: fixed;left:14%;top:30%""><img src=""square.png"" width=""306"" height=""306"" style=""position: fixed;left:64%;top:30%"">","null","","","","","","","","","","","","","","","","","","","","","","","","","","","","","","","","","","",""
"","","","","","html-keyboard-response","40","99509","0.0-6.0-2.7","A289D98Z4GAZ28","2022-05-26T23:45:34.947Z","rhyme-same_different-task_switching-phon_sim","","1795.7999999970198","rhyme","<div style=""border: 3px solid #000000; position: fixed;left:14%;top:30%""><img src=""visual/shark.png"" width=""300""></div><div style=""border: 3px solid #000000; position: fixed;left:64%;top:30%""><img src=""visual/park.png"" width=""300""></div>","arrowdown","","false","experiment","visual/shark.png","visual/park.png","ArrowUp","ortho","","","","","","","","","","","","","","","","","","","","","","","","","","","",""
"","","","","","html-keyboard-response","41","100012","0.0-6.0-0.8","A289D98Z4GAZ28","2022-05-26T23:45:34.947Z","rhyme-same_different-task_switching-phon_sim","","null","rhyme","<div style=""font-size:60px;"">+</div>","null","500","","","","","","","","","","","","","","","","","","","","","","","","","","","","","","","","","",""
"","","","","","html-keyboard-response","42","100527","0.0-6.0-1.8","A289D98Z4GAZ28","2022-05-26T23:45:34.947Z","rhyme-same_different-task_switching-phon_sim","","null","rhyme","<img src=""square.png"" width=""306"" height=""306"" style=""position: fixed;left:14%;top:30%""><img src=""square.png"" width=""306"" height=""306"" style=""position: fixed;left:64%;top:30%"">","null","","","","","","","","","","","","","","","","","","","","","","","","","","","","","","","","","","",""
"","","","","","html-keyboard-response","43","102565","0.0-6.0-2.8","A289D98Z4GAZ28","2022-05-26T23:45:34.947Z","rhyme-same_different-task_switching-phon_sim","","2036.8999999985099","rhyme","<div style=""border: 3px solid #000000; position: fixed;left:14%;top:30%""><img src=""visual/pope.png"" width=""300""></div><div style=""border: 3px solid #000000; position: fixed;left:64%;top:30%""><img src=""visual/soap.png"" width=""300""></div>","arrowdown","","false","experiment","visual/pope.png","visual/soap.png","ArrowUp","non-ortho","","","","","","","","","","","","","","","","","","","","","","","","","","","",""
"","","","","","html-keyboard-response","44","103327","0.0-6.0-0.9","A289D98Z4GAZ28","2022-05-26T23:45:34.947Z","rhyme-same_different-task_switching-phon_sim","","null","rhyme","<div style=""font-size:60px;"">+</div>","null","750","","","","","","","","","","","","","","","","","","","","","","","","","","","","","","","","","",""
"","","","","","html-keyboard-response","45","103828","0.0-6.0-1.9","A289D98Z4GAZ28","2022-05-26T23:45:34.947Z","rhyme-same_different-task_switching-phon_sim","","null","rhyme","<img src=""square.png"" width=""306"" height=""306"" style=""position: fixed;left:14%;top:30%""><img src=""square.png"" width=""306"" height=""306"" style=""position: fixed;left:64%;top:30%"">","null","","","","","","","","","","","","","","","","","","","","","","","","","","","","","","","","","","",""
"","","","","","html-keyboard-response","46","105669","0.0-6.0-2.9","A289D98Z4GAZ28","2022-05-26T23:45:34.947Z","rhyme-same_different-task_switching-phon_sim","","1840.3999999985099","rhyme","<div style=""border: 3px solid #000000; position: fixed;left:14%;top:30%""><img src=""visual/claw.png"" width=""300""></div><div style=""border: 3px solid #000000; position: fixed;left:64%;top:30%""><img src=""visual/beer.png"" width=""300""></div>","arrowdown","","true","experiment","visual/claw.png","visual/beer.png","ArrowDown","NR","","","","","","","","","","","","","","","","","","","","","","","","","","","",""
"","","","","","html-keyboard-response","47","106428","0.0-6.0-0.10","A289D98Z4GAZ28","2022-05-26T23:45:34.947Z","rhyme-same_different-task_switching-phon_sim","","null","rhyme","<div style=""font-size:60px;"">+</div>","null","750","","","","","","","","","","","","","","","","","","","","","","","","","","","","","","","","","",""
"","","","","","html-keyboard-response","48","106944","0.0-6.0-1.10","A289D98Z4GAZ28","2022-05-26T23:45:34.947Z","rhyme-same_different-task_switching-phon_sim","","null","rhyme","<img src=""square.png"" width=""306"" height=""306"" style=""position: fixed;left:14%;top:30%""><img src=""square.png"" width=""306"" height=""306"" style=""position: fixed;left:64%;top:30%"">","null","","","","","","","","","","","","","","","","","","","","","","","","","","","","","","","","","","",""
"","","","","","html-keyboard-response","49","108461","0.0-6.0-2.10","A289D98Z4GAZ28","2022-05-26T23:45:34.947Z","rhyme-same_different-task_switching-phon_sim","","1516.6999999955297","rhyme","<div style=""border: 3px solid #000000; position: fixed;left:14%;top:30%""><img src=""visual/spoon.png"" width=""300""></div><div style=""border: 3px solid #000000; position: fixed;left:64%;top:30%""><img src=""visual/moon.png"" width=""300""></div>","arrowup","","true","experiment","visual/spoon.png","visual/moon.png","ArrowUp","ortho","","","","","","","","","","","","","","","","","","","","","","","","","","","",""
"","","","","","html-keyboard-response","50","109226","0.0-6.0-0.11","A289D98Z4GAZ28","2022-05-26T23:45:34.947Z","rhyme-same_different-task_switching-phon_sim","","null","rhyme","<div style=""font-size:60px;"">+</div>","null","750","","","","","","","","","","","","","","","","","","","","","","","","","","","","","","","","","",""
"","","","","","html-keyboard-response","51","109728","0.0-6.0-1.11","A289D98Z4GAZ28","2022-05-26T23:45:34.947Z","rhyme-same_different-task_switching-phon_sim","","null","rhyme","<img src=""square.png"" width=""306"" height=""306"" style=""position: fixed;left:14%;top:30%""><img src=""square.png"" width=""306"" height=""306"" style=""position: fixed;left:64%;top:30%"">","null","","","","","","","","","","","","","","","","","","","","","","","","","","","","","","","","","","",""
"","","","","","html-keyboard-response","52","111021","0.0-6.0-2.11","A289D98Z4GAZ28","2022-05-26T23:45:34.947Z","rhyme-same_different-task_switching-phon_sim","","1291.6000000014901","rhyme","<div style=""border: 3px solid #000000; position: fixed;left:14%;top:30%""><img src=""visual/star.png"" width=""300""></div><div style=""border: 3px solid #000000; position: fixed;left:64%;top:30%""><img src=""visual/jar.png"" width=""300""></div>","arrowup","","true","experiment","visual/star.png","visual/jar.png","ArrowUp","ortho","","","","","","","","","","","","","","","","","","","","","","","","","","","",""
"","","","","","html-keyboard-response","53","111526","0.0-6.0-0.12","A289D98Z4GAZ28","2022-05-26T23:45:34.947Z","rhyme-same_different-task_switching-phon_sim","","null","rhyme","<div style=""font-size:60px;"">+</div>","null","500","","","","","","","","","","","","","","","","","","","","","","","","","","","","","","","","","",""
"","","","","","html-keyboard-response","54","112028","0.0-6.0-1.12","A289D98Z4GAZ28","2022-05-26T23:45:34.947Z","rhyme-same_different-task_switching-phon_sim","","null","rhyme","<img src=""square.png"" width=""306"" height=""306"" style=""position: fixed;left:14%;top:30%""><img src=""square.png"" width=""306"" height=""306"" style=""position: fixed;left:64%;top:30%"">","null","","","","","","","","","","","","","","","","","","","","","","","","","","","","","","","","","","",""
"","","","","","html-keyboard-response","55","113213","0.0-6.0-2.12","A289D98Z4GAZ28","2022-05-26T23:45:34.947Z","rhyme-same_different-task_switching-phon_sim","","1184.1999999955297","rhyme","<div style=""border: 3px solid #000000; position: fixed;left:14%;top:30%""><img src=""visual/flag.png"" width=""300""></div><div style=""border: 3px solid #000000; position: fixed;left:64%;top:30%""><img src=""visual/bag.png"" width=""300""></div>","arrowup","","true","experiment","visual/flag.png","visual/bag.png","ArrowUp","ortho","","","","","","","","","","","","","","","","","","","","","","","","","","","",""
"","","","","","html-keyboard-response","56","113476","0.0-6.0-0.13","A289D98Z4GAZ28","2022-05-26T23:45:34.947Z","rhyme-same_different-task_switching-phon_sim","","null","rhyme","<div style=""font-size:60px;"">+</div>","null","250","","","","","","","","","","","","","","","","","","","","","","","","","","","","","","","","","",""
"","","","","","html-keyboard-response","57","113978","0.0-6.0-1.13","A289D98Z4GAZ28","2022-05-26T23:45:34.947Z","rhyme-same_different-task_switching-phon_sim","","null","rhyme","<img src=""square.png"" width=""306"" height=""306"" style=""position: fixed;left:14%;top:30%""><img src=""square.png"" width=""306"" height=""306"" style=""position: fixed;left:64%;top:30%"">","null","","","","","","","","","","","","","","","","","","","","","","","","","","","","","","","","","","",""
"","","","","","html-keyboard-response","58","115477","0.0-6.0-2.13","A289D98Z4GAZ28","2022-05-26T23:45:34.947Z","rhyme-same_different-task_switching-phon_sim","","1498.1999999955297","rhyme","<div style=""border: 3px solid #000000; position: fixed;left:14%;top:30%""><img src=""visual/drawer.png"" width=""300""></div><div style=""border: 3px solid #000000; position: fixed;left:64%;top:30%""><img src=""visual/chair.png"" width=""300""></div>","arrowdown","","true","experiment","visual/drawer.png","visual/chair.png","ArrowDown","NR","","","","","","","","","","","","","","","","","","","","","","","","","","","",""
"","","","","","html-keyboard-response","59","115978","0.0-6.0-0.14","A289D98Z4GAZ28","2022-05-26T23:45:34.947Z","rhyme-same_different-task_switching-phon_sim","","null","rhyme","<div style=""font-size:60px;"">+</div>","null","500","","","","","","","","","","","","","","","","","","","","","","","","","","","","","","","","","",""
"","","","","","html-keyboard-response","60","116494","0.0-6.0-1.14","A289D98Z4GAZ28","2022-05-26T23:45:34.947Z","rhyme-same_different-task_switching-phon_sim","","null","rhyme","<img src=""square.png"" width=""306"" height=""306"" style=""position: fixed;left:14%;top:30%""><img src=""square.png"" width=""306"" height=""306"" style=""position: fixed;left:64%;top:30%"">","null","","","","","","","","","","","","","","","","","","","","","","","","","","","","","","","","","","",""
"","","","","","html-keyboard-response","61","118685","0.0-6.0-2.14","A289D98Z4GAZ28","2022-05-26T23:45:34.947Z","rhyme-same_different-task_switching-phon_sim","","2190.60000000149","rhyme","<div style=""border: 3px solid #000000; position: fixed;left:14%;top:30%""><img src=""visual/drawer.png"" width=""300""></div><div style=""border: 3px solid #000000; position: fixed;left:64%;top:30%""><img src=""visual/door.png"" width=""300""></div>","arrowup","","true","experiment","visual/drawer.png","visual/door.png","ArrowUp","non-ortho","","","","","","","","","","","","","","","","","","","","","","","","","","","",""
"","","","","","html-keyboard-response","62","119193","0.0-6.0-0.15","A289D98Z4GAZ28","2022-05-26T23:45:34.947Z","rhyme-same_different-task_switching-phon_sim","","null","rhyme","<div style=""font-size:60px;"">+</div>","null","500","","","","","","","","","","","","","","","","","","","","","","","","","","","","","","","","","",""
"","","","","","html-keyboard-response","63","119694","0.0-6.0-1.15","A289D98Z4GAZ28","2022-05-26T23:45:34.947Z","rhyme-same_different-task_switching-phon_sim","","null","rhyme","<img src=""square.png"" width=""306"" height=""306"" style=""position: fixed;left:14%;top:30%""><img src=""square.png"" width=""306"" height=""306"" style=""position: fixed;left:64%;top:30%"">","null","","","","","","","","","","","","","","","","","","","","","","","","","","","","","","","","","","",""
"","","","","","html-keyboard-response","64","120850","0.0-6.0-2.15","A289D98Z4GAZ28","2022-05-26T23:45:34.947Z","rhyme-same_different-task_switching-phon_sim","","1157.3999999985099","rhyme","<div style=""border: 3px solid #000000; position: fixed;left:14%;top:30%""><img src=""visual/sock.png"" width=""300""></div><div style=""border: 3px solid #000000; position: fixed;left:64%;top:30%""><img src=""visual/clock.png"" width=""300""></div>","arrowup","","true","experiment","visual/sock.png","visual/clock.png","ArrowUp","ortho","","","","","","","","","","","","","","","","","","","","","","","","","","","",""
"","","","","","html-keyboard-response","65","121857","0.0-6.0-0.16","A289D98Z4GAZ28","2022-05-26T23:45:34.947Z","rhyme-same_different-task_switching-phon_sim","","null","rhyme","<div style=""font-size:60px;"">+</div>","null","1000","","","","","","","","","","","","","","","","","","","","","","","","","","","","","","","","","",""
"","","","","","html-keyboard-response","66","122374","0.0-6.0-1.16","A289D98Z4GAZ28","2022-05-26T23:45:34.947Z","rhyme-same_different-task_switching-phon_sim","","null","rhyme","<img src=""square.png"" width=""306"" height=""306"" style=""position: fixed;left:14%;top:30%""><img src=""square.png"" width=""306"" height=""306"" style=""position: fixed;left:64%;top:30%"">","null","","","","","","","","","","","","","","","","","","","","","","","","","","","","","","","","","","",""
"","","","","","html-keyboard-response","67","123747","0.0-6.0-2.16","A289D98Z4GAZ28","2022-05-26T23:45:34.947Z","rhyme-same_different-task_switching-phon_sim","","1372.6000000014901","rhyme","<div style=""border: 3px solid #000000; position: fixed;left:14%;top:30%""><img src=""visual/cat.png"" width=""300""></div><div style=""border: 3px solid #000000; position: fixed;left:64%;top:30%""><img src=""visual/sock.png"" width=""300""></div>","arrowdown","","true","experiment","visual/cat.png","visual/sock.png","ArrowDown","NR","","","","","","","","","","","","","","","","","","","","","","","","","","","",""
"","","","","","html-keyboard-response","68","124007","0.0-6.0-0.17","A289D98Z4GAZ28","2022-05-26T23:45:34.947Z","rhyme-same_different-task_switching-phon_sim","","null","rhyme","<div style=""font-size:60px;"">+</div>","null","250","","","","","","","","","","","","","","","","","","","","","","","","","","","","","","","","","",""
"","","","","","html-keyboard-response","69","124508","0.0-6.0-1.17","A289D98Z4GAZ28","2022-05-26T23:45:34.947Z","rhyme-same_different-task_switching-phon_sim","","null","rhyme","<img src=""square.png"" width=""306"" height=""306"" style=""position: fixed;left:14%;top:30%""><img src=""square.png"" width=""306"" height=""306"" style=""position: fixed;left:64%;top:30%"">","null","","","","","","","","","","","","","","","","","","","","","","","","","","","","","","","","","","",""
"","","","","","html-keyboard-response","70","125867","0.0-6.0-2.17","A289D98Z4GAZ28","2022-05-26T23:45:34.947Z","rhyme-same_different-task_switching-phon_sim","","1357.6000000014901","rhyme","<div style=""border: 3px solid #000000; position: fixed;left:14%;top:30%""><img src=""visual/deer.png"" width=""300""></div><div style=""border: 3px solid #000000; position: fixed;left:64%;top:30%""><img src=""visual/beer.png"" width=""300""></div>","arrowup","","true","experiment","visual/deer.png","visual/beer.png","ArrowUp","ortho","","","","","","","","","","","","","","","","","","","","","","","","","","","",""
"","","","","","html-keyboard-response","71","126375","0.0-6.0-0.18","A289D98Z4GAZ28","2022-05-26T23:45:34.947Z","rhyme-same_different-task_switching-phon_sim","","null","rhyme","<div style=""font-size:60px;"">+</div>","null","500","","","","","","","","","","","","","","","","","","","","","","","","","","","","","","","","","",""
"","","","","","html-keyboard-response","72","126891","0.0-6.0-1.18","A289D98Z4GAZ28","2022-05-26T23:45:34.947Z","rhyme-same_different-task_switching-phon_sim","","null","rhyme","<img src=""square.png"" width=""306"" height=""306"" style=""position: fixed;left:14%;top:30%""><img src=""square.png"" width=""306"" height=""306"" style=""position: fixed;left:64%;top:30%"">","null","","","","","","","","","","","","","","","","","","","","","","","","","","","","","","","","","","",""
"","","","","","html-keyboard-response","73","128411","0.0-6.0-2.18","A289D98Z4GAZ28","2022-05-26T23:45:34.947Z","rhyme-same_different-task_switching-phon_sim","","1519.5","rhyme","<div style=""border: 3px solid #000000; position: fixed;left:14%;top:30%""><img src=""visual/plane.png"" width=""300""></div><div style=""border: 3px solid #000000; position: fixed;left:64%;top:30%""><img src=""visual/chain.png"" width=""300""></div>","arrowdown","","false","experiment","visual/plane.png","visual/chain.png","ArrowUp","non-ortho","","","","","","","","","","","","","","","","","","","","","","","","","","","",""
"","","","","","html-keyboard-response","74","129420","0.0-6.0-0.19","A289D98Z4GAZ28","2022-05-26T23:45:34.947Z","rhyme-same_different-task_switching-phon_sim","","null","rhyme","<div style=""font-size:60px;"">+</div>","null","1000","","","","","","","","","","","","","","","","","","","","","","","","","","","","","","","","","",""
"","","","","","html-keyboard-response","75","129925","0.0-6.0-1.19","A289D98Z4GAZ28","2022-05-26T23:45:34.947Z","rhyme-same_different-task_switching-phon_sim","","null","rhyme","<img src=""square.png"" width=""306"" height=""306"" style=""position: fixed;left:14%;top:30%""><img src=""square.png"" width=""306"" height=""306"" style=""position: fixed;left:64%;top:30%"">","null","","","","","","","","","","","","","","","","","","","","","","","","","","","","","","","","","","",""
"","","","","","html-keyboard-response","76","131563","0.0-6.0-2.19","A289D98Z4GAZ28","2022-05-26T23:45:34.947Z","rhyme-same_different-task_switching-phon_sim","","1637.1999999955297","rhyme","<div style=""border: 3px solid #000000; position: fixed;left:14%;top:30%""><img src=""visual/well.png"" width=""300""></div><div style=""border: 3px solid #000000; position: fixed;left:64%;top:30%""><img src=""visual/rose.png"" width=""300""></div>","arrowdown","","true","experiment","visual/well.png","visual/rose.png","ArrowDown","NR","","","","","","","","","","","","","","","","","","","","","","","","","","","",""
"","","","","","html-keyboard-response","77","131823","0.0-6.0-0.20","A289D98Z4GAZ28","2022-05-26T23:45:34.947Z","rhyme-same_different-task_switching-phon_sim","","null","rhyme","<div style=""font-size:60px;"">+</div>","null","250","","","","","","","","","","","","","","","","","","","","","","","","","","","","","","","","","",""
"","","","","","html-keyboard-response","78","132324","0.0-6.0-1.20","A289D98Z4GAZ28","2022-05-26T23:45:34.947Z","rhyme-same_different-task_switching-phon_sim","","null","rhyme","<img src=""square.png"" width=""306"" height=""306"" style=""position: fixed;left:14%;top:30%""><img src=""square.png"" width=""306"" height=""306"" style=""position: fixed;left:64%;top:30%"">","null","","","","","","","","","","","","","","","","","","","","","","","","","","","","","","","","","","",""
"","","","","","html-keyboard-response","79","133779","0.0-6.0-2.20","A289D98Z4GAZ28","2022-05-26T23:45:34.947Z","rhyme-same_different-task_switching-phon_sim","","1454","rhyme","<div style=""border: 3px solid #000000; position: fixed;left:14%;top:30%""><img src=""visual/soap.png"" width=""300""></div><div style=""border: 3px solid #000000; position: fixed;left:64%;top:30%""><img src=""visual/rope.png"" width=""300""></div>","arrowup","","true","experiment","visual/soap.png","visual/rope.png","ArrowUp","non-ortho","","","","","","","","","","","","","","","","","","","","","","","","","","","",""
"","","","","","html-keyboard-response","80","134540","0.0-6.0-0.21","A289D98Z4GAZ28","2022-05-26T23:45:34.947Z","rhyme-same_different-task_switching-phon_sim","","null","rhyme","<div style=""font-size:60px;"">+</div>","null","750","","","","","","","","","","","","","","","","","","","","","","","","","","","","","","","","","",""
"","","","","","html-keyboard-response","81","135041","0.0-6.0-1.21","A289D98Z4GAZ28","2022-05-26T23:45:34.947Z","rhyme-same_different-task_switching-phon_sim","","null","rhyme","<img src=""square.png"" width=""306"" height=""306"" style=""position: fixed;left:14%;top:30%""><img src=""square.png"" width=""306"" height=""306"" style=""position: fixed;left:64%;top:30%"">","null","","","","","","","","","","","","","","","","","","","","","","","","","","","","","","","","","","",""
"","","","","","html-keyboard-response","82","136371","0.0-6.0-2.21","A289D98Z4GAZ28","2022-05-26T23:45:34.947Z","rhyme-same_different-task_switching-phon_sim","","1329.2000000029802","rhyme","<div style=""border: 3px solid #000000; position: fixed;left:14%;top:30%""><img src=""visual/screw.png"" width=""300""></div><div style=""border: 3px solid #000000; position: fixed;left:64%;top:30%""><img src=""visual/shoe.png"" width=""300""></div>","arrowup","","true","experiment","visual/screw.png","visual/shoe.png","ArrowUp","non-ortho","","","","","","","","","","","","","","","","","","","","","","","","","","","",""
"","","","","","html-keyboard-response","83","137374","0.0-6.0-0.22","A289D98Z4GAZ28","2022-05-26T23:45:34.947Z","rhyme-same_different-task_switching-phon_sim","","null","rhyme","<div style=""font-size:60px;"">+</div>","null","1000","","","","","","","","","","","","","","","","","","","","","","","","","","","","","","","","","",""
"","","","","","html-keyboard-response","84","137890","0.0-6.0-1.22","A289D98Z4GAZ28","2022-05-26T23:45:34.947Z","rhyme-same_different-task_switching-phon_sim","","null","rhyme","<img src=""square.png"" width=""306"" height=""306"" style=""position: fixed;left:14%;top:30%""><img src=""square.png"" width=""306"" height=""306"" style=""position: fixed;left:64%;top:30%"">","null","","","","","","","","","","","","","","","","","","","","","","","","","","","","","","","","","","",""
"","","","","","html-keyboard-response","85","139443","0.0-6.0-2.22","A289D98Z4GAZ28","2022-05-26T23:45:34.947Z","rhyme-same_different-task_switching-phon_sim","","1552","rhyme","<div style=""border: 3px solid #000000; position: fixed;left:14%;top:30%""><img src=""visual/king.png"" width=""300""></div><div style=""border: 3px solid #000000; position: fixed;left:64%;top:30%""><img src=""visual/cab.png"" width=""300""></div>","arrowdown","","true","experiment","visual/king.png","visual/cab.png","ArrowDown","NR","","","","","","","","","","","","","","","","","","","","","","","","","","","",""
"","","","","","html-keyboard-response","86","139956","0.0-6.0-0.23","A289D98Z4GAZ28","2022-05-26T23:45:34.947Z","rhyme-same_different-task_switching-phon_sim","","null","rhyme","<div style=""font-size:60px;"">+</div>","null","500","","","","","","","","","","","","","","","","","","","","","","","","","","","","","","","","","",""
"","","","","","html-keyboard-response","87","140458","0.0-6.0-1.23","A289D98Z4GAZ28","2022-05-26T23:45:34.947Z","rhyme-same_different-task_switching-phon_sim","","null","rhyme","<img src=""square.png"" width=""306"" height=""306"" style=""position: fixed;left:14%;top:30%""><img src=""square.png"" width=""306"" height=""306"" style=""position: fixed;left:64%;top:30%"">","null","","","","","","","","","","","","","","","","","","","","","","","","","","","","","","","","","","",""
"","","","","","html-keyboard-response","88","142107","0.0-6.0-2.23","A289D98Z4GAZ28","2022-05-26T23:45:34.947Z","rhyme-same_different-task_switching-phon_sim","","1648.2999999970198","rhyme","<div style=""border: 3px solid #000000; position: fixed;left:14%;top:30%""><img src=""visual/tree.png"" width=""300""></div><div style=""border: 3px solid #000000; position: fixed;left:64%;top:30%""><img src=""visual/door.png"" width=""300""></div>","arrowdown","","true","experiment","visual/tree.png","visual/door.png","ArrowDown","NR","","","","","","","","","","","","","","","","","","","","","","","","","","","",""
"","","","","","html-keyboard-response","89","143108","0.0-6.0-0.24","A289D98Z4GAZ28","2022-05-26T23:45:34.947Z","rhyme-same_different-task_switching-phon_sim","","null","rhyme","<div style=""font-size:60px;"">+</div>","null","1000","","","","","","","","","","","","","","","","","","","","","","","","","","","","","","","","","",""
"","","","","","html-keyboard-response","90","143623","0.0-6.0-1.24","A289D98Z4GAZ28","2022-05-26T23:45:34.947Z","rhyme-same_different-task_switching-phon_sim","","null","rhyme","<img src=""square.png"" width=""306"" height=""306"" style=""position: fixed;left:14%;top:30%""><img src=""square.png"" width=""306"" height=""306"" style=""position: fixed;left:64%;top:30%"">","null","","","","","","","","","","","","","","","","","","","","","","","","","","","","","","","","","","",""
"","","","","","html-keyboard-response","91","144939","0.0-6.0-2.24","A289D98Z4GAZ28","2022-05-26T23:45:34.947Z","rhyme-same_different-task_switching-phon_sim","","1314.6999999955297","rhyme","<div style=""border: 3px solid #000000; position: fixed;left:14%;top:30%""><img src=""visual/chain.png"" width=""300""></div><div style=""border: 3px solid #000000; position: fixed;left:64%;top:30%""><img src=""visual/brain.png"" width=""300""></div>","arrowup","","true","experiment","visual/chain.png","visual/brain.png","ArrowUp","ortho","","","","","","","","","","","","","","","","","","","","","","","","","","","",""
"","","","","","html-keyboard-response","92","145440","0.0-6.0-0.25","A289D98Z4GAZ28","2022-05-26T23:45:34.947Z","rhyme-same_different-task_switching-phon_sim","","null","rhyme","<div style=""font-size:60px;"">+</div>","null","500","","","","","","","","","","","","","","","","","","","","","","","","","","","","","","","","","",""
"","","","","","html-keyboard-response","93","145941","0.0-6.0-1.25","A289D98Z4GAZ28","2022-05-26T23:45:34.947Z","rhyme-same_different-task_switching-phon_sim","","null","rhyme","<img src=""square.png"" width=""306"" height=""306"" style=""position: fixed;left:14%;top:30%""><img src=""square.png"" width=""306"" height=""306"" style=""position: fixed;left:64%;top:30%"">","null","","","","","","","","","","","","","","","","","","","","","","","","","","","","","","","","","","",""
"","","","","","html-keyboard-response","94","147275","0.0-6.0-2.25","A289D98Z4GAZ28","2022-05-26T23:45:34.947Z","rhyme-same_different-task_switching-phon_sim","","1333","rhyme","<div style=""border: 3px solid #000000; position: fixed;left:14%;top:30%""><img src=""visual/nose.png"" width=""300""></div><div style=""border: 3px solid #000000; position: fixed;left:64%;top:30%""><img src=""visual/bell.png"" width=""300""></div>","arrowdown","","true","experiment","visual/nose.png","visual/bell.png","ArrowDown","NR","","","","","","","","","","","","","","","","","","","","","","","","","","","",""
"","","","","","html-keyboard-response","95","147539","0.0-6.0-0.26","A289D98Z4GAZ28","2022-05-26T23:45:34.947Z","rhyme-same_different-task_switching-phon_sim","","null","rhyme","<div style=""font-size:60px;"">+</div>","null","250","","","","","","","","","","","","","","","","","","","","","","","","","","","","","","","","","",""
"","","","","","html-keyboard-response","96","148041","0.0-6.0-1.26","A289D98Z4GAZ28","2022-05-26T23:45:34.947Z","rhyme-same_different-task_switching-phon_sim","","null","rhyme","<img src=""square.png"" width=""306"" height=""306"" style=""position: fixed;left:14%;top:30%""><img src=""square.png"" width=""306"" height=""306"" style=""position: fixed;left:64%;top:30%"">","null","","","","","","","","","","","","","","","","","","","","","","","","","","","","","","","","","","",""
"","","","","","html-keyboard-response","97","149451","0.0-6.0-2.26","A289D98Z4GAZ28","2022-05-26T23:45:34.947Z","rhyme-same_different-task_switching-phon_sim","","1409","rhyme","<div style=""border: 3px solid #000000; position: fixed;left:14%;top:30%""><img src=""visual/soap.png"" width=""300""></div><div style=""border: 3px solid #000000; position: fixed;left:64%;top:30%""><img src=""visual/shoe.png"" width=""300""></div>","arrowdown","","true","experiment","visual/soap.png","visual/shoe.png","ArrowDown","NR","","","","","","","","","","","","","","","","","","","","","","","","","","","",""
"","","","","","html-keyboard-response","98","150455","0.0-6.0-0.27","A289D98Z4GAZ28","2022-05-26T23:45:34.947Z","rhyme-same_different-task_switching-phon_sim","","null","rhyme","<div style=""font-size:60px;"">+</div>","null","1000","","","","","","","","","","","","","","","","","","","","","","","","","","","","","","","","","",""
"","","","","","html-keyboard-response","99","150957","0.0-6.0-1.27","A289D98Z4GAZ28","2022-05-26T23:45:34.947Z","rhyme-same_different-task_switching-phon_sim","","null","rhyme","<img src=""square.png"" width=""306"" height=""306"" style=""position: fixed;left:14%;top:30%""><img src=""square.png"" width=""306"" height=""306"" style=""position: fixed;left:64%;top:30%"">","null","","","","","","","","","","","","","","","","","","","","","","","","","","","","","","","","","","",""
"","","","","","html-keyboard-response","100","152163","0.0-6.0-2.27","A289D98Z4GAZ28","2022-05-26T23:45:34.947Z","rhyme-same_different-task_switching-phon_sim","","1204.8999999985099","rhyme","<div style=""border: 3px solid #000000; position: fixed;left:14%;top:30%""><img src=""visual/train.png"" width=""300""></div><div style=""border: 3px solid #000000; position: fixed;left:64%;top:30%""><img src=""visual/screw.png"" width=""300""></div>","arrowdown","","true","experiment","visual/train.png","visual/screw.png","ArrowDown","NR","","","","","","","","","","","","","","","","","","","","","","","","","","","",""
"","","","","","html-keyboard-response","101","153171","0.0-6.0-0.28","A289D98Z4GAZ28","2022-05-26T23:45:34.947Z","rhyme-same_different-task_switching-phon_sim","","null","rhyme","<div style=""font-size:60px;"">+</div>","null","1000","","","","","","","","","","","","","","","","","","","","","","","","","","","","","","","","","",""
"","","","","","html-keyboard-response","102","153674","0.0-6.0-1.28","A289D98Z4GAZ28","2022-05-26T23:45:34.947Z","rhyme-same_different-task_switching-phon_sim","","null","rhyme","<img src=""square.png"" width=""306"" height=""306"" style=""position: fixed;left:14%;top:30%""><img src=""square.png"" width=""306"" height=""306"" style=""position: fixed;left:64%;top:30%"">","null","","","","","","","","","","","","","","","","","","","","","","","","","","","","","","","","","","",""
"","","","","","html-keyboard-response","103","154859","0.0-6.0-2.28","A289D98Z4GAZ28","2022-05-26T23:45:34.947Z","rhyme-same_different-task_switching-phon_sim","","1184.3999999985099","rhyme","<div style=""border: 3px solid #000000; position: fixed;left:14%;top:30%""><img src=""visual/drum.png"" width=""300""></div><div style=""border: 3px solid #000000; position: fixed;left:64%;top:30%""><img src=""visual/thumb.png"" width=""300""></div>","arrowup","","true","experiment","visual/drum.png","visual/thumb.png","ArrowUp","non-ortho","","","","","","","","","","","","","","","","","","","","","","","","","","","",""
"","","","","","html-keyboard-response","104","155122","0.0-6.0-0.29","A289D98Z4GAZ28","2022-05-26T23:45:34.947Z","rhyme-same_different-task_switching-phon_sim","","null","rhyme","<div style=""font-size:60px;"">+</div>","null","250","","","","","","","","","","","","","","","","","","","","","","","","","","","","","","","","","",""
"","","","","","html-keyboard-response","105","155638","0.0-6.0-1.29","A289D98Z4GAZ28","2022-05-26T23:45:34.947Z","rhyme-same_different-task_switching-phon_sim","","null","rhyme","<img src=""square.png"" width=""306"" height=""306"" style=""position: fixed;left:14%;top:30%""><img src=""square.png"" width=""306"" height=""306"" style=""position: fixed;left:64%;top:30%"">","null","","","","","","","","","","","","","","","","","","","","","","","","","","","","","","","","","","",""
"","","","","","html-keyboard-response","106","157267","0.0-6.0-2.29","A289D98Z4GAZ28","2022-05-26T23:45:34.947Z","rhyme-same_different-task_switching-phon_sim","","1627.7999999970198","rhyme","<div style=""border: 3px solid #000000; position: fixed;left:14%;top:30%""><img src=""visual/bear.png"" width=""300""></div><div style=""border: 3px solid #000000; position: fixed;left:64%;top:30%""><img src=""visual/hair.png"" width=""300""></div>","arrowup","","true","experiment","visual/bear.png","visual/hair.png","ArrowUp","non-ortho","","","","","","","","","","","","","","","","","","","","","","","","","","","",""
"","","","","","html-keyboard-response","107","157522","0.0-6.0-0.30","A289D98Z4GAZ28","2022-05-26T23:45:34.947Z","rhyme-same_different-task_switching-phon_sim","","null","rhyme","<div style=""font-size:60px;"">+</div>","null","250","","","","","","","","","","","","","","","","","","","","","","","","","","","","","","","","","",""
"","","","","","html-keyboard-response","108","158024","0.0-6.0-1.30","A289D98Z4GAZ28","2022-05-26T23:45:34.947Z","rhyme-same_different-task_switching-phon_sim","","null","rhyme","<img src=""square.png"" width=""306"" height=""306"" style=""position: fixed;left:14%;top:30%""><img src=""square.png"" width=""306"" height=""306"" style=""position: fixed;left:64%;top:30%"">","null","","","","","","","","","","","","","","","","","","","","","","","","","","","","","","","","","","",""
"","","","","","html-keyboard-response","109","159179","0.0-6.0-2.30","A289D98Z4GAZ28","2022-05-26T23:45:34.947Z","rhyme-same_different-task_switching-phon_sim","","1154.5","rhyme","<div style=""border: 3px solid #000000; position: fixed;left:14%;top:30%""><img src=""visual/saw.png"" width=""300""></div><div style=""border: 3px solid #000000; position: fixed;left:64%;top:30%""><img src=""visual/claw.png"" width=""300""></div>","arrowup","","true","experiment","visual/saw.png","visual/claw.png","ArrowUp","ortho","","","","","","","","","","","","","","","","","","","","","","","","","","","",""
"","","","","","html-keyboard-response","110","159688","0.0-6.0-0.31","A289D98Z4GAZ28","2022-05-26T23:45:34.947Z","rhyme-same_different-task_switching-phon_sim","","null","rhyme","<div style=""font-size:60px;"">+</div>","null","500","","","","","","","","","","","","","","","","","","","","","","","","","","","","","","","","","",""
"","","","","","html-keyboard-response","111","160190","0.0-6.0-1.31","A289D98Z4GAZ28","2022-05-26T23:45:34.947Z","rhyme-same_different-task_switching-phon_sim","","null","rhyme","<img src=""square.png"" width=""306"" height=""306"" style=""position: fixed;left:14%;top:30%""><img src=""square.png"" width=""306"" height=""306"" style=""position: fixed;left:64%;top:30%"">","null","","","","","","","","","","","","","","","","","","","","","","","","","","","","","","","","","","",""
"","","","","","html-keyboard-response","112","162203","0.0-6.0-2.31","A289D98Z4GAZ28","2022-05-26T23:45:34.947Z","rhyme-same_different-task_switching-phon_sim","","2012.4000000059605","rhyme","<div style=""border: 3px solid #000000; position: fixed;left:14%;top:30%""><img src=""visual/key.png"" width=""300""></div><div style=""border: 3px solid #000000; position: fixed;left:64%;top:30%""><img src=""visual/tree.png"" width=""300""></div>","arrowup","","true","experiment","visual/key.png","visual/tree.png","ArrowUp","non-ortho","","","","","","","","","","","","","","","","","","","","","","","","","","","",""
"","","","","","html-keyboard-response","113","162456","0.0-6.0-0.32","A289D98Z4GAZ28","2022-05-26T23:45:34.947Z","rhyme-same_different-task_switching-phon_sim","","null","rhyme","<div style=""font-size:60px;"">+</div>","null","250","","","","","","","","","","","","","","","","","","","","","","","","","","","","","","","","","",""
"","","","","","html-keyboard-response","114","162972","0.0-6.0-1.32","A289D98Z4GAZ28","2022-05-26T23:45:34.947Z","rhyme-same_different-task_switching-phon_sim","","null","rhyme","<img src=""square.png"" width=""306"" height=""306"" style=""position: fixed;left:14%;top:30%""><img src=""square.png"" width=""306"" height=""306"" style=""position: fixed;left:64%;top:30%"">","null","","","","","","","","","","","","","","","","","","","","","","","","","","","","","","","","","","",""
"","","","","","html-keyboard-response","115","164531","0.0-6.0-2.32","A289D98Z4GAZ28","2022-05-26T23:45:34.947Z","rhyme-same_different-task_switching-phon_sim","","1557.7999999970198","rhyme","<div style=""border: 3px solid #000000; position: fixed;left:14%;top:30%""><img src=""visual/box.png"" width=""300""></div><div style=""border: 3px solid #000000; position: fixed;left:64%;top:30%""><img src=""visual/fox.png"" width=""300""></div>","arrowup","","true","experiment","visual/box.png","visual/fox.png","ArrowUp","ortho","","","","","","","","","","","","","","","","","","","","","","","","","","","",""
"","","","","","html-keyboard-response","116","165538","0.0-6.0-0.33","A289D98Z4GAZ28","2022-05-26T23:45:34.947Z","rhyme-same_different-task_switching-phon_sim","","null","rhyme","<div style=""font-size:60px;"">+</div>","null","1000","","","","","","","","","","","","","","","","","","","","","","","","","","","","","","","","","",""
"","","","","","html-keyboard-response","117","166040","0.0-6.0-1.33","A289D98Z4GAZ28","2022-05-26T23:45:34.947Z","rhyme-same_different-task_switching-phon_sim","","null","rhyme","<img src=""square.png"" width=""306"" height=""306"" style=""position: fixed;left:14%;top:30%""><img src=""square.png"" width=""306"" height=""306"" style=""position: fixed;left:64%;top:30%"">","null","","","","","","","","","","","","","","","","","","","","","","","","","","","","","","","","","","",""
"","","","","","html-keyboard-response","118","167715","0.0-6.0-2.33","A289D98Z4GAZ28","2022-05-26T23:45:34.947Z","rhyme-same_different-task_switching-phon_sim","","1674.2999999970198","rhyme","<div style=""border: 3px solid #000000; position: fixed;left:14%;top:30%""><img src=""visual/snail.png"" width=""300""></div><div style=""border: 3px solid #000000; position: fixed;left:64%;top:30%""><img src=""visual/whale.png"" width=""300""></div>","arrowup","","true","experiment","visual/snail.png","visual/whale.png","ArrowUp","non-ortho","","","","","","","","","","","","","","","","","","","","","","","","","","","",""
"","","","","","html-keyboard-response","119","167971","0.0-6.0-0.34","A289D98Z4GAZ28","2022-05-26T23:45:34.947Z","rhyme-same_different-task_switching-phon_sim","","null","rhyme","<div style=""font-size:60px;"">+</div>","null","250","","","","","","","","","","","","","","","","","","","","","","","","","","","","","","","","","",""
"","","","","","html-keyboard-response","120","168473","0.0-6.0-1.34","A289D98Z4GAZ28","2022-05-26T23:45:34.947Z","rhyme-same_different-task_switching-phon_sim","","null","rhyme","<img src=""square.png"" width=""306"" height=""306"" style=""position: fixed;left:14%;top:30%""><img src=""square.png"" width=""306"" height=""306"" style=""position: fixed;left:64%;top:30%"">","null","","","","","","","","","","","","","","","","","","","","","","","","","","","","","","","","","","",""
"","","","","","html-keyboard-response","121","170275","0.0-6.0-2.34","A289D98Z4GAZ28","2022-05-26T23:45:34.947Z","rhyme-same_different-task_switching-phon_sim","","1800.5","rhyme","<div style=""border: 3px solid #000000; position: fixed;left:14%;top:30%""><img src=""visual/nail.png"" width=""300""></div><div style=""border: 3px solid #000000; position: fixed;left:64%;top:30%""><img src=""visual/whale.png"" width=""300""></div>","arrowup","","true","experiment","visual/nail.png","visual/whale.png","ArrowUp","non-ortho","","","","","","","","","","","","","","","","","","","","","","","","","","","",""
"","","","","","html-keyboard-response","122","171038","0.0-6.0-0.35","A289D98Z4GAZ28","2022-05-26T23:45:34.947Z","rhyme-same_different-task_switching-phon_sim","","null","rhyme","<div style=""font-size:60px;"">+</div>","null","750","","","","","","","","","","","","","","","","","","","","","","","","","","","","","","","","","",""
"","","","","","html-keyboard-response","123","171540","0.0-6.0-1.35","A289D98Z4GAZ28","2022-05-26T23:45:34.947Z","rhyme-same_different-task_switching-phon_sim","","null","rhyme","<img src=""square.png"" width=""306"" height=""306"" style=""position: fixed;left:14%;top:30%""><img src=""square.png"" width=""306"" height=""306"" style=""position: fixed;left:64%;top:30%"">","null","","","","","","","","","","","","","","","","","","","","","","","","","","","","","","","","","","",""
"","","","","","html-keyboard-response","124","173363","0.0-6.0-2.35","A289D98Z4GAZ28","2022-05-26T23:45:34.947Z","rhyme-same_different-task_switching-phon_sim","","1822.1999999955297","rhyme","<div style=""border: 3px solid #000000; position: fixed;left:14%;top:30%""><img src=""visual/shark.png"" width=""300""></div><div style=""border: 3px solid #000000; position: fixed;left:64%;top:30%""><img src=""visual/moon.png"" width=""300""></div>","arrowdown","","true","experiment","visual/shark.png","visual/moon.png","ArrowDown","NR","","","","","","","","","","","","","","","","","","","","","","","","","","","",""
"","","","","","html-keyboard-response","125","173621","0.0-6.0-0.36","A289D98Z4GAZ28","2022-05-26T23:45:34.947Z","rhyme-same_different-task_switching-phon_sim","","null","rhyme","<div style=""font-size:60px;"">+</div>","null","250","","","","","","","","","","","","","","","","","","","","","","","","","","","","","","","","","",""
"","","","","","html-keyboard-response","126","174123","0.0-6.0-1.36","A289D98Z4GAZ28","2022-05-26T23:45:34.947Z","rhyme-same_different-task_switching-phon_sim","","null","rhyme","<img src=""square.png"" width=""306"" height=""306"" style=""position: fixed;left:14%;top:30%""><img src=""square.png"" width=""306"" height=""306"" style=""position: fixed;left:64%;top:30%"">","null","","","","","","","","","","","","","","","","","","","","","","","","","","","","","","","","","","",""
"","","","","","html-keyboard-response","127","175403","0.0-6.0-2.36","A289D98Z4GAZ28","2022-05-26T23:45:34.947Z","rhyme-same_different-task_switching-phon_sim","","1279.2999999970198","rhyme","<div style=""border: 3px solid #000000; position: fixed;left:14%;top:30%""><img src=""visual/cat.png"" width=""300""></div><div style=""border: 3px solid #000000; position: fixed;left:64%;top:30%""><img src=""visual/hat.png"" width=""300""></div>","arrowup","","true","experiment","visual/cat.png","visual/hat.png","ArrowUp","ortho","","","","","","","","","","","","","","","","","","","","","","","","","","","",""
"","","","","","html-keyboard-response","128","175656","0.0-6.0-0.37","A289D98Z4GAZ28","2022-05-26T23:45:34.947Z","rhyme-same_different-task_switching-phon_sim","","null","rhyme","<div style=""font-size:60px;"">+</div>","null","250","","","","","","","","","","","","","","","","","","","","","","","","","","","","","","","","","",""
"","","","","","html-keyboard-response","129","176171","0.0-6.0-1.37","A289D98Z4GAZ28","2022-05-26T23:45:34.947Z","rhyme-same_different-task_switching-phon_sim","","null","rhyme","<img src=""square.png"" width=""306"" height=""306"" style=""position: fixed;left:14%;top:30%""><img src=""square.png"" width=""306"" height=""306"" style=""position: fixed;left:64%;top:30%"">","null","","","","","","","","","","","","","","","","","","","","","","","","","","","","","","","","","","",""
"","","","","","html-keyboard-response","130","177739","0.0-6.0-2.37","A289D98Z4GAZ28","2022-05-26T23:45:34.947Z","rhyme-same_different-task_switching-phon_sim","","1567.1999999955297","rhyme","<div style=""border: 3px solid #000000; position: fixed;left:14%;top:30%""><img src=""visual/chair.png"" width=""300""></div><div style=""border: 3px solid #000000; position: fixed;left:64%;top:30%""><img src=""visual/pear.png"" width=""300""></div>","arrowup","","true","experiment","visual/chair.png","visual/pear.png","ArrowUp","non-ortho","","","","","","","","","","","","","","","","","","","","","","","","","","","",""
"","","","","","html-keyboard-response","131","178504","0.0-6.0-0.38","A289D98Z4GAZ28","2022-05-26T23:45:34.947Z","rhyme-same_different-task_switching-phon_sim","","null","rhyme","<div style=""font-size:60px;"">+</div>","null","750","","","","","","","","","","","","","","","","","","","","","","","","","","","","","","","","","",""
"","","","","","html-keyboard-response","132","179006","0.0-6.0-1.38","A289D98Z4GAZ28","2022-05-26T23:45:34.947Z","rhyme-same_different-task_switching-phon_sim","","null","rhyme","<img src=""square.png"" width=""306"" height=""306"" style=""position: fixed;left:14%;top:30%""><img src=""square.png"" width=""306"" height=""306"" style=""position: fixed;left:64%;top:30%"">","null","","","","","","","","","","","","","","","","","","","","","","","","","","","","","","","","","","",""
"","","","","","html-keyboard-response","133","180843","0.0-6.0-2.38","A289D98Z4GAZ28","2022-05-26T23:45:34.947Z","rhyme-same_different-task_switching-phon_sim","","1835.8999999985099","rhyme","<div style=""border: 3px solid #000000; position: fixed;left:14%;top:30%""><img src=""visual/dart.png"" width=""300""></div><div style=""border: 3px solid #000000; position: fixed;left:64%;top:30%""><img src=""visual/heart.png"" width=""300""></div>","arrowup","","true","experiment","visual/dart.png","visual/heart.png","ArrowUp","non-ortho","","","","","","","","","","","","","","","","","","","","","","","","","","","",""
"","","","","","html-keyboard-response","134","181857","0.0-6.0-0.39","A289D98Z4GAZ28","2022-05-26T23:45:34.947Z","rhyme-same_different-task_switching-phon_sim","","null","rhyme","<div style=""font-size:60px;"">+</div>","null","1000","","","","","","","","","","","","","","","","","","","","","","","","","","","","","","","","","",""
"","","","","","html-keyboard-response","135","182373","0.0-6.0-1.39","A289D98Z4GAZ28","2022-05-26T23:45:34.947Z","rhyme-same_different-task_switching-phon_sim","","null","rhyme","<img src=""square.png"" width=""306"" height=""306"" style=""position: fixed;left:14%;top:30%""><img src=""square.png"" width=""306"" height=""306"" style=""position: fixed;left:64%;top:30%"">","null","","","","","","","","","","","","","","","","","","","","","","","","","","","","","","","","","","",""
"","","","","","html-keyboard-response","136","183549","0.0-6.0-2.39","A289D98Z4GAZ28","2022-05-26T23:45:34.947Z","rhyme-same_different-task_switching-phon_sim","","1174.6999999955297","rhyme","<div style=""border: 3px solid #000000; position: fixed;left:14%;top:30%""><img src=""visual/rose.png"" width=""300""></div><div style=""border: 3px solid #000000; position: fixed;left:64%;top:30%""><img src=""visual/nose.png"" width=""300""></div>","arrowup","","true","experiment","visual/rose.png","visual/nose.png","ArrowUp","ortho","","","","","","","","","","","","","","","","","","","","","","","","","","","",""
"","","","","","html-keyboard-response","137","183806","0.0-6.0-0.40","A289D98Z4GAZ28","2022-05-26T23:45:34.947Z","rhyme-same_different-task_switching-phon_sim","","null","rhyme","<div style=""font-size:60px;"">+</div>","null","250","","","","","","","","","","","","","","","","","","","","","","","","","","","","","","","","","",""
"","","","","","html-keyboard-response","138","184307","0.0-6.0-1.40","A289D98Z4GAZ28","2022-05-26T23:45:34.947Z","rhyme-same_different-task_switching-phon_sim","","null","rhyme","<img src=""square.png"" width=""306"" height=""306"" style=""position: fixed;left:14%;top:30%""><img src=""square.png"" width=""306"" height=""306"" style=""position: fixed;left:64%;top:30%"">","null","","","","","","","","","","","","","","","","","","","","","","","","","","","","","","","","","","",""
"","","","","","html-keyboard-response","139","186509","0.0-6.0-2.40","A289D98Z4GAZ28","2022-05-26T23:45:34.947Z","rhyme-same_different-task_switching-phon_sim","","2201.0999999940395","rhyme","<div style=""border: 3px solid #000000; position: fixed;left:14%;top:30%""><img src=""visual/jar.png"" width=""300""></div><div style=""border: 3px solid #000000; position: fixed;left:64%;top:30%""><img src=""visual/whale.png"" width=""300""></div>","arrowdown","","true","experiment","visual/jar.png","visual/whale.png","ArrowDown","NR","","","","","","","","","","","","","","","","","","","","","","","","","","","",""
"","","","","","html-keyboard-response","140","187523","0.0-6.0-0.41","A289D98Z4GAZ28","2022-05-26T23:45:34.947Z","rhyme-same_different-task_switching-phon_sim","","null","rhyme","<div style=""font-size:60px;"">+</div>","null","1000","","","","","","","","","","","","","","","","","","","","","","","","","","","","","","","","","",""
"","","","","","html-keyboard-response","141","188024","0.0-6.0-1.41","A289D98Z4GAZ28","2022-05-26T23:45:34.947Z","rhyme-same_different-task_switching-phon_sim","","null","rhyme","<img src=""square.png"" width=""306"" height=""306"" style=""position: fixed;left:14%;top:30%""><img src=""square.png"" width=""306"" height=""306"" style=""position: fixed;left:64%;top:30%"">","null","","","","","","","","","","","","","","","","","","","","","","","","","","","","","","","","","","",""
"","","","","","html-keyboard-response","142","190237","0.0-6.0-2.41","A289D98Z4GAZ28","2022-05-26T23:45:34.947Z","rhyme-same_different-task_switching-phon_sim","","2211.7999999970198","rhyme","<div style=""border: 3px solid #000000; position: fixed;left:14%;top:30%""><img src=""visual/bin.png"" width=""300""></div><div style=""border: 3px solid #000000; position: fixed;left:64%;top:30%""><img src=""visual/chin.png"" width=""300""></div>","arrowdown","","false","experiment","visual/bin.png","visual/chin.png","ArrowUp","ortho","","","","","","","","","","","","","","","","","","","","","","","","","","","",""
"","","","","","html-keyboard-response","143","190991","0.0-6.0-0.42","A289D98Z4GAZ28","2022-05-26T23:45:34.947Z","rhyme-same_different-task_switching-phon_sim","","null","rhyme","<div style=""font-size:60px;"">+</div>","null","750","","","","","","","","","","","","","","","","","","","","","","","","","","","","","","","","","",""
"","","","","","html-keyboard-response","144","191507","0.0-6.0-1.42","A289D98Z4GAZ28","2022-05-26T23:45:34.947Z","rhyme-same_different-task_switching-phon_sim","","null","rhyme","<img src=""square.png"" width=""306"" height=""306"" style=""position: fixed;left:14%;top:30%""><img src=""square.png"" width=""306"" height=""306"" style=""position: fixed;left:64%;top:30%"">","null","","","","","","","","","","","","","","","","","","","","","","","","","","","","","","","","","","",""
"","","","","","html-keyboard-response","145","193613","0.0-6.0-2.42","A289D98Z4GAZ28","2022-05-26T23:45:34.947Z","rhyme-same_different-task_switching-phon_sim","","2105","rhyme","<div style=""border: 3px solid #000000; position: fixed;left:14%;top:30%""><img src=""visual/dart.png"" width=""300""></div><div style=""border: 3px solid #000000; position: fixed;left:64%;top:30%""><img src=""visual/tie.png"" width=""300""></div>","arrowdown","","true","experiment","visual/dart.png","visual/tie.png","ArrowDown","NR","","","","","","","","","","","","","","","","","","","","","","","","","","","",""
"","","","","","html-keyboard-response","146","194372","0.0-6.0-0.43","A289D98Z4GAZ28","2022-05-26T23:45:34.947Z","rhyme-same_different-task_switching-phon_sim","","null","rhyme","<div style=""font-size:60px;"">+</div>","null","750","","","","","","","","","","","","","","","","","","","","","","","","","","","","","","","","","",""
"","","","","","html-keyboard-response","147","194874","0.0-6.0-1.43","A289D98Z4GAZ28","2022-05-26T23:45:34.947Z","rhyme-same_different-task_switching-phon_sim","","null","rhyme","<img src=""square.png"" width=""306"" height=""306"" style=""position: fixed;left:14%;top:30%""><img src=""square.png"" width=""306"" height=""306"" style=""position: fixed;left:64%;top:30%"">","null","","","","","","","","","","","","","","","","","","","","","","","","","","","","","","","","","","",""
"","","","","","html-keyboard-response","148","196597","0.0-6.0-2.43","A289D98Z4GAZ28","2022-05-26T23:45:34.947Z","rhyme-same_different-task_switching-phon_sim","","1722.5","rhyme","<div style=""border: 3px solid #000000; position: fixed;left:14%;top:30%""><img src=""visual/bone.png"" width=""300""></div><div style=""border: 3px solid #000000; position: fixed;left:64%;top:30%""><img src=""visual/cone.png"" width=""300""></div>","arrowup","","true","experiment","visual/bone.png","visual/cone.png","ArrowUp","ortho","","","","","","","","","","","","","","","","","","","","","","","","","","","",""
"","","","","","html-keyboard-response","149","196856","0.0-6.0-0.44","A289D98Z4GAZ28","2022-05-26T23:45:34.947Z","rhyme-same_different-task_switching-phon_sim","","null","rhyme","<div style=""font-size:60px;"">+</div>","null","250","","","","","","","","","","","","","","","","","","","","","","","","","","","","","","","","","",""
"","","","","","html-keyboard-response","150","197373","0.0-6.0-1.44","A289D98Z4GAZ28","2022-05-26T23:45:34.947Z","rhyme-same_different-task_switching-phon_sim","","null","rhyme","<img src=""square.png"" width=""306"" height=""306"" style=""position: fixed;left:14%;top:30%""><img src=""square.png"" width=""306"" height=""306"" style=""position: fixed;left:64%;top:30%"">","null","","","","","","","","","","","","","","","","","","","","","","","","","","","","","","","","","","",""
"","","","","","html-keyboard-response","151","199445","0.0-6.0-2.44","A289D98Z4GAZ28","2022-05-26T23:45:34.947Z","rhyme-same_different-task_switching-phon_sim","","2071.39999999851","rhyme","<div style=""border: 3px solid #000000; position: fixed;left:14%;top:30%""><img src=""visual/fan.png"" width=""300""></div><div style=""border: 3px solid #000000; position: fixed;left:64%;top:30%""><img src=""visual/man.png"" width=""300""></div>","arrowup","","true","experiment","visual/fan.png","visual/man.png","ArrowUp","ortho","","","","","","","","","","","","","","","","","","","","","","","","","","","",""
"","","","","","html-keyboard-response","152","199706","0.0-6.0-0.45","A289D98Z4GAZ28","2022-05-26T23:45:34.947Z","rhyme-same_different-task_switching-phon_sim","","null","rhyme","<div style=""font-size:60px;"">+</div>","null","250","","","","","","","","","","","","","","","","","","","","","","","","","","","","","","","","","",""
"","","","","","html-keyboard-response","153","200207","0.0-6.0-1.45","A289D98Z4GAZ28","2022-05-26T23:45:34.947Z","rhyme-same_different-task_switching-phon_sim","","null","rhyme","<img src=""square.png"" width=""306"" height=""306"" style=""position: fixed;left:14%;top:30%""><img src=""square.png"" width=""306"" height=""306"" style=""position: fixed;left:64%;top:30%"">","null","","","","","","","","","","","","","","","","","","","","","","","","","","","","","","","","","","",""
"","","","","","html-keyboard-response","154","202389","0.0-6.0-2.45","A289D98Z4GAZ28","2022-05-26T23:45:34.947Z","rhyme-same_different-task_switching-phon_sim","","2181.10000000149","rhyme","<div style=""border: 3px solid #000000; position: fixed;left:14%;top:30%""><img src=""visual/bear.png"" width=""300""></div><div style=""border: 3px solid #000000; position: fixed;left:64%;top:30%""><img src=""visual/square_rhyme.png"" width=""300""></div>","arrowdown","","false","experiment","visual/bear.png","visual/square_rhyme.png","ArrowUp","non-ortho","","","","","","","","","","","","","","","","","","","","","","","","","","","",""
"","","","","","html-keyboard-response","155","203155","0.0-6.0-0.46","A289D98Z4GAZ28","2022-05-26T23:45:34.947Z","rhyme-same_different-task_switching-phon_sim","","null","rhyme","<div style=""font-size:60px;"">+</div>","null","750","","","","","","","","","","","","","","","","","","","","","","","","","","","","","","","","","",""
"","","","","","html-keyboard-response","156","203657","0.0-6.0-1.46","A289D98Z4GAZ28","2022-05-26T23:45:34.947Z","rhyme-same_different-task_switching-phon_sim","","null","rhyme","<img src=""square.png"" width=""306"" height=""306"" style=""position: fixed;left:14%;top:30%""><img src=""square.png"" width=""306"" height=""306"" style=""position: fixed;left:64%;top:30%"">","null","","","","","","","","","","","","","","","","","","","","","","","","","","","","","","","","","","",""
"","","","","","html-keyboard-response","157","206253","0.0-6.0-2.46","A289D98Z4GAZ28","2022-05-26T23:45:34.947Z","rhyme-same_different-task_switching-phon_sim","","2595.3000000044703","rhyme","<div style=""border: 3px solid #000000; position: fixed;left:14%;top:30%""><img src=""visual/bear.png"" width=""300""></div><div style=""border: 3px solid #000000; position: fixed;left:64%;top:30%""><img src=""visual/crane.png"" width=""300""></div>","arrowdown","","true","experiment","visual/bear.png","visual/crane.png","ArrowDown","NR","","","","","","","","","","","","","","","","","","","","","","","","","","","",""
"","","","","","html-keyboard-response","158","207256","0.0-6.0-0.47","A289D98Z4GAZ28","2022-05-26T23:45:34.947Z","rhyme-same_different-task_switching-phon_sim","","null","rhyme","<div style=""font-size:60px;"">+</div>","null","1000","","","","","","","","","","","","","","","","","","","","","","","","","","","","","","","","","",""
"","","","","","html-keyboard-response","159","207772","0.0-6.0-1.47","A289D98Z4GAZ28","2022-05-26T23:45:34.947Z","rhyme-same_different-task_switching-phon_sim","","null","rhyme","<img src=""square.png"" width=""306"" height=""306"" style=""position: fixed;left:14%;top:30%""><img src=""square.png"" width=""306"" height=""306"" style=""position: fixed;left:64%;top:30%"">","null","","","","","","","","","","","","","","","","","","","","","","","","","","","","","","","","","","",""
"","","","","","html-keyboard-response","160","209285","0.0-6.0-2.47","A289D98Z4GAZ28","2022-05-26T23:45:34.947Z","rhyme-same_different-task_switching-phon_sim","","1512.2999999970198","rhyme","<div style=""border: 3px solid #000000; position: fixed;left:14%;top:30%""><img src=""visual/well.png"" width=""300""></div><div style=""border: 3px solid #000000; position: fixed;left:64%;top:30%""><img src=""visual/bell.png"" width=""300""></div>","arrowdown","","false","experiment","visual/well.png","visual/bell.png","ArrowUp","ortho","","","","","","","","","","","","","","","","","","","","","","","","","","","",""
"","","","","","html-keyboard-response","161","210040","0.0-6.0-0.48","A289D98Z4GAZ28","2022-05-26T23:45:34.947Z","rhyme-same_different-task_switching-phon_sim","","null","rhyme","<div style=""font-size:60px;"">+</div>","null","750","","","","","","","","","","","","","","","","","","","","","","","","","","","","","","","","","",""
"","","","","","html-keyboard-response","162","210555","0.0-6.0-1.48","A289D98Z4GAZ28","2022-05-26T23:45:34.947Z","rhyme-same_different-task_switching-phon_sim","","null","rhyme","<img src=""square.png"" width=""306"" height=""306"" style=""position: fixed;left:14%;top:30%""><img src=""square.png"" width=""306"" height=""306"" style=""position: fixed;left:64%;top:30%"">","null","","","","","","","","","","","","","","","","","","","","","","","","","","","","","","","","","","",""
"","","","","","html-keyboard-response","163","212261","0.0-6.0-2.48","A289D98Z4GAZ28","2022-05-26T23:45:34.947Z","rhyme-same_different-task_switching-phon_sim","","1705.5","rhyme","<div style=""border: 3px solid #000000; position: fixed;left:14%;top:30%""><img src=""visual/wheel.png"" width=""300""></div><div style=""border: 3px solid #000000; position: fixed;left:64%;top:30%""><img src=""visual/seal.png"" width=""300""></div>","arrowup","","true","experiment","visual/wheel.png","visual/seal.png","ArrowUp","non-ortho","","","","","","","","","","","","","","","","","","","","","","","","","","","",""
"","","","","","html-keyboard-response","164","213021","0.0-6.0-0.49","A289D98Z4GAZ28","2022-05-26T23:45:34.947Z","rhyme-same_different-task_switching-phon_sim","","null","rhyme","<div style=""font-size:60px;"">+</div>","null","750","","","","","","","","","","","","","","","","","","","","","","","","","","","","","","","","","",""
"","","","","","html-keyboard-response","165","213523","0.0-6.0-1.49","A289D98Z4GAZ28","2022-05-26T23:45:34.947Z","rhyme-same_different-task_switching-phon_sim","","null","rhyme","<img src=""square.png"" width=""306"" height=""306"" style=""position: fixed;left:14%;top:30%""><img src=""square.png"" width=""306"" height=""306"" style=""position: fixed;left:64%;top:30%"">","null","","","","","","","","","","","","","","","","","","","","","","","","","","","","","","","","","","",""
"","","","","","html-keyboard-response","166","214981","0.0-6.0-2.49","A289D98Z4GAZ28","2022-05-26T23:45:34.947Z","rhyme-same_different-task_switching-phon_sim","","1457.1000000014901","rhyme","<div style=""border: 3px solid #000000; position: fixed;left:14%;top:30%""><img src=""visual/pear.png"" width=""300""></div><div style=""border: 3px solid #000000; position: fixed;left:64%;top:30%""><img src=""visual/rope.png"" width=""300""></div>","arrowdown","","true","experiment","visual/pear.png","visual/rope.png","ArrowDown","NR","","","","","","","","","","","","","","","","","","","","","","","","","","","",""
"","","","","","html-keyboard-response","167","215239","0.0-6.0-0.50","A289D98Z4GAZ28","2022-05-26T23:45:34.947Z","rhyme-same_different-task_switching-phon_sim","","null","rhyme","<div style=""font-size:60px;"">+</div>","null","250","","","","","","","","","","","","","","","","","","","","","","","","","","","","","","","","","",""
"","","","","","html-keyboard-response","168","215740","0.0-6.0-1.50","A289D98Z4GAZ28","2022-05-26T23:45:34.947Z","rhyme-same_different-task_switching-phon_sim","","null","rhyme","<img src=""square.png"" width=""306"" height=""306"" style=""position: fixed;left:14%;top:30%""><img src=""square.png"" width=""306"" height=""306"" style=""position: fixed;left:64%;top:30%"">","null","","","","","","","","","","","","","","","","","","","","","","","","","","","","","","","","","","",""
"","","","","","html-keyboard-response","169","216949","0.0-6.0-2.50","A289D98Z4GAZ28","2022-05-26T23:45:34.947Z","rhyme-same_different-task_switching-phon_sim","","1208.3000000044703","rhyme","<div style=""border: 3px solid #000000; position: fixed;left:14%;top:30%""><img src=""visual/eye.png"" width=""300""></div><div style=""border: 3px solid #000000; position: fixed;left:64%;top:30%""><img src=""visual/tie.png"" width=""300""></div>","arrowup","","true","experiment","visual/eye.png","visual/tie.png","ArrowUp","non-ortho","","","","","","","","","","","","","","","","","","","","","","","","","","","",""
"","","","","","html-keyboard-response","170","217205","0.0-6.0-0.51","A289D98Z4GAZ28","2022-05-26T23:45:34.947Z","rhyme-same_different-task_switching-phon_sim","","null","rhyme","<div style=""font-size:60px;"">+</div>","null","250","","","","","","","","","","","","","","","","","","","","","","","","","","","","","","","","","",""
"","","","","","html-keyboard-response","171","217706","0.0-6.0-1.51","A289D98Z4GAZ28","2022-05-26T23:45:34.947Z","rhyme-same_different-task_switching-phon_sim","","null","rhyme","<img src=""square.png"" width=""306"" height=""306"" style=""position: fixed;left:14%;top:30%""><img src=""square.png"" width=""306"" height=""306"" style=""position: fixed;left:64%;top:30%"">","null","","","","","","","","","","","","","","","","","","","","","","","","","","","","","","","","","","",""
"","","","","","html-keyboard-response","172","219429","0.0-6.0-2.51","A289D98Z4GAZ28","2022-05-26T23:45:34.947Z","rhyme-same_different-task_switching-phon_sim","","1722","rhyme","<div style=""border: 3px solid #000000; position: fixed;left:14%;top:30%""><img src=""visual/king.png"" width=""300""></div><div style=""border: 3px solid #000000; position: fixed;left:64%;top:30%""><img src=""visual/ring.png"" width=""300""></div>","arrowup","","true","experiment","visual/king.png","visual/ring.png","ArrowUp","ortho","","","","","","","","","","","","","","","","","","","","","","","","","","","",""
"","","","","","html-keyboard-response","173","219938","0.0-6.0-0.52","A289D98Z4GAZ28","2022-05-26T23:45:34.947Z","rhyme-same_different-task_switching-phon_sim","","null","rhyme","<div style=""font-size:60px;"">+</div>","null","500","","","","","","","","","","","","","","","","","","","","","","","","","","","","","","","","","",""
"","","","","","html-keyboard-response","174","220439","0.0-6.0-1.52","A289D98Z4GAZ28","2022-05-26T23:45:34.947Z","rhyme-same_different-task_switching-phon_sim","","null","rhyme","<img src=""square.png"" width=""306"" height=""306"" style=""position: fixed;left:14%;top:30%""><img src=""square.png"" width=""306"" height=""306"" style=""position: fixed;left:64%;top:30%"">","null","","","","","","","","","","","","","","","","","","","","","","","","","","","","","","","","","","",""
"","","","","","html-keyboard-response","175","221653","0.0-6.0-2.52","A289D98Z4GAZ28","2022-05-26T23:45:34.947Z","rhyme-same_different-task_switching-phon_sim","","1212.8000000044703","rhyme","<div style=""border: 3px solid #000000; position: fixed;left:14%;top:30%""><img src=""visual/socks.png"" width=""300""></div><div style=""border: 3px solid #000000; position: fixed;left:64%;top:30%""><img src=""visual/fox.png"" width=""300""></div>","arrowup","","true","experiment","visual/socks.png","visual/fox.png","ArrowUp","non-ortho","","","","","","","","","","","","","","","","","","","","","","","","","","","",""
"","","","","","html-keyboard-response","176","222155","0.0-6.0-0.53","A289D98Z4GAZ28","2022-05-26T23:45:34.947Z","rhyme-same_different-task_switching-phon_sim","","null","rhyme","<div style=""font-size:60px;"">+</div>","null","500","","","","","","","","","","","","","","","","","","","","","","","","","","","","","","","","","",""
"","","","","","html-keyboard-response","177","222671","0.0-6.0-1.53","A289D98Z4GAZ28","2022-05-26T23:45:34.947Z","rhyme-same_different-task_switching-phon_sim","","null","rhyme","<img src=""square.png"" width=""306"" height=""306"" style=""position: fixed;left:14%;top:30%""><img src=""square.png"" width=""306"" height=""306"" style=""position: fixed;left:64%;top:30%"">","null","","","","","","","","","","","","","","","","","","","","","","","","","","","","","","","","","","",""
"","","","","","html-keyboard-response","178","224293","0.0-6.0-2.53","A289D98Z4GAZ28","2022-05-26T23:45:34.947Z","rhyme-same_different-task_switching-phon_sim","","1621.1000000014901","rhyme","<div style=""border: 3px solid #000000; position: fixed;left:14%;top:30%""><img src=""visual/rake.png"" width=""300""></div><div style=""border: 3px solid #000000; position: fixed;left:64%;top:30%""><img src=""visual/park.png"" width=""300""></div>","arrowdown","","true","experiment","visual/rake.png","visual/park.png","ArrowDown","NR","","","","","","","","","","","","","","","","","","","","","","","","","","","",""
"","","","","","html-keyboard-response","179","225054","0.0-6.0-0.54","A289D98Z4GAZ28","2022-05-26T23:45:34.947Z","rhyme-same_different-task_switching-phon_sim","","null","rhyme","<div style=""font-size:60px;"">+</div>","null","750","","","","","","","","","","","","","","","","","","","","","","","","","","","","","","","","","",""
"","","","","","html-keyboard-response","180","225555","0.0-6.0-1.54","A289D98Z4GAZ28","2022-05-26T23:45:34.947Z","rhyme-same_different-task_switching-phon_sim","","null","rhyme","<img src=""square.png"" width=""306"" height=""306"" style=""position: fixed;left:14%;top:30%""><img src=""square.png"" width=""306"" height=""306"" style=""position: fixed;left:64%;top:30%"">","null","","","","","","","","","","","","","","","","","","","","","","","","","","","","","","","","","","",""
"","","","","","html-keyboard-response","181","227493","0.0-6.0-2.54","A289D98Z4GAZ28","2022-05-26T23:45:34.947Z","rhyme-same_different-task_switching-phon_sim","","1937.5","rhyme","<div style=""border: 3px solid #000000; position: fixed;left:14%;top:30%""><img src=""visual/egg.png"" width=""300""></div><div style=""border: 3px solid #000000; position: fixed;left:64%;top:30%""><img src=""visual/leg.png"" width=""300""></div>","arrowup","","true","experiment","visual/egg.png","visual/leg.png","ArrowUp","ortho","","","","","","","","","","","","","","","","","","","","","","","","","","","",""
"","","","","","html-keyboard-response","182","228004","0.0-6.0-0.55","A289D98Z4GAZ28","2022-05-26T23:45:34.947Z","rhyme-same_different-task_switching-phon_sim","","null","rhyme","<div style=""font-size:60px;"">+</div>","null","500","","","","","","","","","","","","","","","","","","","","","","","","","","","","","","","","","",""
"","","","","","html-keyboard-response","183","228505","0.0-6.0-1.55","A289D98Z4GAZ28","2022-05-26T23:45:34.947Z","rhyme-same_different-task_switching-phon_sim","","null","rhyme","<img src=""square.png"" width=""306"" height=""306"" style=""position: fixed;left:14%;top:30%""><img src=""square.png"" width=""306"" height=""306"" style=""position: fixed;left:64%;top:30%"">","null","","","","","","","","","","","","","","","","","","","","","","","","","","","","","","","","","","",""
"","","","","","html-keyboard-response","184","230637","0.0-6.0-2.55","A289D98Z4GAZ28","2022-05-26T23:45:34.947Z","rhyme-same_different-task_switching-phon_sim","","2131","rhyme","<div style=""border: 3px solid #000000; position: fixed;left:14%;top:30%""><img src=""visual/train.png"" width=""300""></div><div style=""border: 3px solid #000000; position: fixed;left:64%;top:30%""><img src=""visual/crane.png"" width=""300""></div>","arrowup","","true","experiment","visual/train.png","visual/crane.png","ArrowUp","non-ortho","","","","","","","","","","","","","","","","","","","","","","","","","","","",""
"","","","","","html-keyboard-response","185","231388","0.0-6.0-0.56","A289D98Z4GAZ28","2022-05-26T23:45:34.947Z","rhyme-same_different-task_switching-phon_sim","","null","rhyme","<div style=""font-size:60px;"">+</div>","null","750","","","","","","","","","","","","","","","","","","","","","","","","","","","","","","","","","",""
"","","","","","html-keyboard-response","186","231889","0.0-6.0-1.56","A289D98Z4GAZ28","2022-05-26T23:45:34.947Z","rhyme-same_different-task_switching-phon_sim","","null","rhyme","<img src=""square.png"" width=""306"" height=""306"" style=""position: fixed;left:14%;top:30%""><img src=""square.png"" width=""306"" height=""306"" style=""position: fixed;left:64%;top:30%"">","null","","","","","","","","","","","","","","","","","","","","","","","","","","","","","","","","","","",""
"","","","","","html-keyboard-response","187","233420","0.0-6.0-2.56","A289D98Z4GAZ28","2022-05-26T23:45:34.947Z","rhyme-same_different-task_switching-phon_sim","","1530.7999999970198","rhyme","<div style=""border: 3px solid #000000; position: fixed;left:14%;top:30%""><img src=""visual/spoon.png"" width=""300""></div><div style=""border: 3px solid #000000; position: fixed;left:64%;top:30%""><img src=""visual/crab.png"" width=""300""></div>","arrowdown","","true","experiment","visual/spoon.png","visual/crab.png","ArrowDown","NR","","","","","","","","","","","","","","","","","","","","","","","","","","","",""
"","","","","","html-keyboard-response","188","234172","0.0-6.0-0.57","A289D98Z4GAZ28","2022-05-26T23:45:34.947Z","rhyme-same_different-task_switching-phon_sim","","null","rhyme","<div style=""font-size:60px;"">+</div>","null","750","","","","","","","","","","","","","","","","","","","","","","","","","","","","","","","","","",""
"","","","","","html-keyboard-response","189","234687","0.0-6.0-1.57","A289D98Z4GAZ28","2022-05-26T23:45:34.947Z","rhyme-same_different-task_switching-phon_sim","","null","rhyme","<img src=""square.png"" width=""306"" height=""306"" style=""position: fixed;left:14%;top:30%""><img src=""square.png"" width=""306"" height=""306"" style=""position: fixed;left:64%;top:30%"">","null","","","","","","","","","","","","","","","","","","","","","","","","","","","","","","","","","","",""
"","","","","","html-keyboard-response","190","236717","0.0-6.0-2.57","A289D98Z4GAZ28","2022-05-26T23:45:34.947Z","rhyme-same_different-task_switching-phon_sim","","2028.6000000014901","rhyme","<div style=""border: 3px solid #000000; position: fixed;left:14%;top:30%""><img src=""visual/cake.png"" width=""300""></div><div style=""border: 3px solid #000000; position: fixed;left:64%;top:30%""><img src=""visual/rake.png"" width=""300""></div>","arrowup","","true","experiment","visual/cake.png","visual/rake.png","ArrowUp","ortho","","","","","","","","","","","","","","","","","","","","","","","","","","","",""
"","","","","","html-keyboard-response","191","237222","0.0-6.0-0.58","A289D98Z4GAZ28","2022-05-26T23:45:34.947Z","rhyme-same_different-task_switching-phon_sim","","null","rhyme","<div style=""font-size:60px;"">+</div>","null","500","","","","","","","","","","","","","","","","","","","","","","","","","","","","","","","","","",""
"","","","","","html-keyboard-response","192","237737","0.0-6.0-1.58","A289D98Z4GAZ28","2022-05-26T23:45:34.947Z","rhyme-same_different-task_switching-phon_sim","","null","rhyme","<img src=""square.png"" width=""306"" height=""306"" style=""position: fixed;left:14%;top:30%""><img src=""square.png"" width=""306"" height=""306"" style=""position: fixed;left:64%;top:30%"">","null","","","","","","","","","","","","","","","","","","","","","","","","","","","","","","","","","","",""
"","","","","","html-keyboard-response","193","240045","0.0-6.0-2.58","A289D98Z4GAZ28","2022-05-26T23:45:34.947Z","rhyme-same_different-task_switching-phon_sim","","2307.39999999851","rhyme","<div style=""border: 3px solid #000000; position: fixed;left:14%;top:30%""><img src=""visual/fly.png"" width=""300""></div><div style=""border: 3px solid #000000; position: fixed;left:64%;top:30%""><img src=""visual/plane.png"" width=""300""></div>","arrowdown","","true","experiment","visual/fly.png","visual/plane.png","ArrowDown","NR","","","","","","","","","","","","","","","","","","","","","","","","","","","",""
"","","","","","html-keyboard-response","194","240303","0.0-6.0-0.59","A289D98Z4GAZ28","2022-05-26T23:45:34.947Z","rhyme-same_different-task_switching-phon_sim","","null","rhyme","<div style=""font-size:60px;"">+</div>","null","250","","","","","","","","","","","","","","","","","","","","","","","","","","","","","","","","","",""
"","","","","","html-keyboard-response","195","240804","0.0-6.0-1.59","A289D98Z4GAZ28","2022-05-26T23:45:34.947Z","rhyme-same_different-task_switching-phon_sim","","null","rhyme","<img src=""square.png"" width=""306"" height=""306"" style=""position: fixed;left:14%;top:30%""><img src=""square.png"" width=""306"" height=""306"" style=""position: fixed;left:64%;top:30%"">","null","","","","","","","","","","","","","","","","","","","","","","","","","","","","","","","","","","",""
"","","","","","html-keyboard-response","196","242133","0.0-6.0-2.59","A289D98Z4GAZ28","2022-05-26T23:45:34.947Z","rhyme-same_different-task_switching-phon_sim","","1335.9000000059605","rhyme","<div style=""border: 3px solid #000000; position: fixed;left:14%;top:30%""><img src=""visual/egg.png"" width=""300""></div><div style=""border: 3px solid #000000; position: fixed;left:64%;top:30%""><img src=""visual/ring.png"" width=""300""></div>","arrowdown","","true","experiment","visual/egg.png","visual/ring.png","ArrowDown","NR","","","","","","","","","","","","","","","","","","","","","","","","","","","",""
"","","","","","survey-multi-choice","197","256212","0.0-7.0","A289D98Z4GAZ28","2022-05-26T23:45:34.947Z","rhyme-same_different-task_switching-phon_sim","","14077.60000000149","rhyme","","{""Q0"":""Yes""}","","","","","","","","[0]","Yes","","","","","","","","","","","","","","","","","","","","","","","","","",""
"","","","","","survey-text","198","265041","0.0-8.0","A289D98Z4GAZ28","2022-05-26T23:45:34.947Z","rhyme-same_different-task_switching-phon_sim","","8827.70000000298","rhyme","","{""Q0"":""no""}","","","","","","","","","","no","","","","","","","","","","","","","","","","","","","","","","","","",""
"","","","","","instructions","199","268048","0.0-9.0","A289D98Z4GAZ28","2022-05-26T23:45:34.947Z","rhyme-same_different-task_switching-phon_sim","[{""page_index"":0,""viewing_time"":3007}]","3007","rhyme","","","","","","","","","","","","","","","","","","","","","","","","","","","","","","","","","","","","",""
"","","","","","instructions","200","303390","0.0-10.0","A289D98Z4GAZ28","2022-05-26T23:45:34.947Z","rhyme-same_different-task_switching-phon_sim","[{""page_index"":0,""viewing_time"":35334}]","35334.10000000149","same_different","","","","","","","","","","","","","","","","","","","","","","","","","","","","","","","","","","","","",""
"","","","","","instructions","201","335139","0.0-11.0","A289D98Z4GAZ28","2022-05-26T23:45:34.947Z","rhyme-same_different-task_switching-phon_sim","[{""page_index"":0,""viewing_time"":31748.39999999851}]","31748.5","","","","","","","","","","","","","","","","","","","","","","","","","","","","","","","","","","","","","",""
"","","","","","html-keyboard-response","202","335898","0.0-12.0-0.0","A289D98Z4GAZ28","2022-05-26T23:45:34.947Z","rhyme-same_different-task_switching-phon_sim","","null","same_different","<div style=""font-size:60px"">+</div>","null","","","","","","","","","","","","","","","","","","","","","","","","","","","","","","","","","","",""
"","","","","","html-keyboard-response","203","337845","0.0-12.0-1.0","A289D98Z4GAZ28","2022-05-26T23:45:34.947Z","rhyme-same_different-task_switching-phon_sim","","1944.8999999985099","same_different","[""<img src=\""square.png\"" width=\""100\"" height=\""100\"" style=\""position: fixed;left:39%;top:47%\""><img src=\""square.png\"" width=\""100\"" height=\""100\"" style=\""position: fixed;left:54%;top:47%\""><img src=\""square.png\"" width=\""100\"" height=\""100\"" style=\""position: fixed;left:46.5%;top:32%\""><img src=\""square.png\"" width=\""100\"" height=\""100\"" style=\""position: fixed;left:46.5%;top:61%\""><div style=\""font-size:60px; text-align: center;margin-top:35.2%\"">+</div><div id=\""first\"" style=\""position: fixed;visibility: hidden;left:48%;top:34%\""><img src=\""same_diff_imgs/D09.gif\""></div><div id=\""delayed\"" style=\""position: fixed;visibility: hidden;left:48%;top:62%\""><img src=\""same_diff_imgs/C04.gif\""></div>""]","arrowdown","","true","","","","","","","","","categorical_image","same_diff_imgs/D09.gif","same_diff_imgs/C04.gif","no","different","1","","","","","","","","","","","","","","","","","","",""
"","","","","","html-keyboard-response","204","337848","0.0-12.0-2.0","A289D98Z4GAZ28","2022-05-26T23:45:34.947Z","rhyme-same_different-task_switching-phon_sim","","null",""," ","null","","","","","","","","","","","","","","","","","","","","","","","","","","","","","","","","","","",""
"","","","","","html-keyboard-response","205","338150","0.0-12.0-3.0","A289D98Z4GAZ28","2022-05-26T23:45:34.947Z","rhyme-same_different-task_switching-phon_sim","","null","same_different"," ","null","","","","","","","","","","","","","","","","","","","","","","","","","","","","","","","","","","",""
"","","","","","html-keyboard-response","206","338916","0.0-12.0-0.1","A289D98Z4GAZ28","2022-05-26T23:45:34.947Z","rhyme-same_different-task_switching-phon_sim","","null","same_different","<div style=""font-size:60px"">+</div>","null","","","","","","","","","","","","","","","","","","","","","","","","","","","","","","","","","","",""
"","","","","","html-keyboard-response","207","341301","0.0-12.0-1.1","A289D98Z4GAZ28","2022-05-26T23:45:34.947Z","rhyme-same_different-task_switching-phon_sim","","2383.7000000029802","same_different","[""<img src=\""square.png\"" width=\""100\"" height=\""100\"" style=\""position: fixed;left:39%;top:47%\""><img src=\""square.png\"" width=\""100\"" height=\""100\"" style=\""position: fixed;left:54%;top:47%\""><img src=\""square.png\"" width=\""100\"" height=\""100\"" style=\""position: fixed;left:46.5%;top:32%\""><img src=\""square.png\"" width=\""100\"" height=\""100\"" style=\""position: fixed;left:46.5%;top:61%\""><div style=\""font-size:60px;text-align: center;margin-top:35.2%\"">+</div><div id=\""first\"" style=\""position: fixed;visibility: hidden;left:40%;top:48%\""><img src=\""same_diff_imgs/C14.gif\"" style=\""-webkit-transform: scaleX(-1);transform: scaleX(-1);\""></div><div id=\""delayed\"" style=\""position: fixed;visibility: hidden;left:48%;top:34%\""><img src=\""same_diff_imgs/D07.gif\"" style=\""-webkit-transform: scaleX(-1);transform: scaleX(-1);\""></div>""]","arrowup","","false","","","","","","","","","categorical_image","same_diff_imgs/C14.gif","same_diff_imgs/D07.gif","yes","different","","1","","","","","","","","","","","","","","","","","",""
"","","","","","html-keyboard-response","208","341815","0.0-12.0-2.1","A289D98Z4GAZ28","2022-05-26T23:45:34.947Z","rhyme-same_different-task_switching-phon_sim","","null","","<div style=""color:darkred; font-size:40px"">Incorrect!</div>","null","","","","","","","","","","","","","","","","","","","","","","","","","","","","","","","","","","",""
"","","","","","html-keyboard-response","209","342129","0.0-12.0-3.1","A289D98Z4GAZ28","2022-05-26T23:45:34.947Z","rhyme-same_different-task_switching-phon_sim","","null","same_different"," ","null","","","","","","","","","","","","","","","","","","","","","","","","","","","","","","","","","","",""
