"success","timeout","failed_images","failed_audio","failed_video","trial_type","trial_index","time_elapsed","internal_node_id","worker_id","start_time","experiment_order","view_history","rt","experiment","stimulus","response","phase","word_1","word_2","word_3","word_4","word_5","original_word_set","response_1","response_2","response_3","response_4","response_5","question_order","talk_out_loud","strategy_free_ans","condition","answer","correct","operation","color_cue","trial_no","symbol_cue","wait_time","image_1","image_2","cor_key","type","judgment_type","stim_1","stim_2","inverted","true_neg","false_neg","true_pos","false_pos"
"true","false","[]","[]","[]","preload","0","4659","0.0-0.0","ADY44EV3GCW85","2022-05-19T02:00:25.374Z","phon_sim-task_switching-rhyme-same_different","","","","","","","","","","","","","","","","","","","","","","","","","","","","","","","","","","","","","","","",""
"","","","","","instructions","1","24218","0.0-1.0","ADY44EV3GCW85","2022-05-19T02:00:25.374Z","phon_sim-task_switching-rhyme-same_different","[{""page_index"":0,""viewing_time"":19558}]","19558","","","","","","","","","","","","","","","","","","","","","","","","","","","","","","","","","","","","","",""
"true","","","","","fullscreen","2","30557","0.0-2.0","ADY44EV3GCW85","2022-05-19T02:00:25.374Z","phon_sim-task_switching-rhyme-same_different","","","","","","","","","","","","","","","","","","","","","","","","","","","","","","","","","","","","","","","",""
"","","","","","instructions","3","43401","0.0-3.0","ADY44EV3GCW85","2022-05-19T02:00:25.374Z","phon_sim-task_switching-rhyme-same_different","[{""page_index"":0,""viewing_time"":12844}]","12844","phon_sim","","","","","","","","","","","","","","","","","","","","","","","","","","","","","","","","","","","","",""
"","","","","","html-keyboard-response","4","56403","0.0-4.0-0.0","ADY44EV3GCW85","2022-05-19T02:00:25.374Z","phon_sim-task_switching-rhyme-same_different","","null","phon_sim","<div style=""display:grid""><h1 id=""word_1"" style=""grid-column:1; grid-row:1"">pen</h1><h1 id=""word_2"" style=""visibility:hidden;grid-column:1; grid-row:1"">rig</h1><h1 id=""word_3"" style=""visibility:hidden;grid-column:1; grid-row:1"">day</h1><h1 id=""word_4"" style=""visibility:hidden;grid-column:1; grid-row:1"">bar</h1><h1 id=""word_5"" style=""visibility:hidden;grid-column:1; grid-row:1"">cow</h1></div>","null","training","pen","rig","day","bar","cow","training","","","","","","","","","","","","","","","","","","","","","","","","","","","",""
"","","","","","survey-text","5","79187","0.0-4.0-1.0","ADY44EV3GCW85","2022-05-19T02:00:25.374Z","phon_sim-task_switching-rhyme-same_different","","22779","phon_sim","","{""position_1"":""pen"",""position_2"":""rig"",""position_3"":""day "",""position_4"":""bar"",""position_5"":""""}","training","","","","","","","pen","rig","day ","bar","","","","","","","","","","","","","","","","","","","","","","","",""
"","","","","","html-keyboard-response","6","84188","0.0-4.0-2.0","ADY44EV3GCW85","2022-05-19T02:00:25.374Z","phon_sim-task_switching-rhyme-same_different","","null","phon_sim","<h1 id=""word_1"">pen</h1><h1 id=""word_2"">rig</h1><h1 id=""word_3"">day</h1><h1 id=""word_4"">bar</h1><h1 id=""word_5"">cow</h1>","null","","","","","","","","","","","","","","","","","","","","","","","","","","","","","","","","","","",""
"","","","","","html-keyboard-response","7","97190","0.0-4.0-0.1","ADY44EV3GCW85","2022-05-19T02:00:25.374Z","phon_sim-task_switching-rhyme-same_different","","null","phon_sim","<div style=""display:grid""><h1 id=""word_1"" style=""grid-column:1; grid-row:1"">mad</h1><h1 id=""word_2"" style=""visibility:hidden;grid-column:1; grid-row:1"">man</h1><h1 id=""word_3"" style=""visibility:hidden;grid-column:1; grid-row:1"">map</h1><h1 id=""word_4"" style=""visibility:hidden;grid-column:1; grid-row:1"">mat</h1><h1 id=""word_5"" style=""visibility:hidden;grid-column:1; grid-row:1"">max</h1></div>","null","training","mad","man","map","mat","max","training","","","","","","","","","","","","","","","","","","","","","","","","","","","",""
"","","","","","survey-text","8","114495","0.0-4.0-1.1","ADY44EV3GCW85","2022-05-19T02:00:25.374Z","phon_sim-task_switching-rhyme-same_different","","17301","phon_sim","","{""position_1"":""mad"",""position_2"":""man"",""position_3"":""max"",""position_4"":"""",""position_5"":""""}","training","","","","","","","mad","man","max","","","","","","","","","","","","","","","","","","","","","","","","",""
"","","","","","html-keyboard-response","9","119496","0.0-4.0-2.1","ADY44EV3GCW85","2022-05-19T02:00:25.374Z","phon_sim-task_switching-rhyme-same_different","","null","phon_sim","<h1 id=""word_1"">mad</h1><h1 id=""word_2"">man</h1><h1 id=""word_3"">map</h1><h1 id=""word_4"">mat</h1><h1 id=""word_5"">max</h1>","null","","","","","","","","","","","","","","","","","","","","","","","","","","","","","","","","","","",""
"","","","","","instructions","10","122740","0.0-5.0","ADY44EV3GCW85","2022-05-19T02:00:25.374Z","phon_sim-task_switching-rhyme-same_different","[{""page_index"":0,""viewing_time"":3244}]","3244","","","","","","","","","","","","","","","","","","","","","","","","","","","","","","","","","","","","","",""
"","","","","","html-keyboard-response","11","135743","0.0-6.0-0.0","ADY44EV3GCW85","2022-05-19T02:00:25.374Z","phon_sim-task_switching-rhyme-same_different","","null","phon_sim","<div style=""display:grid""><h1 id=""word_1"" style=""grid-column:1; grid-row:1"">plea</h1><h1 id=""word_2"" style=""visibility:hidden;grid-column:1; grid-row:1"">sleigh</h1><h1 id=""word_3"" style=""visibility:hidden;grid-column:1; grid-row:1"">row</h1><h1 id=""word_4"" style=""visibility:hidden;grid-column:1; grid-row:1"">friend</h1><h1 id=""word_5"" style=""visibility:hidden;grid-column:1; grid-row:1"">board</h1></div>","null","experiment","plea","sleigh","row","friend","board","controlSet","","","","","","","","","","","","","","","","","","","","","","","","","","","",""
"","","","","","survey-text","12","165338","0.0-6.0-1.0","ADY44EV3GCW85","2022-05-19T02:00:25.374Z","phon_sim-task_switching-rhyme-same_different","","29592","phon_sim","","{""position_1"":""plea"",""position_2"":""sleigh"",""position_3"":""row"",""position_4"":""friend"",""position_5"":""board""}","experiment","","","","","","","plea","sleigh","row","friend","board","","","","","","","","","","","","","","","","","","","","","","",""
"","","","","","html-keyboard-response","13","178339","0.0-6.0-0.1","ADY44EV3GCW85","2022-05-19T02:00:25.374Z","phon_sim-task_switching-rhyme-same_different","","null","phon_sim","<div style=""display:grid""><h1 id=""word_1"" style=""grid-column:1; grid-row:1"">rough</h1><h1 id=""word_2"" style=""visibility:hidden;grid-column:1; grid-row:1"">bough</h1><h1 id=""word_3"" style=""visibility:hidden;grid-column:1; grid-row:1"">through</h1><h1 id=""word_4"" style=""visibility:hidden;grid-column:1; grid-row:1"">dough</h1><h1 id=""word_5"" style=""visibility:hidden;grid-column:1; grid-row:1"">cough</h1></div>","null","experiment","rough","bough","through","dough","cough","orthoSet","","","","","","","","","","","","","","","","","","","","","","","","","","","",""
"","","","","","survey-text","14","225402","0.0-6.0-1.1","ADY44EV3GCW85","2022-05-19T02:00:25.374Z","phon_sim-task_switching-rhyme-same_different","","47060","phon_sim","","{""position_1"":""rough"",""position_2"":""slough"",""position_3"":""through"",""position_4"":""dough"",""position_5"":""cough""}","experiment","","","","","","","rough","slough","through","dough","cough","","","","","","","","","","","","","","","","","","","","","","",""
"","","","","","html-keyboard-response","15","238403","0.0-6.0-0.2","ADY44EV3GCW85","2022-05-19T02:00:25.374Z","phon_sim-task_switching-rhyme-same_different","","null","phon_sim","<div style=""display:grid""><h1 id=""word_1"" style=""grid-column:1; grid-row:1"">rough</h1><h1 id=""word_2"" style=""visibility:hidden;grid-column:1; grid-row:1"">cough</h1><h1 id=""word_3"" style=""visibility:hidden;grid-column:1; grid-row:1"">through</h1><h1 id=""word_4"" style=""visibility:hidden;grid-column:1; grid-row:1"">bough</h1><h1 id=""word_5"" style=""visibility:hidden;grid-column:1; grid-row:1"">dough</h1></div>","null","experiment","rough","cough","through","bough","dough","orthoSet","","","","","","","","","","","","","","","","","","","","","","","","","","","",""
"","","","","","survey-text","16","269535","0.0-6.0-1.2","ADY44EV3GCW85","2022-05-19T02:00:25.374Z","phon_sim-task_switching-rhyme-same_different","","31130","phon_sim","","{""position_1"":""rough"",""position_2"":""cough"",""position_3"":""through"",""position_4"":""bough"",""position_5"":""dough""}","experiment","","","","","","","rough","cough","through","bough","dough","","","","","","","","","","","","","","","","","","","","","","",""
"","","","","","html-keyboard-response","17","282537","0.0-6.0-0.3","ADY44EV3GCW85","2022-05-19T02:00:25.374Z","phon_sim-task_switching-rhyme-same_different","","null","phon_sim","<div style=""display:grid""><h1 id=""word_1"" style=""grid-column:1; grid-row:1"">dough</h1><h1 id=""word_2"" style=""visibility:hidden;grid-column:1; grid-row:1"">bough</h1><h1 id=""word_3"" style=""visibility:hidden;grid-column:1; grid-row:1"">through</h1><h1 id=""word_4"" style=""visibility:hidden;grid-column:1; grid-row:1"">rough</h1><h1 id=""word_5"" style=""visibility:hidden;grid-column:1; grid-row:1"">cough</h1></div>","null","experiment","dough","bough","through","rough","cough","orthoSet","","","","","","","","","","","","","","","","","","","","","","","","","","","",""
"","","","","","survey-text","18","310113","0.0-6.0-1.3","ADY44EV3GCW85","2022-05-19T02:00:25.374Z","phon_sim-task_switching-rhyme-same_different","","27575","phon_sim","","{""position_1"":""dough"",""position_2"":""bough"",""position_3"":""through"",""position_4"":""rough"",""position_5"":""cough""}","experiment","","","","","","","dough","bough","through","rough","cough","","","","","","","","","","","","","","","","","","","","","","",""
"","","","","","html-keyboard-response","19","323115","0.0-6.0-0.4","ADY44EV3GCW85","2022-05-19T02:00:25.374Z","phon_sim-task_switching-rhyme-same_different","","null","phon_sim","<div style=""display:grid""><h1 id=""word_1"" style=""grid-column:1; grid-row:1"">bought</h1><h1 id=""word_2"" style=""visibility:hidden;grid-column:1; grid-row:1"">caught</h1><h1 id=""word_3"" style=""visibility:hidden;grid-column:1; grid-row:1"">taut</h1><h1 id=""word_4"" style=""visibility:hidden;grid-column:1; grid-row:1"">sort</h1><h1 id=""word_5"" style=""visibility:hidden;grid-column:1; grid-row:1"">wart</h1></div>","null","experiment","bought","caught","taut","sort","wart","phonSet","","","","","","","","","","","","","","","","","","","","","","","","","","","",""
"","","","","","survey-text","20","360798","0.0-6.0-1.4","ADY44EV3GCW85","2022-05-19T02:00:25.374Z","phon_sim-task_switching-rhyme-same_different","","37681","phon_sim","","{""position_1"":""bought"",""position_2"":""caught "",""position_3"":""taut"",""position_4"":""sort"",""position_5"":""wart""}","experiment","","","","","","","bought","caught ","taut","sort","wart","","","","","","","","","","","","","","","","","","","","","","",""
"","","","","","html-keyboard-response","21","373799","0.0-6.0-0.5","ADY44EV3GCW85","2022-05-19T02:00:25.374Z","phon_sim-task_switching-rhyme-same_different","","null","phon_sim","<div style=""display:grid""><h1 id=""word_1"" style=""grid-column:1; grid-row:1"">board</h1><h1 id=""word_2"" style=""visibility:hidden;grid-column:1; grid-row:1"">friend</h1><h1 id=""word_3"" style=""visibility:hidden;grid-column:1; grid-row:1"">row</h1><h1 id=""word_4"" style=""visibility:hidden;grid-column:1; grid-row:1"">sleigh</h1><h1 id=""word_5"" style=""visibility:hidden;grid-column:1; grid-row:1"">plea</h1></div>","null","experiment","board","friend","row","sleigh","plea","controlSet","","","","","","","","","","","","","","","","","","","","","","","","","","","",""
"","","","","","survey-text","22","410427","0.0-6.0-1.5","ADY44EV3GCW85","2022-05-19T02:00:25.374Z","phon_sim-task_switching-rhyme-same_different","","36625","phon_sim","","{""position_1"":""bough"",""position_2"":""friend"",""position_3"":""row"",""position_4"":""sleight"",""position_5"":""plea""}","experiment","","","","","","","bough","friend","row","sleight","plea","","","","","","","","","","","","","","","","","","","","","","",""
"","","","","","html-keyboard-response","23","423429","0.0-6.0-0.6","ADY44EV3GCW85","2022-05-19T02:00:25.374Z","phon_sim-task_switching-rhyme-same_different","","null","phon_sim","<div style=""display:grid""><h1 id=""word_1"" style=""grid-column:1; grid-row:1"">board</h1><h1 id=""word_2"" style=""visibility:hidden;grid-column:1; grid-row:1"">friend</h1><h1 id=""word_3"" style=""visibility:hidden;grid-column:1; grid-row:1"">row</h1><h1 id=""word_4"" style=""visibility:hidden;grid-column:1; grid-row:1"">sleigh</h1><h1 id=""word_5"" style=""visibility:hidden;grid-column:1; grid-row:1"">plea</h1></div>","null","experiment","board","friend","row","sleigh","plea","controlSet","","","","","","","","","","","","","","","","","","","","","","","","","","","",""
"","","","","","survey-text","24","470837","0.0-6.0-1.6","ADY44EV3GCW85","2022-05-19T02:00:25.374Z","phon_sim-task_switching-rhyme-same_different","","47405","phon_sim","","{""position_1"":""bough"",""position_2"":""friend"",""position_3"":""row"",""position_4"":""sleigh"",""position_5"":""plea""}","experiment","","","","","","","bough","friend","row","sleigh","plea","","","","","","","","","","","","","","","","","","","","","","",""
"","","","","","html-keyboard-response","25","483839","0.0-6.0-0.7","ADY44EV3GCW85","2022-05-19T02:00:25.374Z","phon_sim-task_switching-rhyme-same_different","","null","phon_sim","<div style=""display:grid""><h1 id=""word_1"" style=""grid-column:1; grid-row:1"">friend</h1><h1 id=""word_2"" style=""visibility:hidden;grid-column:1; grid-row:1"">board</h1><h1 id=""word_3"" style=""visibility:hidden;grid-column:1; grid-row:1"">sleigh</h1><h1 id=""word_4"" style=""visibility:hidden;grid-column:1; grid-row:1"">row</h1><h1 id=""word_5"" style=""visibility:hidden;grid-column:1; grid-row:1"">plea</h1></div>","null","experiment","friend","board","sleigh","row","plea","controlSet","","","","","","","","","","","","","","","","","","","","","","","","","","","",""
"","","","","","survey-text","26","522231","0.0-6.0-1.7","ADY44EV3GCW85","2022-05-19T02:00:25.374Z","phon_sim-task_switching-rhyme-same_different","","38390","phon_sim","","{""position_1"":""friend"",""position_2"":""board"",""position_3"":""sleigh"",""position_4"":""row"",""position_5"":""plea""}","experiment","","","","","","","friend","board","sleigh","row","plea","","","","","","","","","","","","","","","","","","","","","","",""
"","","","","","html-keyboard-response","27","535233","0.0-6.0-0.8","ADY44EV3GCW85","2022-05-19T02:00:25.374Z","phon_sim-task_switching-rhyme-same_different","","null","phon_sim","<div style=""display:grid""><h1 id=""word_1"" style=""grid-column:1; grid-row:1"">caught</h1><h1 id=""word_2"" style=""visibility:hidden;grid-column:1; grid-row:1"">bought</h1><h1 id=""word_3"" style=""visibility:hidden;grid-column:1; grid-row:1"">taut</h1><h1 id=""word_4"" style=""visibility:hidden;grid-column:1; grid-row:1"">sort</h1><h1 id=""word_5"" style=""visibility:hidden;grid-column:1; grid-row:1"">wart</h1></div>","null","experiment","caught","bought","taut","sort","wart","phonSet","","","","","","","","","","","","","","","","","","","","","","","","","","","",""
"","","","","","survey-text","28","564663","0.0-6.0-1.8","ADY44EV3GCW85","2022-05-19T02:00:25.374Z","phon_sim-task_switching-rhyme-same_different","","29428","phon_sim","","{""position_1"":""caught"",""position_2"":""bought"",""position_3"":""taut"",""position_4"":""sort"",""position_5"":""wart""}","experiment","","","","","","","caught","bought","taut","sort","wart","","","","","","","","","","","","","","","","","","","","","","",""
"","","","","","html-keyboard-response","29","577665","0.0-6.0-0.9","ADY44EV3GCW85","2022-05-19T02:00:25.374Z","phon_sim-task_switching-rhyme-same_different","","null","phon_sim","<div style=""display:grid""><h1 id=""word_1"" style=""grid-column:1; grid-row:1"">dough</h1><h1 id=""word_2"" style=""visibility:hidden;grid-column:1; grid-row:1"">cough</h1><h1 id=""word_3"" style=""visibility:hidden;grid-column:1; grid-row:1"">through</h1><h1 id=""word_4"" style=""visibility:hidden;grid-column:1; grid-row:1"">bough</h1><h1 id=""word_5"" style=""visibility:hidden;grid-column:1; grid-row:1"">rough</h1></div>","null","experiment","dough","cough","through","bough","rough","orthoSet","","","","","","","","","","","","","","","","","","","","","","","","","","","",""
"","","","","","survey-text","30","620310","0.0-6.0-1.9","ADY44EV3GCW85","2022-05-19T02:00:25.374Z","phon_sim-task_switching-rhyme-same_different","","42642","phon_sim","","{""position_1"":""doubt"",""position_2"":""cough"",""position_3"":""through"",""position_4"":""bough"",""position_5"":""rough""}","experiment","","","","","","","doubt","cough","through","bough","rough","","","","","","","","","","","","","","","","","","","","","","",""
"","","","","","html-keyboard-response","31","633311","0.0-6.0-0.10","ADY44EV3GCW85","2022-05-19T02:00:25.374Z","phon_sim-task_switching-rhyme-same_different","","null","phon_sim","<div style=""display:grid""><h1 id=""word_1"" style=""grid-column:1; grid-row:1"">sort</h1><h1 id=""word_2"" style=""visibility:hidden;grid-column:1; grid-row:1"">wart</h1><h1 id=""word_3"" style=""visibility:hidden;grid-column:1; grid-row:1"">caught</h1><h1 id=""word_4"" style=""visibility:hidden;grid-column:1; grid-row:1"">bought</h1><h1 id=""word_5"" style=""visibility:hidden;grid-column:1; grid-row:1"">taut</h1></div>","null","experiment","sort","wart","caught","bought","taut","phonSet","","","","","","","","","","","","","","","","","","","","","","","","","","","",""
"","","","","","survey-text","32","664189","0.0-6.0-1.10","ADY44EV3GCW85","2022-05-19T02:00:25.374Z","phon_sim-task_switching-rhyme-same_different","","30875","phon_sim","","{""position_1"":""sort"",""position_2"":""wart"",""position_3"":""caught"",""position_4"":""bought"",""position_5"":""taut""}","experiment","","","","","","","sort","wart","caught","bought","taut","","","","","","","","","","","","","","","","","","","","","","",""
"","","","","","html-keyboard-response","33","677191","0.0-6.0-0.11","ADY44EV3GCW85","2022-05-19T02:00:25.374Z","phon_sim-task_switching-rhyme-same_different","","null","phon_sim","<div style=""display:grid""><h1 id=""word_1"" style=""grid-column:1; grid-row:1"">sleigh</h1><h1 id=""word_2"" style=""visibility:hidden;grid-column:1; grid-row:1"">friend</h1><h1 id=""word_3"" style=""visibility:hidden;grid-column:1; grid-row:1"">board</h1><h1 id=""word_4"" style=""visibility:hidden;grid-column:1; grid-row:1"">row</h1><h1 id=""word_5"" style=""visibility:hidden;grid-column:1; grid-row:1"">plea</h1></div>","null","experiment","sleigh","friend","board","row","plea","controlSet","","","","","","","","","","","","","","","","","","","","","","","","","","","",""
"","","","","","survey-text","34","721197","0.0-6.0-1.11","ADY44EV3GCW85","2022-05-19T02:00:25.374Z","phon_sim-task_switching-rhyme-same_different","","44004","phon_sim","","{""position_1"":""sleigh"",""position_2"":""friend"",""position_3"":""board"",""position_4"":""row"",""position_5"":""plea""}","experiment","","","","","","","sleigh","friend","board","row","plea","","","","","","","","","","","","","","","","","","","","","","",""
"","","","","","html-keyboard-response","35","734199","0.0-6.0-0.12","ADY44EV3GCW85","2022-05-19T02:00:25.374Z","phon_sim-task_switching-rhyme-same_different","","null","phon_sim","<div style=""display:grid""><h1 id=""word_1"" style=""grid-column:1; grid-row:1"">taut</h1><h1 id=""word_2"" style=""visibility:hidden;grid-column:1; grid-row:1"">caught</h1><h1 id=""word_3"" style=""visibility:hidden;grid-column:1; grid-row:1"">wart</h1><h1 id=""word_4"" style=""visibility:hidden;grid-column:1; grid-row:1"">bought</h1><h1 id=""word_5"" style=""visibility:hidden;grid-column:1; grid-row:1"">sort</h1></div>","null","experiment","taut","caught","wart","bought","sort","phonSet","","","","","","","","","","","","","","","","","","","","","","","","","","","",""
"","","","","","survey-text","36","776943","0.0-6.0-1.12","ADY44EV3GCW85","2022-05-19T02:00:25.374Z","phon_sim-task_switching-rhyme-same_different","","42741","phon_sim","","{""position_1"":""taut"",""position_2"":""caught"",""position_3"":""wart"",""position_4"":""bought"",""position_5"":""sort""}","experiment","","","","","","","taut","caught","wart","bought","sort","","","","","","","","","","","","","","","","","","","","","","",""
"","","","","","html-keyboard-response","37","789944","0.0-6.0-0.13","ADY44EV3GCW85","2022-05-19T02:00:25.374Z","phon_sim-task_switching-rhyme-same_different","","null","phon_sim","<div style=""display:grid""><h1 id=""word_1"" style=""grid-column:1; grid-row:1"">plea</h1><h1 id=""word_2"" style=""visibility:hidden;grid-column:1; grid-row:1"">row</h1><h1 id=""word_3"" style=""visibility:hidden;grid-column:1; grid-row:1"">board</h1><h1 id=""word_4"" style=""visibility:hidden;grid-column:1; grid-row:1"">sleigh</h1><h1 id=""word_5"" style=""visibility:hidden;grid-column:1; grid-row:1"">friend</h1></div>","null","experiment","plea","row","board","sleigh","friend","controlSet","","","","","","","","","","","","","","","","","","","","","","","","","","","",""
"","","","","","survey-text","38","821615","0.0-6.0-1.13","ADY44EV3GCW85","2022-05-19T02:00:25.374Z","phon_sim-task_switching-rhyme-same_different","","31668","phon_sim","","{""position_1"":""plea"",""position_2"":""row"",""position_3"":""board"",""position_4"":""sleigh"",""position_5"":""friend""}","experiment","","","","","","","plea","row","board","sleigh","friend","","","","","","","","","","","","","","","","","","","","","","",""
"","","","","","html-keyboard-response","39","834617","0.0-6.0-0.14","ADY44EV3GCW85","2022-05-19T02:00:25.374Z","phon_sim-task_switching-rhyme-same_different","","null","phon_sim","<div style=""display:grid""><h1 id=""word_1"" style=""grid-column:1; grid-row:1"">wart</h1><h1 id=""word_2"" style=""visibility:hidden;grid-column:1; grid-row:1"">caught</h1><h1 id=""word_3"" style=""visibility:hidden;grid-column:1; grid-row:1"">bought</h1><h1 id=""word_4"" style=""visibility:hidden;grid-column:1; grid-row:1"">sort</h1><h1 id=""word_5"" style=""visibility:hidden;grid-column:1; grid-row:1"">taut</h1></div>","null","experiment","wart","caught","bought","sort","taut","phonSet","","","","","","","","","","","","","","","","","","","","","","","","","","","",""
"","","","","","survey-text","40","860745","0.0-6.0-1.14","ADY44EV3GCW85","2022-05-19T02:00:25.374Z","phon_sim-task_switching-rhyme-same_different","","26127","phon_sim","","{""position_1"":""wart"",""position_2"":""caught"",""position_3"":""bought"",""position_4"":""sort"",""position_5"":""taut""}","experiment","","","","","","","wart","caught","bought","sort","taut","","","","","","","","","","","","","","","","","","","","","","",""
"","","","","","html-keyboard-response","41","873746","0.0-6.0-0.15","ADY44EV3GCW85","2022-05-19T02:00:25.374Z","phon_sim-task_switching-rhyme-same_different","","null","phon_sim","<div style=""display:grid""><h1 id=""word_1"" style=""grid-column:1; grid-row:1"">plea</h1><h1 id=""word_2"" style=""visibility:hidden;grid-column:1; grid-row:1"">board</h1><h1 id=""word_3"" style=""visibility:hidden;grid-column:1; grid-row:1"">row</h1><h1 id=""word_4"" style=""visibility:hidden;grid-column:1; grid-row:1"">sleigh</h1><h1 id=""word_5"" style=""visibility:hidden;grid-column:1; grid-row:1"">friend</h1></div>","null","experiment","plea","board","row","sleigh","friend","controlSet","","","","","","","","","","","","","","","","","","","","","","","","","","","",""
"","","","","","survey-text","42","901043","0.0-6.0-1.15","ADY44EV3GCW85","2022-05-19T02:00:25.374Z","phon_sim-task_switching-rhyme-same_different","","27293","phon_sim","","{""position_1"":""plea"",""position_2"":""board"",""position_3"":""row"",""position_4"":""sleigh"",""position_5"":""friend""}","experiment","","","","","","","plea","board","row","sleigh","friend","","","","","","","","","","","","","","","","","","","","","","",""
"","","","","","html-keyboard-response","43","914045","0.0-6.0-0.16","ADY44EV3GCW85","2022-05-19T02:00:25.374Z","phon_sim-task_switching-rhyme-same_different","","null","phon_sim","<div style=""display:grid""><h1 id=""word_1"" style=""grid-column:1; grid-row:1"">wart</h1><h1 id=""word_2"" style=""visibility:hidden;grid-column:1; grid-row:1"">taut</h1><h1 id=""word_3"" style=""visibility:hidden;grid-column:1; grid-row:1"">caught</h1><h1 id=""word_4"" style=""visibility:hidden;grid-column:1; grid-row:1"">bought</h1><h1 id=""word_5"" style=""visibility:hidden;grid-column:1; grid-row:1"">sort</h1></div>","null","experiment","wart","taut","caught","bought","sort","phonSet","","","","","","","","","","","","","","","","","","","","","","","","","","","",""
"","","","","","survey-text","44","948222","0.0-6.0-1.16","ADY44EV3GCW85","2022-05-19T02:00:25.374Z","phon_sim-task_switching-rhyme-same_different","","34174","phon_sim","","{""position_1"":""wart"",""position_2"":""taut"",""position_3"":""caught"",""position_4"":""bought"",""position_5"":""sort""}","experiment","","","","","","","wart","taut","caught","bought","sort","","","","","","","","","","","","","","","","","","","","","","",""
"","","","","","html-keyboard-response","45","961222","0.0-6.0-0.17","ADY44EV3GCW85","2022-05-19T02:00:25.374Z","phon_sim-task_switching-rhyme-same_different","","null","phon_sim","<div style=""display:grid""><h1 id=""word_1"" style=""grid-column:1; grid-row:1"">cough</h1><h1 id=""word_2"" style=""visibility:hidden;grid-column:1; grid-row:1"">bough</h1><h1 id=""word_3"" style=""visibility:hidden;grid-column:1; grid-row:1"">through</h1><h1 id=""word_4"" style=""visibility:hidden;grid-column:1; grid-row:1"">rough</h1><h1 id=""word_5"" style=""visibility:hidden;grid-column:1; grid-row:1"">dough</h1></div>","null","experiment","cough","bough","through","rough","dough","orthoSet","","","","","","","","","","","","","","","","","","","","","","","","","","","",""
"","","","","","survey-text","46","1004955","0.0-6.0-1.17","ADY44EV3GCW85","2022-05-19T02:00:25.374Z","phon_sim-task_switching-rhyme-same_different","","43730","phon_sim","","{""position_1"":""caught"",""position_2"":""bough"",""position_3"":""through"",""position_4"":""rough"",""position_5"":""dough""}","experiment","","","","","","","caught","bough","through","rough","dough","","","","","","","","","","","","","","","","","","","","","","",""
"","","","","","html-keyboard-response","47","1017956","0.0-6.0-0.18","ADY44EV3GCW85","2022-05-19T02:00:25.374Z","phon_sim-task_switching-rhyme-same_different","","null","phon_sim","<div style=""display:grid""><h1 id=""word_1"" style=""grid-column:1; grid-row:1"">caught</h1><h1 id=""word_2"" style=""visibility:hidden;grid-column:1; grid-row:1"">taut</h1><h1 id=""word_3"" style=""visibility:hidden;grid-column:1; grid-row:1"">sort</h1><h1 id=""word_4"" style=""visibility:hidden;grid-column:1; grid-row:1"">bought</h1><h1 id=""word_5"" style=""visibility:hidden;grid-column:1; grid-row:1"">wart</h1></div>","null","experiment","caught","taut","sort","bought","wart","phonSet","","","","","","","","","","","","","","","","","","","","","","","","","","","",""
"","","","","","survey-text","48","1041155","0.0-6.0-1.18","ADY44EV3GCW85","2022-05-19T02:00:25.374Z","phon_sim-task_switching-rhyme-same_different","","23197","phon_sim","","{""position_1"":""caught"",""position_2"":""taut"",""position_3"":""sort"",""position_4"":""bought"",""position_5"":""wart""}","experiment","","","","","","","caught","taut","sort","bought","wart","","","","","","","","","","","","","","","","","","","","","","",""
"","","","","","html-keyboard-response","49","1054156","0.0-6.0-0.19","ADY44EV3GCW85","2022-05-19T02:00:25.374Z","phon_sim-task_switching-rhyme-same_different","","null","phon_sim","<div style=""display:grid""><h1 id=""word_1"" style=""grid-column:1; grid-row:1"">through</h1><h1 id=""word_2"" style=""visibility:hidden;grid-column:1; grid-row:1"">rough</h1><h1 id=""word_3"" style=""visibility:hidden;grid-column:1; grid-row:1"">dough</h1><h1 id=""word_4"" style=""visibility:hidden;grid-column:1; grid-row:1"">cough</h1><h1 id=""word_5"" style=""visibility:hidden;grid-column:1; grid-row:1"">bough</h1></div>","null","experiment","through","rough","dough","cough","bough","orthoSet","","","","","","","","","","","","","","","","","","","","","","","","","","","",""
"","","","","","survey-text","50","1109855","0.0-6.0-1.19","ADY44EV3GCW85","2022-05-19T02:00:25.374Z","phon_sim-task_switching-rhyme-same_different","","55696","phon_sim","","{""position_1"":""through"",""position_2"":"""",""position_3"":""dough"",""position_4"":""cough"",""position_5"":""bough""}","experiment","","","","","","","through","","dough","cough","bough","","","","","","","","","","","","","","","","","","","","","","",""
"","","","","","html-keyboard-response","51","1122856","0.0-6.0-0.20","ADY44EV3GCW85","2022-05-19T02:00:25.374Z","phon_sim-task_switching-rhyme-same_different","","null","phon_sim","<div style=""display:grid""><h1 id=""word_1"" style=""grid-column:1; grid-row:1"">dough</h1><h1 id=""word_2"" style=""visibility:hidden;grid-column:1; grid-row:1"">bough</h1><h1 id=""word_3"" style=""visibility:hidden;grid-column:1; grid-row:1"">cough</h1><h1 id=""word_4"" style=""visibility:hidden;grid-column:1; grid-row:1"">through</h1><h1 id=""word_5"" style=""visibility:hidden;grid-column:1; grid-row:1"">rough</h1></div>","null","experiment","dough","bough","cough","through","rough","orthoSet","","","","","","","","","","","","","","","","","","","","","","","","","","","",""
"","","","","","survey-text","52","1157564","0.0-6.0-1.20","ADY44EV3GCW85","2022-05-19T02:00:25.374Z","phon_sim-task_switching-rhyme-same_different","","34707","phon_sim","","{""position_1"":""dough"",""position_2"":""bough"",""position_3"":""cough"",""position_4"":""through"",""position_5"":""rough""}","experiment","","","","","","","dough","bough","cough","through","rough","","","","","","","","","","","","","","","","","","","","","","",""
"","","","","","html-keyboard-response","53","1170566","0.0-6.0-0.21","ADY44EV3GCW85","2022-05-19T02:00:25.374Z","phon_sim-task_switching-rhyme-same_different","","null","phon_sim","<div style=""display:grid""><h1 id=""word_1"" style=""grid-column:1; grid-row:1"">board</h1><h1 id=""word_2"" style=""visibility:hidden;grid-column:1; grid-row:1"">row</h1><h1 id=""word_3"" style=""visibility:hidden;grid-column:1; grid-row:1"">friend</h1><h1 id=""word_4"" style=""visibility:hidden;grid-column:1; grid-row:1"">sleigh</h1><h1 id=""word_5"" style=""visibility:hidden;grid-column:1; grid-row:1"">plea</h1></div>","null","experiment","board","row","friend","sleigh","plea","controlSet","","","","","","","","","","","","","","","","","","","","","","","","","","","",""
"","","","","","survey-text","54","1195790","0.0-6.0-1.21","ADY44EV3GCW85","2022-05-19T02:00:25.374Z","phon_sim-task_switching-rhyme-same_different","","25222","phon_sim","","{""position_1"":""board"",""position_2"":""row"",""position_3"":""friend"",""position_4"":""sleigh"",""position_5"":""plea""}","experiment","","","","","","","board","row","friend","sleigh","plea","","","","","","","","","","","","","","","","","","","","","","",""
"","","","","","html-keyboard-response","55","1208791","0.0-6.0-0.22","ADY44EV3GCW85","2022-05-19T02:00:25.374Z","phon_sim-task_switching-rhyme-same_different","","null","phon_sim","<div style=""display:grid""><h1 id=""word_1"" style=""grid-column:1; grid-row:1"">bought</h1><h1 id=""word_2"" style=""visibility:hidden;grid-column:1; grid-row:1"">taut</h1><h1 id=""word_3"" style=""visibility:hidden;grid-column:1; grid-row:1"">caught</h1><h1 id=""word_4"" style=""visibility:hidden;grid-column:1; grid-row:1"">wart</h1><h1 id=""word_5"" style=""visibility:hidden;grid-column:1; grid-row:1"">sort</h1></div>","null","experiment","bought","taut","caught","wart","sort","phonSet","","","","","","","","","","","","","","","","","","","","","","","","","","","",""
"","","","","","survey-text","56","1234299","0.0-6.0-1.22","ADY44EV3GCW85","2022-05-19T02:00:25.374Z","phon_sim-task_switching-rhyme-same_different","","25506","phon_sim","","{""position_1"":""bought"",""position_2"":""taut"",""position_3"":""caught"",""position_4"":""wart"",""position_5"":""sort""}","experiment","","","","","","","bought","taut","caught","wart","sort","","","","","","","","","","","","","","","","","","","","","","",""
"","","","","","html-keyboard-response","57","1247301","0.0-6.0-0.23","ADY44EV3GCW85","2022-05-19T02:00:25.374Z","phon_sim-task_switching-rhyme-same_different","","null","phon_sim","<div style=""display:grid""><h1 id=""word_1"" style=""grid-column:1; grid-row:1"">dough</h1><h1 id=""word_2"" style=""visibility:hidden;grid-column:1; grid-row:1"">through</h1><h1 id=""word_3"" style=""visibility:hidden;grid-column:1; grid-row:1"">bough</h1><h1 id=""word_4"" style=""visibility:hidden;grid-column:1; grid-row:1"">rough</h1><h1 id=""word_5"" style=""visibility:hidden;grid-column:1; grid-row:1"">cough</h1></div>","null","experiment","dough","through","bough","rough","cough","orthoSet","","","","","","","","","","","","","","","","","","","","","","","","","","","",""
"","","","","","survey-text","58","1307357","0.0-6.0-1.23","ADY44EV3GCW85","2022-05-19T02:00:25.374Z","phon_sim-task_switching-rhyme-same_different","","60054","phon_sim","","{""position_1"":""dough"",""position_2"":""through"",""position_3"":""bough"",""position_4"":""rough"",""position_5"":""cough""}","experiment","","","","","","","dough","through","bough","rough","cough","","","","","","","","","","","","","","","","","","","","","","",""
"","","","","","survey-multi-choice","59","1312137","0.0-7.0","ADY44EV3GCW85","2022-05-19T02:00:25.374Z","phon_sim-task_switching-rhyme-same_different","","4778","phon_sim","","{""Q0"":""Yes""}","","","","","","","","","","","","","[0]","Yes","","","","","","","","","","","","","","","","","","","","",""
"","","","","","survey-text","60","1352404","0.0-8.0","ADY44EV3GCW85","2022-05-19T02:00:25.374Z","phon_sim-task_switching-rhyme-same_different","","40266","phon_sim","","{""Q0"":""It was easier than noramll because the words stayed the same just in different order.""}","","","","","","","","","","","","","","","It was easier than noramll because the words stayed the same just in different order.","","","","","","","","","","","","","","","","","","","",""
"","","","","","instructions","61","1354609","0.0-9.0","ADY44EV3GCW85","2022-05-19T02:00:25.374Z","phon_sim-task_switching-rhyme-same_different","[{""page_index"":0,""viewing_time"":2204}]","2204","phon_sim","","","","","","","","","","","","","","","","","","","","","","","","","","","","","","","","","","","","",""
"","","","","","instructions","62","1372638","0.0-10.0","ADY44EV3GCW85","2022-05-19T02:00:25.374Z","phon_sim-task_switching-rhyme-same_different","[{""page_index"":0,""viewing_time"":18027}]","18027","task_switching","","","","","","","","","","","","","","","","","","","","","","","","","","","","","","","","","","","","",""
"","","","","","instructions","63","1375858","0.0-11.0","ADY44EV3GCW85","2022-05-19T02:00:25.374Z","phon_sim-task_switching-rhyme-same_different","[{""page_index"":0,""viewing_time"":3220}]","3220","task_switching","","","","","","","","","","","","","","","","","","","","","","","","","","","","","","","","","","","","",""
"","","","","","survey-text","64","1387811","0.0-12.0","ADY44EV3GCW85","2022-05-19T02:00:25.374Z","phon_sim-task_switching-rhyme-same_different","","11951","task_switching","55","{""subtraction_ans"":""52""}","training","","","","","","","","","","","","","","","subtraction","52","true","subtract","","","","","","","","","","","","","","","",""
"","","","","","html-keyboard-response","65","1388813","0.0-13.0","ADY44EV3GCW85","2022-05-19T02:00:25.374Z","phon_sim-task_switching-rhyme-same_different","","null","task_switching","<div style=""color:darkgreen; font-size:60px"">Well done!</div>","null","training","","","","","","","","","","","","","","","subtraction","","","","","","","","","","","","","","","","","","",""
"","","","","","survey-text","66","1393875","0.0-14.0","ADY44EV3GCW85","2022-05-19T02:00:25.374Z","phon_sim-task_switching-rhyme-same_different","","5059","task_switching","78","{""subtraction_ans"":""75""}","training","","","","","","","","","","","","","","","subtraction","75","true","subtract","","","","","","","","","","","","","","","",""
"","","","","","html-keyboard-response","67","1394877","0.0-15.0","ADY44EV3GCW85","2022-05-19T02:00:25.374Z","phon_sim-task_switching-rhyme-same_different","","null","task_switching","<div style=""color:darkgreen; font-size:60px"">Well done!</div>","null","training","","","","","","","","","","","","","","","subtraction","","","","","","","","","","","","","","","","","","",""
"","","","","","survey-text","68","1403590","0.0-16.0","ADY44EV3GCW85","2022-05-19T02:00:25.374Z","phon_sim-task_switching-rhyme-same_different","","8711","task_switching","49","{""subtraction_ans"":""46""}","training","","","","","","","","","","","","","","","subtraction","46","true","subtract","","","","","","","","","","","","","","","",""
"","","","","","html-keyboard-response","69","1404591","0.0-17.0","ADY44EV3GCW85","2022-05-19T02:00:25.374Z","phon_sim-task_switching-rhyme-same_different","","null","task_switching","<div style=""color:darkgreen; font-size:60px"">Well done!</div>","null","training","","","","","","","","","","","","","","","subtraction","","","","","","","","","","","","","","","","","","",""
"","","","","","survey-text","70","1407170","0.0-18.0","ADY44EV3GCW85","2022-05-19T02:00:25.374Z","phon_sim-task_switching-rhyme-same_different","","2577","task_switching","24","{""subtraction_ans"":""21""}","training","","","","","","","","","","","","","","","subtraction","21","true","subtract","","","","","","","","","","","","","","","",""
"","","","","","html-keyboard-response","71","1408172","0.0-19.0","ADY44EV3GCW85","2022-05-19T02:00:25.374Z","phon_sim-task_switching-rhyme-same_different","","null","task_switching","<div style=""color:darkgreen; font-size:60px"">Well done!</div>","null","training","","","","","","","","","","","","","","","subtraction","","","","","","","","","","","","","","","","","","",""
"","","","","","survey-text","72","1411942","0.0-20.0","ADY44EV3GCW85","2022-05-19T02:00:25.374Z","phon_sim-task_switching-rhyme-same_different","","3769","task_switching","84","{""subtraction_ans"":""81""}","training","","","","","","","","","","","","","","","subtraction","81","true","subtract","","","","","","","","","","","","","","","",""
"","","","","","html-keyboard-response","73","1412945","0.0-21.0","ADY44EV3GCW85","2022-05-19T02:00:25.374Z","phon_sim-task_switching-rhyme-same_different","","null","task_switching","<div style=""color:darkgreen; font-size:60px"">Well done!</div>","null","training","","","","","","","","","","","","","","","subtraction","","","","","","","","","","","","","","","","","","",""
"","","","","","survey-text","74","1416634","0.0-22.0","ADY44EV3GCW85","2022-05-19T02:00:25.374Z","phon_sim-task_switching-rhyme-same_different","","3686","task_switching","46","{""subtraction_ans"":""43""}","training","","","","","","","","","","","","","","","subtraction","43","true","subtract","","","","","","","","","","","","","","","",""
"","","","","","html-keyboard-response","75","1417635","0.0-23.0","ADY44EV3GCW85","2022-05-19T02:00:25.374Z","phon_sim-task_switching-rhyme-same_different","","null","task_switching","<div style=""color:darkgreen; font-size:60px"">Well done!</div>","null","training","","","","","","","","","","","","","","","subtraction","","","","","","","","","","","","","","","","","","",""
"","","","","","survey-text","76","1429091","0.0-24.0","ADY44EV3GCW85","2022-05-19T02:00:25.374Z","phon_sim-task_switching-rhyme-same_different","","11455","task_switching","21","{""subtraction_ans"":""18""}","training","","","","","","","","","","","","","","","subtraction","18","true","subtract","","","","","","","","","","","","","","","",""
"","","","","","html-keyboard-response","77","1430092","0.0-25.0","ADY44EV3GCW85","2022-05-19T02:00:25.374Z","phon_sim-task_switching-rhyme-same_different","","null","task_switching","<div style=""color:darkgreen; font-size:60px"">Well done!</div>","null","training","","","","","","","","","","","","","","","subtraction","","","","","","","","","","","","","","","","","","",""
"","","","","","survey-text","78","1435626","0.0-26.0","ADY44EV3GCW85","2022-05-19T02:00:25.374Z","phon_sim-task_switching-rhyme-same_different","","5532","task_switching","51","{""subtraction_ans"":""48""}","training","","","","","","","","","","","","","","","subtraction","48","true","subtract","","","","","","","","","","","","","","","",""
"","","","","","html-keyboard-response","79","1436628","0.0-27.0","ADY44EV3GCW85","2022-05-19T02:00:25.374Z","phon_sim-task_switching-rhyme-same_different","","null","task_switching","<div style=""color:darkgreen; font-size:60px"">Well done!</div>","null","training","","","","","","","","","","","","","","","subtraction","","","","","","","","","","","","","","","","","","",""
"","","","","","survey-text","80","1445981","0.0-28.0","ADY44EV3GCW85","2022-05-19T02:00:25.374Z","phon_sim-task_switching-rhyme-same_different","","9352","task_switching","31","{""subtraction_ans"":""28""}","training","","","","","","","","","","","","","","","subtraction","28","true","subtract","","","","","","","","","","","","","","","",""
"","","","","","html-keyboard-response","81","1446983","0.0-29.0","ADY44EV3GCW85","2022-05-19T02:00:25.374Z","phon_sim-task_switching-rhyme-same_different","","null","task_switching","<div style=""color:darkgreen; font-size:60px"">Well done!</div>","null","training","","","","","","","","","","","","","","","subtraction","","","","","","","","","","","","","","","","","","",""
"","","","","","survey-text","82","1453314","0.0-30.0","ADY44EV3GCW85","2022-05-19T02:00:25.374Z","phon_sim-task_switching-rhyme-same_different","","6330","task_switching","87","{""subtraction_ans"":""84""}","training","","","","","","","","","","","","","","","subtraction","84","true","subtract","","","","","","","","","","","","","","","",""
"","","","","","html-keyboard-response","83","1454316","0.0-31.0","ADY44EV3GCW85","2022-05-19T02:00:25.374Z","phon_sim-task_switching-rhyme-same_different","","null","task_switching","<div style=""color:darkgreen; font-size:60px"">Well done!</div>","null","training","","","","","","","","","","","","","","","subtraction","","","","","","","","","","","","","","","","","","",""
"","","","","","instructions","84","1457716","0.0-32.0","ADY44EV3GCW85","2022-05-19T02:00:25.374Z","phon_sim-task_switching-rhyme-same_different","[{""page_index"":0,""viewing_time"":3402}]","3402","task_switching","","","","","","","","","","","","","","","","","","","","","","","","","","","","","","","","","","","","",""
"","","","","","survey-text","85","1461687","0.0-33.0","ADY44EV3GCW85","2022-05-19T02:00:25.374Z","phon_sim-task_switching-rhyme-same_different","","3968","task_switching","56","{""subtraction_ans"":""53""}","experiment","","","","","","","","","","","","","","","subtraction","53","true","subtract","","","","","","","","","","","","","","","",""
"","","","","","survey-text","86","1465166","0.0-34.0","ADY44EV3GCW85","2022-05-19T02:00:25.374Z","phon_sim-task_switching-rhyme-same_different","","3477","task_switching","62","{""subtraction_ans"":""59""}","experiment","","","","","","","","","","","","","","","subtraction","59","true","subtract","","","","","","","","","","","","","","","",""
"","","","","","survey-text","87","1470997","0.0-35.0","ADY44EV3GCW85","2022-05-19T02:00:25.374Z","phon_sim-task_switching-rhyme-same_different","","5829","task_switching","87","{""subtraction_ans"":""83""}","experiment","","","","","","","","","","","","","","","subtraction","83","false","subtract","","","","","","","","","","","","","","","",""
"","","","","","survey-text","88","1474782","0.0-36.0","ADY44EV3GCW85","2022-05-19T02:00:25.374Z","phon_sim-task_switching-rhyme-same_different","","3783","task_switching","83","{""subtraction_ans"":""80""}","experiment","","","","","","","","","","","","","","","subtraction","80","true","subtract","","","","","","","","","","","","","","","",""
"","","","","","survey-text","89","1479571","0.0-37.0","ADY44EV3GCW85","2022-05-19T02:00:25.374Z","phon_sim-task_switching-rhyme-same_different","","4786","task_switching","85","{""subtraction_ans"":""82""}","experiment","","","","","","","","","","","","","","","subtraction","82","true","subtract","","","","","","","","","","","","","","","",""
"","","","","","survey-text","90","1484159","0.0-38.0","ADY44EV3GCW85","2022-05-19T02:00:25.374Z","phon_sim-task_switching-rhyme-same_different","","4586","task_switching","17","{""subtraction_ans"":""14""}","experiment","","","","","","","","","","","","","","","subtraction","14","true","subtract","","","","","","","","","","","","","","","",""
"","","","","","survey-text","91","1491319","0.0-39.0","ADY44EV3GCW85","2022-05-19T02:00:25.374Z","phon_sim-task_switching-rhyme-same_different","","7158","task_switching","52","{""subtraction_ans"":""49""}","experiment","","","","","","","","","","","","","","","subtraction","49","true","subtract","","","","","","","","","","","","","","","",""
"","","","","","survey-text","92","1494491","0.0-40.0","ADY44EV3GCW85","2022-05-19T02:00:25.374Z","phon_sim-task_switching-rhyme-same_different","","3170","task_switching","55","{""subtraction_ans"":""52""}","experiment","","","","","","","","","","","","","","","subtraction","52","true","subtract","","","","","","","","","","","","","","","",""
"","","","","","survey-text","93","1497986","0.0-41.0","ADY44EV3GCW85","2022-05-19T02:00:25.374Z","phon_sim-task_switching-rhyme-same_different","","3493","task_switching","99","{""subtraction_ans"":""96""}","experiment","","","","","","","","","","","","","","","subtraction","96","true","subtract","","","","","","","","","","","","","","","",""
"","","","","","survey-text","94","1504943","0.0-42.0","ADY44EV3GCW85","2022-05-19T02:00:25.374Z","phon_sim-task_switching-rhyme-same_different","","6955","task_switching","49","{""subtraction_ans"":""46""}","experiment","","","","","","","","","","","","","","","subtraction","46","true","subtract","","","","","","","","","","","","","","","",""
"","","","","","survey-text","95","1507906","0.0-43.0","ADY44EV3GCW85","2022-05-19T02:00:25.374Z","phon_sim-task_switching-rhyme-same_different","","2960","task_switching","66","{""subtraction_ans"":""63""}","experiment","","","","","","","","","","","","","","","subtraction","63","true","subtract","","","","","","","","","","","","","","","",""
"","","","","","survey-text","96","1511649","0.0-44.0","ADY44EV3GCW85","2022-05-19T02:00:25.374Z","phon_sim-task_switching-rhyme-same_different","","3741","task_switching","64","{""subtraction_ans"":""61""}","experiment","","","","","","","","","","","","","","","subtraction","61","true","subtract","","","","","","","","","","","","","","","",""
"","","","","","survey-text","97","1514045","0.0-45.0","ADY44EV3GCW85","2022-05-19T02:00:25.374Z","phon_sim-task_switching-rhyme-same_different","","2393","task_switching","58","{""subtraction_ans"":""55""}","experiment","","","","","","","","","","","","","","","subtraction","55","true","subtract","","","","","","","","","","","","","","","",""
"","","","","","survey-text","98","1520574","0.0-46.0","ADY44EV3GCW85","2022-05-19T02:00:25.374Z","phon_sim-task_switching-rhyme-same_different","","6527","task_switching","14","{""subtraction_ans"":""11""}","experiment","","","","","","","","","","","","","","","subtraction","11","true","subtract","","","","","","","","","","","","","","","",""
"","","","","","survey-text","99","1524441","0.0-47.0","ADY44EV3GCW85","2022-05-19T02:00:25.374Z","phon_sim-task_switching-rhyme-same_different","","3865","task_switching","96","{""subtraction_ans"":""93""}","experiment","","","","","","","","","","","","","","","subtraction","93","true","subtract","","","","","","","","","","","","","","","",""
"","","","","","survey-text","100","1526791","0.0-48.0","ADY44EV3GCW85","2022-05-19T02:00:25.374Z","phon_sim-task_switching-rhyme-same_different","","2346","task_switching","13","{""subtraction_ans"":""10""}","experiment","","","","","","","","","","","","","","","subtraction","10","true","subtract","","","","","","","","","","","","","","","",""
"","","","","","survey-text","101","1529413","0.0-49.0","ADY44EV3GCW85","2022-05-19T02:00:25.374Z","phon_sim-task_switching-rhyme-same_different","","2619","task_switching","19","{""subtraction_ans"":""16""}","experiment","","","","","","","","","","","","","","","subtraction","16","true","subtract","","","","","","","","","","","","","","","",""
"","","","","","survey-text","102","1533823","0.0-50.0","ADY44EV3GCW85","2022-05-19T02:00:25.374Z","phon_sim-task_switching-rhyme-same_different","","4408","task_switching","89","{""subtraction_ans"":""86""}","experiment","","","","","","","","","","","","","","","subtraction","86","true","subtract","","","","","","","","","","","","","","","",""
"","","","","","survey-text","103","1536657","0.0-51.0","ADY44EV3GCW85","2022-05-19T02:00:25.374Z","phon_sim-task_switching-rhyme-same_different","","2832","task_switching","20","{""subtraction_ans"":""17""}","experiment","","","","","","","","","","","","","","","subtraction","17","true","subtract","","","","","","","","","","","","","","","",""
"","","","","","survey-text","104","1542349","0.0-52.0","ADY44EV3GCW85","2022-05-19T02:00:25.374Z","phon_sim-task_switching-rhyme-same_different","","5690","task_switching","92","{""subtraction_ans"":""89""}","experiment","","","","","","","","","","","","","","","subtraction","89","true","subtract","","","","","","","","","","","","","","","",""
"","","","","","survey-text","105","1551044","0.0-53.0","ADY44EV3GCW85","2022-05-19T02:00:25.374Z","phon_sim-task_switching-rhyme-same_different","","8693","task_switching","77","{""subtraction_ans"":""74""}","experiment","","","","","","","","","","","","","","","subtraction","74","true","subtract","","","","","","","","","","","","","","","",""
"","","","","","survey-text","106","1561909","0.0-54.0","ADY44EV3GCW85","2022-05-19T02:00:25.374Z","phon_sim-task_switching-rhyme-same_different","","10863","task_switching","31","{""subtraction_ans"":""28""}","experiment","","","","","","","","","","","","","","","subtraction","28","true","subtract","","","","","","","","","","","","","","","",""
"","","","","","survey-text","107","1564796","0.0-55.0","ADY44EV3GCW85","2022-05-19T02:00:25.374Z","phon_sim-task_switching-rhyme-same_different","","2885","task_switching","35","{""subtraction_ans"":""32""}","experiment","","","","","","","","","","","","","","","subtraction","32","true","subtract","","","","","","","","","","","","","","","",""
"","","","","","survey-text","108","1566968","0.0-56.0","ADY44EV3GCW85","2022-05-19T02:00:25.374Z","phon_sim-task_switching-rhyme-same_different","","2169","task_switching","34","{""subtraction_ans"":""31""}","experiment","","","","","","","","","","","","","","","subtraction","31","true","subtract","","","","","","","","","","","","","","","",""
"","","","","","survey-text","109","1569309","0.0-57.0","ADY44EV3GCW85","2022-05-19T02:00:25.374Z","phon_sim-task_switching-rhyme-same_different","","2339","task_switching","16","{""subtraction_ans"":""13""}","experiment","","","","","","","","","","","","","","","subtraction","13","true","subtract","","","","","","","","","","","","","","","",""
"","","","","","survey-text","110","1571370","0.0-58.0","ADY44EV3GCW85","2022-05-19T02:00:25.374Z","phon_sim-task_switching-rhyme-same_different","","2058","task_switching","36","{""subtraction_ans"":""33""}","experiment","","","","","","","","","","","","","","","subtraction","33","true","subtract","","","","","","","","","","","","","","","",""
"","","","","","survey-text","111","1580293","0.0-59.0","ADY44EV3GCW85","2022-05-19T02:00:25.374Z","phon_sim-task_switching-rhyme-same_different","","8922","task_switching","47","{""subtraction_ans"":""44""}","experiment","","","","","","","","","","","","","","","subtraction","44","true","subtract","","","","","","","","","","","","","","","",""
"","","","","","survey-text","112","1582900","0.0-60.0","ADY44EV3GCW85","2022-05-19T02:00:25.374Z","phon_sim-task_switching-rhyme-same_different","","2605","task_switching","44","{""subtraction_ans"":""41""}","experiment","","","","","","","","","","","","","","","subtraction","41","true","subtract","","","","","","","","","","","","","","","",""
"","","","","","survey-text","113","1591024","0.0-61.0","ADY44EV3GCW85","2022-05-19T02:00:25.374Z","phon_sim-task_switching-rhyme-same_different","","8123","task_switching","97","{""subtraction_ans"":""94""}","experiment","","","","","","","","","","","","","","","subtraction","94","true","subtract","","","","","","","","","","","","","","","",""
"","","","","","survey-text","114","1593049","0.0-62.0","ADY44EV3GCW85","2022-05-19T02:00:25.374Z","phon_sim-task_switching-rhyme-same_different","","2021","task_switching","25","{""subtraction_ans"":""33""}","experiment","","","","","","","","","","","","","","","subtraction","33","false","subtract","","","","","","","","","","","","","","","",""
"","","","","","instructions","115","1642574","0.0-63.0","ADY44EV3GCW85","2022-05-19T02:00:25.374Z","phon_sim-task_switching-rhyme-same_different","[{""page_index"":0,""viewing_time"":49524}]","49524","task_switching","","","","","","","","","","","","","","","","","","","","","","","","","","","","","","","","","","","","",""
"","","","","","survey-text","116","1646266","0.0-64.0","ADY44EV3GCW85","2022-05-19T02:00:25.374Z","phon_sim-task_switching-rhyme-same_different","","3691","task_switching","13","{""addition_ans"":""16""}","training","","","","","","","","","","","","","","","addition","16","true","add","","","","","","","","","","","","","","","",""
"","","","","","html-keyboard-response","117","1647267","0.0-65.0","ADY44EV3GCW85","2022-05-19T02:00:25.374Z","phon_sim-task_switching-rhyme-same_different","","null","task_switching","<div style=""color:darkgreen; font-size:60px"">Well done!</div>","null","training","","","","","","","","","","","","","","","addition","","","","","","","","","","","","","","","","","","",""
"","","","","","survey-text","118","1652128","0.0-66.0","ADY44EV3GCW85","2022-05-19T02:00:25.374Z","phon_sim-task_switching-rhyme-same_different","","4857","task_switching","71","{""addition_ans"":""74""}","training","","","","","","","","","","","","","","","addition","74","true","add","","","","","","","","","","","","","","","",""
"","","","","","html-keyboard-response","119","1653130","0.0-67.0","ADY44EV3GCW85","2022-05-19T02:00:25.374Z","phon_sim-task_switching-rhyme-same_different","","null","task_switching","<div style=""color:darkgreen; font-size:60px"">Well done!</div>","null","training","","","","","","","","","","","","","","","addition","","","","","","","","","","","","","","","","","","",""
"","","","","","survey-text","120","1659272","0.0-68.0","ADY44EV3GCW85","2022-05-19T02:00:25.374Z","phon_sim-task_switching-rhyme-same_different","","6141","task_switching","92","{""addition_ans"":""95""}","training","","","","","","","","","","","","","","","addition","95","true","add","","","","","","","","","","","","","","","",""
"","","","","","html-keyboard-response","121","1660274","0.0-69.0","ADY44EV3GCW85","2022-05-19T02:00:25.374Z","phon_sim-task_switching-rhyme-same_different","","null","task_switching","<div style=""color:darkgreen; font-size:60px"">Well done!</div>","null","training","","","","","","","","","","","","","","","addition","","","","","","","","","","","","","","","","","","",""
"","","","","","survey-text","122","1663896","0.0-70.0","ADY44EV3GCW85","2022-05-19T02:00:25.374Z","phon_sim-task_switching-rhyme-same_different","","3619","task_switching","83","{""addition_ans"":""86""}","training","","","","","","","","","","","","","","","addition","86","true","add","","","","","","","","","","","","","","","",""
"","","","","","html-keyboard-response","123","1664896","0.0-71.0","ADY44EV3GCW85","2022-05-19T02:00:25.374Z","phon_sim-task_switching-rhyme-same_different","","null","task_switching","<div style=""color:darkgreen; font-size:60px"">Well done!</div>","null","training","","","","","","","","","","","","","","","addition","","","","","","","","","","","","","","","","","","",""
"","","","","","survey-text","124","1667885","0.0-72.0","ADY44EV3GCW85","2022-05-19T02:00:25.374Z","phon_sim-task_switching-rhyme-same_different","","2986","task_switching","40","{""addition_ans"":""43""}","training","","","","","","","","","","","","","","","addition","43","true","add","","","","","","","","","","","","","","","",""
"","","","","","html-keyboard-response","125","1668886","0.0-73.0","ADY44EV3GCW85","2022-05-19T02:00:25.374Z","phon_sim-task_switching-rhyme-same_different","","null","task_switching","<div style=""color:darkgreen; font-size:60px"">Well done!</div>","null","training","","","","","","","","","","","","","","","addition","","","","","","","","","","","","","","","","","","",""
"","","","","","survey-text","126","1672964","0.0-74.0","ADY44EV3GCW85","2022-05-19T02:00:25.374Z","phon_sim-task_switching-rhyme-same_different","","4075","task_switching","82","{""addition_ans"":""85""}","training","","","","","","","","","","","","","","","addition","85","true","add","","","","","","","","","","","","","","","",""
"","","","","","html-keyboard-response","127","1673966","0.0-75.0","ADY44EV3GCW85","2022-05-19T02:00:25.374Z","phon_sim-task_switching-rhyme-same_different","","null","task_switching","<div style=""color:darkgreen; font-size:60px"">Well done!</div>","null","training","","","","","","","","","","","","","","","addition","","","","","","","","","","","","","","","","","","",""
"","","","","","survey-text","128","1681340","0.0-76.0","ADY44EV3GCW85","2022-05-19T02:00:25.374Z","phon_sim-task_switching-rhyme-same_different","","7373","task_switching","79","{""addition_ans"":""82""}","training","","","","","","","","","","","","","","","addition","82","true","add","","","","","","","","","","","","","","","",""
"","","","","","html-keyboard-response","129","1682341","0.0-77.0","ADY44EV3GCW85","2022-05-19T02:00:25.374Z","phon_sim-task_switching-rhyme-same_different","","null","task_switching","<div style=""color:darkgreen; font-size:60px"">Well done!</div>","null","training","","","","","","","","","","","","","","","addition","","","","","","","","","","","","","","","","","","",""
"","","","","","survey-text","130","1685556","0.0-78.0","ADY44EV3GCW85","2022-05-19T02:00:25.374Z","phon_sim-task_switching-rhyme-same_different","","3214","task_switching","72","{""addition_ans"":""75""}","training","","","","","","","","","","","","","","","addition","75","true","add","","","","","","","","","","","","","","","",""
"","","","","","html-keyboard-response","131","1686557","0.0-79.0","ADY44EV3GCW85","2022-05-19T02:00:25.374Z","phon_sim-task_switching-rhyme-same_different","","null","task_switching","<div style=""color:darkgreen; font-size:60px"">Well done!</div>","null","training","","","","","","","","","","","","","","","addition","","","","","","","","","","","","","","","","","","",""
"","","","","","survey-text","132","1690771","0.0-80.0","ADY44EV3GCW85","2022-05-19T02:00:25.374Z","phon_sim-task_switching-rhyme-same_different","","4210","task_switching","25","{""addition_ans"":""28""}","training","","","","","","","","","","","","","","","addition","28","true","add","","","","","","","","","","","","","","","",""
"","","","","","html-keyboard-response","133","1691772","0.0-81.0","ADY44EV3GCW85","2022-05-19T02:00:25.374Z","phon_sim-task_switching-rhyme-same_different","","null","task_switching","<div style=""color:darkgreen; font-size:60px"">Well done!</div>","null","training","","","","","","","","","","","","","","","addition","","","","","","","","","","","","","","","","","","",""
"","","","","","survey-text","134","1694654","0.0-82.0","ADY44EV3GCW85","2022-05-19T02:00:25.374Z","phon_sim-task_switching-rhyme-same_different","","2880","task_switching","63","{""addition_ans"":""66""}","training","","","","","","","","","","","","","","","addition","66","true","add","","","","","","","","","","","","","","","",""
"","","","","","html-keyboard-response","135","1695656","0.0-83.0","ADY44EV3GCW85","2022-05-19T02:00:25.374Z","phon_sim-task_switching-rhyme-same_different","","null","task_switching","<div style=""color:darkgreen; font-size:60px"">Well done!</div>","null","training","","","","","","","","","","","","","","","addition","","","","","","","","","","","","","","","","","","",""
"","","","","","instructions","136","1697278","0.0-84.0","ADY44EV3GCW85","2022-05-19T02:00:25.374Z","phon_sim-task_switching-rhyme-same_different","[{""page_index"":0,""viewing_time"":1621}]","1621","task_switching","","","","","","","","","","","","","","","","","","","","","","","","","","","","","","","","","","","","",""
"","","","","","survey-text","137","1701046","0.0-85.0","ADY44EV3GCW85","2022-05-19T02:00:25.374Z","phon_sim-task_switching-rhyme-same_different","","3767","task_switching","34","{""addition_ans"":""37""}","experiment","","","","","","","","","","","","","","","addition","37","true","add","","","","","","","","","","","","","","","",""
"","","","","","survey-text","138","1703978","0.0-86.0","ADY44EV3GCW85","2022-05-19T02:00:25.374Z","phon_sim-task_switching-rhyme-same_different","","2930","task_switching","96","{""addition_ans"":""99""}","experiment","","","","","","","","","","","","","","","addition","99","true","add","","","","","","","","","","","","","","","",""
"","","","","","survey-text","139","1707888","0.0-87.0","ADY44EV3GCW85","2022-05-19T02:00:25.374Z","phon_sim-task_switching-rhyme-same_different","","3908","task_switching","76","{""addition_ans"":""79""}","experiment","","","","","","","","","","","","","","","addition","79","true","add","","","","","","","","","","","","","","","",""
"","","","","","survey-text","140","1712081","0.0-88.0","ADY44EV3GCW85","2022-05-19T02:00:25.374Z","phon_sim-task_switching-rhyme-same_different","","4191","task_switching","61","{""addition_ans"":""64""}","experiment","","","","","","","","","","","","","","","addition","64","true","add","","","","","","","","","","","","","","","",""
"","","","","","survey-text","141","1715241","0.0-89.0","ADY44EV3GCW85","2022-05-19T02:00:25.374Z","phon_sim-task_switching-rhyme-same_different","","3157","task_switching","36","{""addition_ans"":""39""}","experiment","","","","","","","","","","","","","","","addition","39","true","add","","","","","","","","","","","","","","","",""
"","","","","","survey-text","142","1718911","0.0-90.0","ADY44EV3GCW85","2022-05-19T02:00:25.374Z","phon_sim-task_switching-rhyme-same_different","","3667","task_switching","95","{""addition_ans"":""98""}","experiment","","","","","","","","","","","","","","","addition","98","true","add","","","","","","","","","","","","","","","",""
"","","","","","survey-text","143","1723094","0.0-91.0","ADY44EV3GCW85","2022-05-19T02:00:25.374Z","phon_sim-task_switching-rhyme-same_different","","4181","task_switching","92","{""addition_ans"":""95""}","experiment","","","","","","","","","","","","","","","addition","95","true","add","","","","","","","","","","","","","","","",""
"","","","","","survey-text","144","1725398","0.0-92.0","ADY44EV3GCW85","2022-05-19T02:00:25.374Z","phon_sim-task_switching-rhyme-same_different","","2302","task_switching","67","{""addition_ans"":""2""}","experiment","","","","","","","","","","","","","","","addition","2","false","add","","","","","","","","","","","","","","","",""
"","","","","","survey-text","145","1734553","0.0-93.0","ADY44EV3GCW85","2022-05-19T02:00:25.374Z","phon_sim-task_switching-rhyme-same_different","","9152","task_switching","71","{""addition_ans"":""74""}","experiment","","","","","","","","","","","","","","","addition","74","true","add","","","","","","","","","","","","","","","",""
"","","","","","survey-text","146","1744024","0.0-94.0","ADY44EV3GCW85","2022-05-19T02:00:25.374Z","phon_sim-task_switching-rhyme-same_different","","9469","task_switching","48","{""addition_ans"":""51""}","experiment","","","","","","","","","","","","","","","addition","51","true","add","","","","","","","","","","","","","","","",""
"","","","","","survey-text","147","1747220","0.0-95.0","ADY44EV3GCW85","2022-05-19T02:00:25.374Z","phon_sim-task_switching-rhyme-same_different","","3193","task_switching","11","{""addition_ans"":""14""}","experiment","","","","","","","","","","","","","","","addition","14","true","add","","","","","","","","","","","","","","","",""
"","","","","","survey-text","148","1749575","0.0-96.0","ADY44EV3GCW85","2022-05-19T02:00:25.374Z","phon_sim-task_switching-rhyme-same_different","","2354","task_switching","19","{""addition_ans"":""22""}","experiment","","","","","","","","","","","","","","","addition","22","true","add","","","","","","","","","","","","","","","",""
"","","","","","survey-text","149","1753713","0.0-97.0","ADY44EV3GCW85","2022-05-19T02:00:25.374Z","phon_sim-task_switching-rhyme-same_different","","4136","task_switching","73","{""addition_ans"":""76""}","experiment","","","","","","","","","","","","","","","addition","76","true","add","","","","","","","","","","","","","","","",""
"","","","","","survey-text","150","1756294","0.0-98.0","ADY44EV3GCW85","2022-05-19T02:00:25.374Z","phon_sim-task_switching-rhyme-same_different","","2578","task_switching","32","{""addition_ans"":""35""}","experiment","","","","","","","","","","","","","","","addition","35","true","add","","","","","","","","","","","","","","","",""
"","","","","","survey-text","151","1759429","0.0-99.0","ADY44EV3GCW85","2022-05-19T02:00:25.374Z","phon_sim-task_switching-rhyme-same_different","","3134","task_switching","46","{""addition_ans"":""49""}","experiment","","","","","","","","","","","","","","","addition","49","true","add","","","","","","","","","","","","","","","",""
"","","","","","survey-text","152","1762233","0.0-100.0","ADY44EV3GCW85","2022-05-19T02:00:25.374Z","phon_sim-task_switching-rhyme-same_different","","2802","task_switching","53","{""addition_ans"":""56""}","experiment","","","","","","","","","","","","","","","addition","56","true","add","","","","","","","","","","","","","","","",""
"","","","","","survey-text","153","1765217","0.0-101.0","ADY44EV3GCW85","2022-05-19T02:00:25.374Z","phon_sim-task_switching-rhyme-same_different","","2981","task_switching","51","{""addition_ans"":""54""}","experiment","","","","","","","","","","","","","","","addition","54","true","add","","","","","","","","","","","","","","","",""
"","","","","","survey-text","154","1767661","0.0-102.0","ADY44EV3GCW85","2022-05-19T02:00:25.374Z","phon_sim-task_switching-rhyme-same_different","","2441","task_switching","85","{""addition_ans"":""88""}","experiment","","","","","","","","","","","","","","","addition","88","true","add","","","","","","","","","","","","","","","",""
"","","","","","survey-text","155","1770233","0.0-103.0","ADY44EV3GCW85","2022-05-19T02:00:25.374Z","phon_sim-task_switching-rhyme-same_different","","2570","task_switching","17","{""addition_ans"":""20""}","experiment","","","","","","","","","","","","","","","addition","20","true","add","","","","","","","","","","","","","","","",""
"","","","","","survey-text","156","1774162","0.0-104.0","ADY44EV3GCW85","2022-05-19T02:00:25.374Z","phon_sim-task_switching-rhyme-same_different","","3928","task_switching","90","{""addition_ans"":""93""}","experiment","","","","","","","","","","","","","","","addition","93","true","add","","","","","","","","","","","","","","","",""
"","","","","","survey-text","157","1777725","0.0-105.0","ADY44EV3GCW85","2022-05-19T02:00:25.374Z","phon_sim-task_switching-rhyme-same_different","","3560","task_switching","45","{""addition_ans"":""48""}","experiment","","","","","","","","","","","","","","","addition","48","true","add","","","","","","","","","","","","","","","",""
"","","","","","survey-text","158","1784542","0.0-106.0","ADY44EV3GCW85","2022-05-19T02:00:25.374Z","phon_sim-task_switching-rhyme-same_different","","6815","task_switching","68","{""addition_ans"":""71""}","experiment","","","","","","","","","","","","","","","addition","71","true","add","","","","","","","","","","","","","","","",""
"","","","","","survey-text","159","1787773","0.0-107.0","ADY44EV3GCW85","2022-05-19T02:00:25.374Z","phon_sim-task_switching-rhyme-same_different","","3227","task_switching","44","{""addition_ans"":""47""}","experiment","","","","","","","","","","","","","","","addition","47","true","add","","","","","","","","","","","","","","","",""
"","","","","","survey-text","160","1790796","0.0-108.0","ADY44EV3GCW85","2022-05-19T02:00:25.374Z","phon_sim-task_switching-rhyme-same_different","","3021","task_switching","33","{""addition_ans"":""36""}","experiment","","","","","","","","","","","","","","","addition","36","true","add","","","","","","","","","","","","","","","",""
"","","","","","survey-text","161","1793407","0.0-109.0","ADY44EV3GCW85","2022-05-19T02:00:25.374Z","phon_sim-task_switching-rhyme-same_different","","2608","task_switching","25","{""addition_ans"":""28""}","experiment","","","","","","","","","","","","","","","addition","28","true","add","","","","","","","","","","","","","","","",""
"","","","","","survey-text","162","1796676","0.0-110.0","ADY44EV3GCW85","2022-05-19T02:00:25.374Z","phon_sim-task_switching-rhyme-same_different","","3268","task_switching","55","{""addition_ans"":""58""}","experiment","","","","","","","","","","","","","","","addition","58","true","add","","","","","","","","","","","","","","","",""
"","","","","","survey-text","163","1800308","0.0-111.0","ADY44EV3GCW85","2022-05-19T02:00:25.374Z","phon_sim-task_switching-rhyme-same_different","","3629","task_switching","94","{""addition_ans"":""97""}","experiment","","","","","","","","","","","","","","","addition","97","true","add","","","","","","","","","","","","","","","",""
"","","","","","survey-text","164","1805250","0.0-112.0","ADY44EV3GCW85","2022-05-19T02:00:25.374Z","phon_sim-task_switching-rhyme-same_different","","4940","task_switching","91","{""addition_ans"":""94""}","experiment","","","","","","","","","","","","","","","addition","94","true","add","","","","","","","","","","","","","","","",""
"","","","","","survey-text","165","1809232","0.0-113.0","ADY44EV3GCW85","2022-05-19T02:00:25.374Z","phon_sim-task_switching-rhyme-same_different","","3981","task_switching","72","{""addition_ans"":""75""}","experiment","","","","","","","","","","","","","","","addition","75","true","add","","","","","","","","","","","","","","","",""
"","","","","","survey-text","166","1811855","0.0-114.0","ADY44EV3GCW85","2022-05-19T02:00:25.374Z","phon_sim-task_switching-rhyme-same_different","","2620","task_switching","10","{""addition_ans"":""13""}","experiment","","","","","","","","","","","","","","","addition","13","true","add","","","","","","","","","","","","","","","",""
"","","","","","instructions","167","1819758","0.0-115.0","ADY44EV3GCW85","2022-05-19T02:00:25.374Z","phon_sim-task_switching-rhyme-same_different","[{""page_index"":0,""viewing_time"":7902}]","7902","task_switching","","","","","","","","","","","","","","","","","","","","","","","","","","","","","","","","","","","","",""
"","","","","","survey-text","168","1823988","0.0-116.0","ADY44EV3GCW85","2022-05-19T02:00:25.374Z","phon_sim-task_switching-rhyme-same_different","","4228","task_switching","72","{""colorcue_switch_ans"":""75""}","training","","","","","","","","","","","","","","","colorcue_switch","75","true","add","red","0","","","","","","","","","","","","","",""
"","","","","","html-keyboard-response","169","1824989","0.0-117.0","ADY44EV3GCW85","2022-05-19T02:00:25.374Z","phon_sim-task_switching-rhyme-same_different","","null","task_switching","<div style=""color:darkgreen; font-size:60px"">Well done!</div>","null","training","","","","","","","","","","","","","","","colorcue_switch","","","","","","","","","","","","","","","","","","",""
"","","","","","survey-text","170","1828641","0.0-118.0","ADY44EV3GCW85","2022-05-19T02:00:25.374Z","phon_sim-task_switching-rhyme-same_different","","3650","task_switching","15","{""colorcue_switch_ans"":""12""}","training","","","","","","","","","","","","","","","colorcue_switch","12","true","subtract","blue","1","","","","","","","","","","","","","",""
"","","","","","html-keyboard-response","171","1829643","0.0-119.0","ADY44EV3GCW85","2022-05-19T02:00:25.374Z","phon_sim-task_switching-rhyme-same_different","","null","task_switching","<div style=""color:darkgreen; font-size:60px"">Well done!</div>","null","training","","","","","","","","","","","","","","","colorcue_switch","","","","","","","","","","","","","","","","","","",""
"","","","","","survey-text","172","1834698","0.0-120.0","ADY44EV3GCW85","2022-05-19T02:00:25.374Z","phon_sim-task_switching-rhyme-same_different","","5052","task_switching","93","{""colorcue_switch_ans"":""96""}","training","","","","","","","","","","","","","","","colorcue_switch","96","true","add","red","2","","","","","","","","","","","","","",""
"","","","","","html-keyboard-response","173","1835698","0.0-121.0","ADY44EV3GCW85","2022-05-19T02:00:25.374Z","phon_sim-task_switching-rhyme-same_different","","null","task_switching","<div style=""color:darkgreen; font-size:60px"">Well done!</div>","null","training","","","","","","","","","","","","","","","colorcue_switch","","","","","","","","","","","","","","","","","","",""
"","","","","","survey-text","174","1839134","0.0-122.0","ADY44EV3GCW85","2022-05-19T02:00:25.374Z","phon_sim-task_switching-rhyme-same_different","","3434","task_switching","16","{""colorcue_switch_ans"":""13""}","training","","","","","","","","","","","","","","","colorcue_switch","13","true","subtract","blue","3","","","","","","","","","","","","","",""
"","","","","","html-keyboard-response","175","1840136","0.0-123.0","ADY44EV3GCW85","2022-05-19T02:00:25.374Z","phon_sim-task_switching-rhyme-same_different","","null","task_switching","<div style=""color:darkgreen; font-size:60px"">Well done!</div>","null","training","","","","","","","","","","","","","","","colorcue_switch","","","","","","","","","","","","","","","","","","",""
"","","","","","survey-text","176","1845687","0.0-124.0","ADY44EV3GCW85","2022-05-19T02:00:25.374Z","phon_sim-task_switching-rhyme-same_different","","5548","task_switching","47","{""colorcue_switch_ans"":""50""}","training","","","","","","","","","","","","","","","colorcue_switch","50","true","add","red","4","","","","","","","","","","","","","",""
"","","","","","html-keyboard-response","177","1846688","0.0-125.0","ADY44EV3GCW85","2022-05-19T02:00:25.374Z","phon_sim-task_switching-rhyme-same_different","","null","task_switching","<div style=""color:darkgreen; font-size:60px"">Well done!</div>","null","training","","","","","","","","","","","","","","","colorcue_switch","","","","","","","","","","","","","","","","","","",""
"","","","","","survey-text","178","1850397","0.0-126.0","ADY44EV3GCW85","2022-05-19T02:00:25.374Z","phon_sim-task_switching-rhyme-same_different","","3707","task_switching","19","{""colorcue_switch_ans"":""16""}","training","","","","","","","","","","","","","","","colorcue_switch","16","true","subtract","blue","5","","","","","","","","","","","","","",""
"","","","","","html-keyboard-response","179","1851398","0.0-127.0","ADY44EV3GCW85","2022-05-19T02:00:25.374Z","phon_sim-task_switching-rhyme-same_different","","null","task_switching","<div style=""color:darkgreen; font-size:60px"">Well done!</div>","null","training","","","","","","","","","","","","","","","colorcue_switch","","","","","","","","","","","","","","","","","","",""
"","","","","","survey-text","180","1855305","0.0-128.0","ADY44EV3GCW85","2022-05-19T02:00:25.374Z","phon_sim-task_switching-rhyme-same_different","","3905","task_switching","63","{""colorcue_switch_ans"":""66""}","training","","","","","","","","","","","","","","","colorcue_switch","66","true","add","red","6","","","","","","","","","","","","","",""
"","","","","","html-keyboard-response","181","1856307","0.0-129.0","ADY44EV3GCW85","2022-05-19T02:00:25.374Z","phon_sim-task_switching-rhyme-same_different","","null","task_switching","<div style=""color:darkgreen; font-size:60px"">Well done!</div>","null","training","","","","","","","","","","","","","","","colorcue_switch","","","","","","","","","","","","","","","","","","",""
"","","","","","survey-text","182","1862372","0.0-130.0","ADY44EV3GCW85","2022-05-19T02:00:25.374Z","phon_sim-task_switching-rhyme-same_different","","6063","task_switching","92","{""colorcue_switch_ans"":""89""}","training","","","","","","","","","","","","","","","colorcue_switch","89","true","subtract","blue","7","","","","","","","","","","","","","",""
"","","","","","html-keyboard-response","183","1863373","0.0-131.0","ADY44EV3GCW85","2022-05-19T02:00:25.374Z","phon_sim-task_switching-rhyme-same_different","","null","task_switching","<div style=""color:darkgreen; font-size:60px"">Well done!</div>","null","training","","","","","","","","","","","","","","","colorcue_switch","","","","","","","","","","","","","","","","","","",""
"","","","","","survey-text","184","1866728","0.0-132.0","ADY44EV3GCW85","2022-05-19T02:00:25.374Z","phon_sim-task_switching-rhyme-same_different","","3352","task_switching","85","{""colorcue_switch_ans"":""88""}","training","","","","","","","","","","","","","","","colorcue_switch","88","true","add","red","8","","","","","","","","","","","","","",""
"","","","","","html-keyboard-response","185","1867728","0.0-133.0","ADY44EV3GCW85","2022-05-19T02:00:25.374Z","phon_sim-task_switching-rhyme-same_different","","null","task_switching","<div style=""color:darkgreen; font-size:60px"">Well done!</div>","null","training","","","","","","","","","","","","","","","colorcue_switch","","","","","","","","","","","","","","","","","","",""
"","","","","","survey-text","186","1873753","0.0-134.0","ADY44EV3GCW85","2022-05-19T02:00:25.374Z","phon_sim-task_switching-rhyme-same_different","","6021","task_switching","89","{""colorcue_switch_ans"":""86""}","training","","","","","","","","","","","","","","","colorcue_switch","86","true","subtract","blue","9","","","","","","","","","","","","","",""
"","","","","","html-keyboard-response","187","1874755","0.0-135.0","ADY44EV3GCW85","2022-05-19T02:00:25.374Z","phon_sim-task_switching-rhyme-same_different","","null","task_switching","<div style=""color:darkgreen; font-size:60px"">Well done!</div>","null","training","","","","","","","","","","","","","","","colorcue_switch","","","","","","","","","","","","","","","","","","",""
"","","","","","instructions","188","1884636","0.0-136.0","ADY44EV3GCW85","2022-05-19T02:00:25.374Z","phon_sim-task_switching-rhyme-same_different","[{""page_index"":0,""viewing_time"":9882}]","9882","task_switching","","","","","","","","","","","","","","","","","","","","","","","","","","","","","","","","","","","","",""
"","","","","","survey-text","189","1890745","0.0-137.0","ADY44EV3GCW85","2022-05-19T02:00:25.374Z","phon_sim-task_switching-rhyme-same_different","","6106","task_switching","62","{""colorcue_switch_ans"":""59""}","experiment","","","","","","","","","","","","","","","colorcue_switch","59","false","add","red","0","","","","","","","","","","","","","",""
"","","","","","survey-text","190","1894828","0.0-138.0","ADY44EV3GCW85","2022-05-19T02:00:25.374Z","phon_sim-task_switching-rhyme-same_different","","4082","task_switching","30","{""colorcue_switch_ans"":""27""}","experiment","","","","","","","","","","","","","","","colorcue_switch","27","true","subtract","blue","1","","","","","","","","","","","","","",""
"","","","","","survey-text","191","1898211","0.0-139.0","ADY44EV3GCW85","2022-05-19T02:00:25.374Z","phon_sim-task_switching-rhyme-same_different","","3380","task_switching","34","{""colorcue_switch_ans"":""31""}","experiment","","","","","","","","","","","","","","","colorcue_switch","31","false","add","red","2","","","","","","","","","","","","","",""
"","","","","","survey-text","192","1907604","0.0-140.0","ADY44EV3GCW85","2022-05-19T02:00:25.374Z","phon_sim-task_switching-rhyme-same_different","","9390","task_switching","46","{""colorcue_switch_ans"":""43""}","experiment","","","","","","","","","","","","","","","colorcue_switch","43","true","subtract","blue","3","","","","","","","","","","","","","",""
"","","","","","survey-text","193","1911734","0.0-141.0","ADY44EV3GCW85","2022-05-19T02:00:25.374Z","phon_sim-task_switching-rhyme-same_different","","4128","task_switching","21","{""colorcue_switch_ans"":""24""}","experiment","","","","","","","","","","","","","","","colorcue_switch","24","true","add","red","4","","","","","","","","","","","","","",""
"","","","","","survey-text","194","1914721","0.0-142.0","ADY44EV3GCW85","2022-05-19T02:00:25.374Z","phon_sim-task_switching-rhyme-same_different","","2985","task_switching","26","{""colorcue_switch_ans"":""23""}","experiment","","","","","","","","","","","","","","","colorcue_switch","23","true","subtract","blue","5","","","","","","","","","","","","","",""
"","","","","","survey-text","195","1919267","0.0-143.0","ADY44EV3GCW85","2022-05-19T02:00:25.374Z","phon_sim-task_switching-rhyme-same_different","","4542","task_switching","55","{""colorcue_switch_ans"":""58""}","experiment","","","","","","","","","","","","","","","colorcue_switch","58","true","add","red","6","","","","","","","","","","","","","",""
"","","","","","survey-text","196","1924876","0.0-144.0","ADY44EV3GCW85","2022-05-19T02:00:25.374Z","phon_sim-task_switching-rhyme-same_different","","5607","task_switching","68","{""colorcue_switch_ans"":""65""}","experiment","","","","","","","","","","","","","","","colorcue_switch","65","true","subtract","blue","7","","","","","","","","","","","","","",""
"","","","","","survey-text","197","1930355","0.0-145.0","ADY44EV3GCW85","2022-05-19T02:00:25.374Z","phon_sim-task_switching-rhyme-same_different","","5477","task_switching","86","{""colorcue_switch_ans"":""89""}","experiment","","","","","","","","","","","","","","","colorcue_switch","89","true","add","red","8","","","","","","","","","","","","","",""
"","","","","","survey-text","198","1933539","0.0-146.0","ADY44EV3GCW85","2022-05-19T02:00:25.374Z","phon_sim-task_switching-rhyme-same_different","","3182","task_switching","18","{""colorcue_switch_ans"":""15""}","experiment","","","","","","","","","","","","","","","colorcue_switch","15","true","subtract","blue","9","","","","","","","","","","","","","",""
"","","","","","survey-text","199","1937586","0.0-147.0","ADY44EV3GCW85","2022-05-19T02:00:25.374Z","phon_sim-task_switching-rhyme-same_different","","4046","task_switching","82","{""colorcue_switch_ans"":""85""}","experiment","","","","","","","","","","","","","","","colorcue_switch","85","true","add","red","10","","","","","","","","","","","","","",""
"","","","","","survey-text","200","1940868","0.0-148.0","ADY44EV3GCW85","2022-05-19T02:00:25.374Z","phon_sim-task_switching-rhyme-same_different","","3280","task_switching","13","{""colorcue_switch_ans"":""10""}","experiment","","","","","","","","","","","","","","","colorcue_switch","10","true","subtract","blue","11","","","","","","","","","","","","","",""
"","","","","","survey-text","201","1946199","0.0-149.0","ADY44EV3GCW85","2022-05-19T02:00:25.374Z","phon_sim-task_switching-rhyme-same_different","","5329","task_switching","53","{""colorcue_switch_ans"":""56""}","experiment","","","","","","","","","","","","","","","colorcue_switch","56","true","add","red","12","","","","","","","","","","","","","",""
"","","","","","survey-text","202","1950759","0.0-150.0","ADY44EV3GCW85","2022-05-19T02:00:25.374Z","phon_sim-task_switching-rhyme-same_different","","4558","task_switching","60","{""colorcue_switch_ans"":""57""}","experiment","","","","","","","","","","","","","","","colorcue_switch","57","true","subtract","blue","13","","","","","","","","","","","","","",""
"","","","","","survey-text","203","1955685","0.0-151.0","ADY44EV3GCW85","2022-05-19T02:00:25.374Z","phon_sim-task_switching-rhyme-same_different","","4924","task_switching","77","{""colorcue_switch_ans"":""80""}","experiment","","","","","","","","","","","","","","","colorcue_switch","80","true","add","red","14","","","","","","","","","","","","","",""
"","","","","","survey-text","204","1958484","0.0-152.0","ADY44EV3GCW85","2022-05-19T02:00:25.374Z","phon_sim-task_switching-rhyme-same_different","","2796","task_switching","14","{""colorcue_switch_ans"":""11""}","experiment","","","","","","","","","","","","","","","colorcue_switch","11","true","subtract","blue","15","","","","","","","","","","","","","",""
"","","","","","survey-text","205","1966339","0.0-153.0","ADY44EV3GCW85","2022-05-19T02:00:25.374Z","phon_sim-task_switching-rhyme-same_different","","7852","task_switching","49","{""colorcue_switch_ans"":""52""}","experiment","","","","","","","","","","","","","","","colorcue_switch","52","true","add","red","16","","","","","","","","","","","","","",""
"","","","","","survey-text","206","1972368","0.0-154.0","ADY44EV3GCW85","2022-05-19T02:00:25.374Z","phon_sim-task_switching-rhyme-same_different","","6026","task_switching","96","{""colorcue_switch_ans"":""93""}","experiment","","","","","","","","","","","","","","","colorcue_switch","93","true","subtract","blue","17","","","","","","","","","","","","","",""
"","","","","","survey-text","207","1976197","0.0-155.0","ADY44EV3GCW85","2022-05-19T02:00:25.374Z","phon_sim-task_switching-rhyme-same_different","","3828","task_switching","72","{""colorcue_switch_ans"":""75""}","experiment","","","","","","","","","","","","","","","colorcue_switch","75","true","add","red","18","","","","","","","","","","","","","",""
"","","","","","survey-text","208","1980906","0.0-156.0","ADY44EV3GCW85","2022-05-19T02:00:25.374Z","phon_sim-task_switching-rhyme-same_different","","4706","task_switching","74","{""colorcue_switch_ans"":""71""}","experiment","","","","","","","","","","","","","","","colorcue_switch","71","true","subtract","blue","19","","","","","","","","","","","","","",""
"","","","","","survey-text","209","1984453","0.0-157.0","ADY44EV3GCW85","2022-05-19T02:00:25.374Z","phon_sim-task_switching-rhyme-same_different","","3545","task_switching","92","{""colorcue_switch_ans"":""95""}","experiment","","","","","","","","","","","","","","","colorcue_switch","95","true","add","red","20","","","","","","","","","","","","","",""
"","","","","","survey-text","210","1988727","0.0-158.0","ADY44EV3GCW85","2022-05-19T02:00:25.374Z","phon_sim-task_switching-rhyme-same_different","","4272","task_switching","83","{""colorcue_switch_ans"":""80""}","experiment","","","","","","","","","","","","","","","colorcue_switch","80","true","subtract","blue","21","","","","","","","","","","","","","",""
"","","","","","survey-text","211","1992451","0.0-159.0","ADY44EV3GCW85","2022-05-19T02:00:25.374Z","phon_sim-task_switching-rhyme-same_different","","3722","task_switching","32","{""colorcue_switch_ans"":""35""}","experiment","","","","","","","","","","","","","","","colorcue_switch","35","true","add","red","22","","","","","","","","","","","","","",""
"","","","","","survey-text","212","1998884","0.0-160.0","ADY44EV3GCW85","2022-05-19T02:00:25.374Z","phon_sim-task_switching-rhyme-same_different","","6430","task_switching","31","{""colorcue_switch_ans"":""28""}","experiment","","","","","","","","","","","","","","","colorcue_switch","28","true","subtract","blue","23","","","","","","","","","","","","","",""
"","","","","","survey-text","213","2003507","0.0-161.0","ADY44EV3GCW85","2022-05-19T02:00:25.374Z","phon_sim-task_switching-rhyme-same_different","","4620","task_switching","70","{""colorcue_switch_ans"":""73""}","experiment","","","","","","","","","","","","","","","colorcue_switch","73","true","add","red","24","","","","","","","","","","","","","",""
"","","","","","survey-text","214","2006042","0.0-162.0","ADY44EV3GCW85","2022-05-19T02:00:25.374Z","phon_sim-task_switching-rhyme-same_different","","2532","task_switching","36","{""colorcue_switch_ans"":""33""}","experiment","","","","","","","","","","","","","","","colorcue_switch","33","true","subtract","blue","25","","","","","","","","","","","","","",""
"","","","","","survey-text","215","2013593","0.0-163.0","ADY44EV3GCW85","2022-05-19T02:00:25.374Z","phon_sim-task_switching-rhyme-same_different","","7548","task_switching","89","{""colorcue_switch_ans"":""92""}","experiment","","","","","","","","","","","","","","","colorcue_switch","92","true","add","red","26","","","","","","","","","","","","","",""
"","","","","","survey-text","216","2018101","0.0-164.0","ADY44EV3GCW85","2022-05-19T02:00:25.374Z","phon_sim-task_switching-rhyme-same_different","","4506","task_switching","73","{""colorcue_switch_ans"":""70""}","experiment","","","","","","","","","","","","","","","colorcue_switch","70","true","subtract","blue","27","","","","","","","","","","","","","",""
"","","","","","survey-text","217","2021613","0.0-165.0","ADY44EV3GCW85","2022-05-19T02:00:25.374Z","phon_sim-task_switching-rhyme-same_different","","3511","task_switching","24","{""colorcue_switch_ans"":""27""}","experiment","","","","","","","","","","","","","","","colorcue_switch","27","true","add","red","28","","","","","","","","","","","","","",""
"","","","","","survey-text","218","2024522","0.0-166.0","ADY44EV3GCW85","2022-05-19T02:00:25.374Z","phon_sim-task_switching-rhyme-same_different","","2906","task_switching","16","{""colorcue_switch_ans"":""13""}","experiment","","","","","","","","","","","","","","","colorcue_switch","13","true","subtract","blue","29","","","","","","","","","","","","","",""
"","","","","","instructions","219","2032337","0.0-167.0","ADY44EV3GCW85","2022-05-19T02:00:25.374Z","phon_sim-task_switching-rhyme-same_different","[{""page_index"":0,""viewing_time"":7814}]","7814","task_switching","","","","","","","","","","","","","","","","","","","","","","","","","","","","","","","","","","","","",""
"","","","","","survey-text","220","2036408","0.0-168.0","ADY44EV3GCW85","2022-05-19T02:00:25.374Z","phon_sim-task_switching-rhyme-same_different","","4070","task_switching","46","{""symbolcue_switch_ans"":""49""}","training","","","","","","","","","","","","","","","symbolcue_switch","49","true","add","","0","+","","","","","","","","","","","","",""
"","","","","","html-keyboard-response","221","2037410","0.0-169.0","ADY44EV3GCW85","2022-05-19T02:00:25.374Z","phon_sim-task_switching-rhyme-same_different","","null","task_switching","<div style=""color:darkgreen; font-size:60px"">Well done!</div>","null","training","","","","","","","","","","","","","","","symbolcue_switch","","","","","","","","","","","","","","","","","","",""
"","","","","","survey-text","222","2042173","0.0-170.0","ADY44EV3GCW85","2022-05-19T02:00:25.374Z","phon_sim-task_switching-rhyme-same_different","","4761","task_switching","86","{""symbolcue_switch_ans"":""83""}","training","","","","","","","","","","","","","","","symbolcue_switch","83","true","subtract","","1","-","","","","","","","","","","","","",""
"","","","","","html-keyboard-response","223","2043174","0.0-171.0","ADY44EV3GCW85","2022-05-19T02:00:25.374Z","phon_sim-task_switching-rhyme-same_different","","null","task_switching","<div style=""color:darkgreen; font-size:60px"">Well done!</div>","null","training","","","","","","","","","","","","","","","symbolcue_switch","","","","","","","","","","","","","","","","","","",""
"","","","","","survey-text","224","2048125","0.0-172.0","ADY44EV3GCW85","2022-05-19T02:00:25.374Z","phon_sim-task_switching-rhyme-same_different","","4948","task_switching","32","{""symbolcue_switch_ans"":""35""}","training","","","","","","","","","","","","","","","symbolcue_switch","35","true","add","","2","+","","","","","","","","","","","","",""
"","","","","","html-keyboard-response","225","2049126","0.0-173.0","ADY44EV3GCW85","2022-05-19T02:00:25.374Z","phon_sim-task_switching-rhyme-same_different","","null","task_switching","<div style=""color:darkgreen; font-size:60px"">Well done!</div>","null","training","","","","","","","","","","","","","","","symbolcue_switch","","","","","","","","","","","","","","","","","","",""
"","","","","","survey-text","226","2055467","0.0-174.0","ADY44EV3GCW85","2022-05-19T02:00:25.374Z","phon_sim-task_switching-rhyme-same_different","","6340","task_switching","67","{""symbolcue_switch_ans"":""64""}","training","","","","","","","","","","","","","","","symbolcue_switch","64","true","subtract","","3","-","","","","","","","","","","","","",""
"","","","","","html-keyboard-response","227","2056469","0.0-175.0","ADY44EV3GCW85","2022-05-19T02:00:25.374Z","phon_sim-task_switching-rhyme-same_different","","null","task_switching","<div style=""color:darkgreen; font-size:60px"">Well done!</div>","null","training","","","","","","","","","","","","","","","symbolcue_switch","","","","","","","","","","","","","","","","","","",""
"","","","","","survey-text","228","2064047","0.0-176.0","ADY44EV3GCW85","2022-05-19T02:00:25.374Z","phon_sim-task_switching-rhyme-same_different","","7577","task_switching","91","{""symbolcue_switch_ans"":""94""}","training","","","","","","","","","","","","","","","symbolcue_switch","94","true","add","","4","+","","","","","","","","","","","","",""
"","","","","","html-keyboard-response","229","2065048","0.0-177.0","ADY44EV3GCW85","2022-05-19T02:00:25.374Z","phon_sim-task_switching-rhyme-same_different","","null","task_switching","<div style=""color:darkgreen; font-size:60px"">Well done!</div>","null","training","","","","","","","","","","","","","","","symbolcue_switch","","","","","","","","","","","","","","","","","","",""
"","","","","","survey-text","230","2073137","0.0-178.0","ADY44EV3GCW85","2022-05-19T02:00:25.374Z","phon_sim-task_switching-rhyme-same_different","","8086","task_switching","78","{""symbolcue_switch_ans"":""75""}","training","","","","","","","","","","","","","","","symbolcue_switch","75","true","subtract","","5","-","","","","","","","","","","","","",""
"","","","","","html-keyboard-response","231","2074138","0.0-179.0","ADY44EV3GCW85","2022-05-19T02:00:25.374Z","phon_sim-task_switching-rhyme-same_different","","null","task_switching","<div style=""color:darkgreen; font-size:60px"">Well done!</div>","null","training","","","","","","","","","","","","","","","symbolcue_switch","","","","","","","","","","","","","","","","","","",""
"","","","","","survey-text","232","2078014","0.0-180.0","ADY44EV3GCW85","2022-05-19T02:00:25.374Z","phon_sim-task_switching-rhyme-same_different","","3873","task_switching","72","{""symbolcue_switch_ans"":""75""}","training","","","","","","","","","","","","","","","symbolcue_switch","75","true","add","","6","+","","","","","","","","","","","","",""
"","","","","","html-keyboard-response","233","2079016","0.0-181.0","ADY44EV3GCW85","2022-05-19T02:00:25.374Z","phon_sim-task_switching-rhyme-same_different","","null","task_switching","<div style=""color:darkgreen; font-size:60px"">Well done!</div>","null","training","","","","","","","","","","","","","","","symbolcue_switch","","","","","","","","","","","","","","","","","","",""
"","","","","","survey-text","234","2088874","0.0-182.0","ADY44EV3GCW85","2022-05-19T02:00:25.374Z","phon_sim-task_switching-rhyme-same_different","","9856","task_switching","47","{""symbolcue_switch_ans"":""44""}","training","","","","","","","","","","","","","","","symbolcue_switch","44","true","subtract","","7","-","","","","","","","","","","","","",""
"","","","","","html-keyboard-response","235","2089875","0.0-183.0","ADY44EV3GCW85","2022-05-19T02:00:25.374Z","phon_sim-task_switching-rhyme-same_different","","null","task_switching","<div style=""color:darkgreen; font-size:60px"">Well done!</div>","null","training","","","","","","","","","","","","","","","symbolcue_switch","","","","","","","","","","","","","","","","","","",""
"","","","","","survey-text","236","2093976","0.0-184.0","ADY44EV3GCW85","2022-05-19T02:00:25.374Z","phon_sim-task_switching-rhyme-same_different","","4098","task_switching","70","{""symbolcue_switch_ans"":""73""}","training","","","","","","","","","","","","","","","symbolcue_switch","73","true","add","","8","+","","","","","","","","","","","","",""
"","","","","","html-keyboard-response","237","2094977","0.0-185.0","ADY44EV3GCW85","2022-05-19T02:00:25.374Z","phon_sim-task_switching-rhyme-same_different","","null","task_switching","<div style=""color:darkgreen; font-size:60px"">Well done!</div>","null","training","","","","","","","","","","","","","","","symbolcue_switch","","","","","","","","","","","","","","","","","","",""
"","","","","","survey-text","238","2109843","0.0-186.0","ADY44EV3GCW85","2022-05-19T02:00:25.374Z","phon_sim-task_switching-rhyme-same_different","","14864","task_switching","81","{""symbolcue_switch_ans"":""78""}","training","","","","","","","","","","","","","","","symbolcue_switch","78","true","subtract","","9","-","","","","","","","","","","","","",""
"","","","","","html-keyboard-response","239","2110844","0.0-187.0","ADY44EV3GCW85","2022-05-19T02:00:25.374Z","phon_sim-task_switching-rhyme-same_different","","null","task_switching","<div style=""color:darkgreen; font-size:60px"">Well done!</div>","null","training","","","","","","","","","","","","","","","symbolcue_switch","","","","","","","","","","","","","","","","","","",""
"","","","","","instructions","240","2116114","0.0-188.0","ADY44EV3GCW85","2022-05-19T02:00:25.374Z","phon_sim-task_switching-rhyme-same_different","[{""page_index"":0,""viewing_time"":5270}]","5270","task_switching","","","","","","","","","","","","","","","","","","","","","","","","","","","","","","","","","","","","",""
"","","","","","survey-text","241","2120035","0.0-189.0","ADY44EV3GCW85","2022-05-19T02:00:25.374Z","phon_sim-task_switching-rhyme-same_different","","3918","task_switching","61","{""symbolcue_switch_ans"":""64""}","experiment","","","","","","","","","","","","","","","symbolcue_switch","64","true","add","","0","+","","","","","","","","","","","","",""
"","","","","","survey-text","242","2123346","0.0-190.0","ADY44EV3GCW85","2022-05-19T02:00:25.374Z","phon_sim-task_switching-rhyme-same_different","","3308","task_switching","47","{""symbolcue_switch_ans"":""44""}","experiment","","","","","","","","","","","","","","","symbolcue_switch","44","true","subtract","","1","-","","","","","","","","","","","","",""
