"success","timeout","failed_images","failed_audio","failed_video","trial_type","trial_index","time_elapsed","internal_node_id","worker_id","start_time","experiment_order","view_history","rt","experiment","stimulus","response","wait_time","correct","phase","image_1","image_2","cor_key","type","question_order","talk_out_loud","strategy_free_ans","word_1","word_2","word_3","word_4","word_5","original_word_set","response_1","response_2","response_3","response_4","response_5","judgment_type","stim_1","stim_2","inverted","answer","true_neg","false_pos","true_pos","false_neg","condition","operation","trial_no","color_cue","symbol_cue"
"true","false","[]","[]","[]","preload","0","5976","0.0-0.0","A2WJMGV0HKQG3Z","2022-05-19T01:29:39.496Z","rhyme-phon_sim-same_different-task_switching","","","","","","","","","","","","","","","","","","","","","","","","","","","","","","","","","","","","","","","",""
"","","","","","instructions","1","20108","0.0-1.0","A2WJMGV0HKQG3Z","2022-05-19T01:29:39.496Z","rhyme-phon_sim-same_different-task_switching","[{""page_index"":0,""viewing_time"":14126.89999999851}]","14127.79999999702","","","","","","","","","","","","","","","","","","","","","","","","","","","","","","","","","","","","","",""
"true","","","","","fullscreen","2","32104","0.0-2.0","A2WJMGV0HKQG3Z","2022-05-19T01:29:39.496Z","rhyme-phon_sim-same_different-task_switching","","","","","","","","","","","","","","","","","","","","","","","","","","","","","","","","","","","","","","","",""
"","","","","","instructions","3","84522","0.0-3.0","A2WJMGV0HKQG3Z","2022-05-19T01:29:39.496Z","rhyme-phon_sim-same_different-task_switching","[{""page_index"":0,""viewing_time"":52410}]","52413","rhyme","","","","","","","","","","","","","","","","","","","","","","","","","","","","","","","","","","","","",""
"","","","","","html-keyboard-response","4","85278","0.0-4.0-0.0","A2WJMGV0HKQG3Z","2022-05-19T01:29:39.496Z","rhyme-phon_sim-same_different-task_switching","","null","rhyme","<div style=""font-size:60px;"">+</div>","null","750","","","","","","","","","","","","","","","","","","","","","","","","","","","","","","","","","",""
"","","","","","html-keyboard-response","5","85782","0.0-4.0-1.0","A2WJMGV0HKQG3Z","2022-05-19T01:29:39.496Z","rhyme-phon_sim-same_different-task_switching","","null","rhyme","<img src=""square.png"" width=""306"" height=""306"" style=""position: fixed;left:14%;top:30%""><img src=""square.png"" width=""306"" height=""306"" style=""position: fixed;left:64%;top:30%"">","null","","","","","","","","","","","","","","","","","","","","","","","","","","","","","","","","","","",""
"","","","","","categorize-html","6","89088","0.0-4.0-2.0","A2WJMGV0HKQG3Z","2022-05-19T01:29:39.496Z","rhyme-phon_sim-same_different-task_switching","","2293.7000000029802","rhyme","<div style=""border: 3px solid #000000; position: fixed;left:14%;top:30%""><img src=""visual/dress.png"" width=""300""></div><div style=""border: 3px solid #000000; position: fixed;left:64%;top:30%""><img src=""visual/chess.png"" width=""300""></div>","arrowup","","true","training","visual/dress.png","visual/chess.png","ArrowUp","NA","","","","","","","","","","","","","","","","","","","","","","","","","","","",""
"","","","","","html-keyboard-response","7","90091","0.0-4.0-0.1","A2WJMGV0HKQG3Z","2022-05-19T01:29:39.496Z","rhyme-phon_sim-same_different-task_switching","","null","rhyme","<div style=""font-size:60px;"">+</div>","null","1000","","","","","","","","","","","","","","","","","","","","","","","","","","","","","","","","","",""
"","","","","","html-keyboard-response","8","90603","0.0-4.0-1.1","A2WJMGV0HKQG3Z","2022-05-19T01:29:39.496Z","rhyme-phon_sim-same_different-task_switching","","null","rhyme","<img src=""square.png"" width=""306"" height=""306"" style=""position: fixed;left:14%;top:30%""><img src=""square.png"" width=""306"" height=""306"" style=""position: fixed;left:64%;top:30%"">","null","","","","","","","","","","","","","","","","","","","","","","","","","","","","","","","","","","",""
"","","","","","categorize-html","9","96004","0.0-4.0-2.1","A2WJMGV0HKQG3Z","2022-05-19T01:29:39.496Z","rhyme-phon_sim-same_different-task_switching","","4392.5","rhyme","<div style=""border: 3px solid #000000; position: fixed;left:14%;top:30%""><img src=""visual/house.png"" width=""300""></div><div style=""border: 3px solid #000000; position: fixed;left:64%;top:30%""><img src=""visual/mouse.png"" width=""300""></div>","arrowup","","true","training","visual/house.png","visual/mouse.png","ArrowUp","NA","","","","","","","","","","","","","","","","","","","","","","","","","","","",""
"","","","","","html-keyboard-response","10","96257","0.0-4.0-0.2","A2WJMGV0HKQG3Z","2022-05-19T01:29:39.496Z","rhyme-phon_sim-same_different-task_switching","","null","rhyme","<div style=""font-size:60px;"">+</div>","null","250","","","","","","","","","","","","","","","","","","","","","","","","","","","","","","","","","",""
"","","","","","html-keyboard-response","11","96764","0.0-4.0-1.2","A2WJMGV0HKQG3Z","2022-05-19T01:29:39.496Z","rhyme-phon_sim-same_different-task_switching","","null","rhyme","<img src=""square.png"" width=""306"" height=""306"" style=""position: fixed;left:14%;top:30%""><img src=""square.png"" width=""306"" height=""306"" style=""position: fixed;left:64%;top:30%"">","null","","","","","","","","","","","","","","","","","","","","","","","","","","","","","","","","","","",""
"","","","","","categorize-html","12","99487","0.0-4.0-2.2","A2WJMGV0HKQG3Z","2022-05-19T01:29:39.496Z","rhyme-phon_sim-same_different-task_switching","","1712.6000000014901","rhyme","<div style=""border: 3px solid #000000; position: fixed;left:14%;top:30%""><img src=""visual/mouse.png"" width=""300""></div><div style=""border: 3px solid #000000; position: fixed;left:64%;top:30%""><img src=""visual/dress.png"" width=""300""></div>","arrowdown","","true","training","visual/mouse.png","visual/dress.png","ArrowDown","NA","","","","","","","","","","","","","","","","","","","","","","","","","","","",""
"","","","","","html-keyboard-response","13","99743","0.0-4.0-0.3","A2WJMGV0HKQG3Z","2022-05-19T01:29:39.496Z","rhyme-phon_sim-same_different-task_switching","","null","rhyme","<div style=""font-size:60px;"">+</div>","null","250","","","","","","","","","","","","","","","","","","","","","","","","","","","","","","","","","",""
"","","","","","html-keyboard-response","14","100250","0.0-4.0-1.3","A2WJMGV0HKQG3Z","2022-05-19T01:29:39.496Z","rhyme-phon_sim-same_different-task_switching","","null","rhyme","<img src=""square.png"" width=""306"" height=""306"" style=""position: fixed;left:14%;top:30%""><img src=""square.png"" width=""306"" height=""306"" style=""position: fixed;left:64%;top:30%"">","null","","","","","","","","","","","","","","","","","","","","","","","","","","","","","","","","","","",""
"","","","","","categorize-html","15","104335","0.0-4.0-2.3","A2WJMGV0HKQG3Z","2022-05-19T01:29:39.496Z","rhyme-phon_sim-same_different-task_switching","","3077.5","rhyme","<div style=""border: 3px solid #000000; position: fixed;left:14%;top:30%""><img src=""visual/chess.png"" width=""300""></div><div style=""border: 3px solid #000000; position: fixed;left:64%;top:30%""><img src=""visual/suit.png"" width=""300""></div>","arrowdown","","true","training","visual/chess.png","visual/suit.png","ArrowDown","NA","","","","","","","","","","","","","","","","","","","","","","","","","","","",""
"","","","","","instructions","16","108467","0.0-5.0","A2WJMGV0HKQG3Z","2022-05-19T01:29:39.496Z","rhyme-phon_sim-same_different-task_switching","[{""page_index"":0,""viewing_time"":4125.60000000149}]","4128","","","","","","","","","","","","","","","","","","","","","","","","","","","","","","","","","","","","","",""
"","","","","","html-keyboard-response","17","108973","0.0-6.0-0.0","A2WJMGV0HKQG3Z","2022-05-19T01:29:39.496Z","rhyme-phon_sim-same_different-task_switching","","null","rhyme","<div style=""font-size:60px;"">+</div>","null","500","","","","","","","","","","","","","","","","","","","","","","","","","","","","","","","","","",""
"","","","","","html-keyboard-response","18","109477","0.0-6.0-1.0","A2WJMGV0HKQG3Z","2022-05-19T01:29:39.496Z","rhyme-phon_sim-same_different-task_switching","","null","rhyme","<img src=""square.png"" width=""306"" height=""306"" style=""position: fixed;left:14%;top:30%""><img src=""square.png"" width=""306"" height=""306"" style=""position: fixed;left:64%;top:30%"">","null","","","","","","","","","","","","","","","","","","","","","","","","","","","","","","","","","","",""
"","","","","","html-keyboard-response","19","111594","0.0-6.0-2.0","A2WJMGV0HKQG3Z","2022-05-19T01:29:39.496Z","rhyme-phon_sim-same_different-task_switching","","2105","rhyme","<div style=""border: 3px solid #000000; position: fixed;left:14%;top:30%""><img src=""visual/well.png"" width=""300""></div><div style=""border: 3px solid #000000; position: fixed;left:64%;top:30%""><img src=""visual/rose.png"" width=""300""></div>","arrowdown","","true","experiment","visual/well.png","visual/rose.png","ArrowDown","NR","","","","","","","","","","","","","","","","","","","","","","","","","","","",""
"","","","","","html-keyboard-response","20","112097","0.0-6.0-0.1","A2WJMGV0HKQG3Z","2022-05-19T01:29:39.496Z","rhyme-phon_sim-same_different-task_switching","","null","rhyme","<div style=""font-size:60px;"">+</div>","null","500","","","","","","","","","","","","","","","","","","","","","","","","","","","","","","","","","",""
"","","","","","html-keyboard-response","21","112603","0.0-6.0-1.1","A2WJMGV0HKQG3Z","2022-05-19T01:29:39.496Z","rhyme-phon_sim-same_different-task_switching","","null","rhyme","<img src=""square.png"" width=""306"" height=""306"" style=""position: fixed;left:14%;top:30%""><img src=""square.png"" width=""306"" height=""306"" style=""position: fixed;left:64%;top:30%"">","null","","","","","","","","","","","","","","","","","","","","","","","","","","","","","","","","","","",""
"","","","","","html-keyboard-response","22","114839","0.0-6.0-2.1","A2WJMGV0HKQG3Z","2022-05-19T01:29:39.496Z","rhyme-phon_sim-same_different-task_switching","","2229.2999999970198","rhyme","<div style=""border: 3px solid #000000; position: fixed;left:14%;top:30%""><img src=""visual/train.png"" width=""300""></div><div style=""border: 3px solid #000000; position: fixed;left:64%;top:30%""><img src=""visual/screw.png"" width=""300""></div>","arrowdown","","true","experiment","visual/train.png","visual/screw.png","ArrowDown","NR","","","","","","","","","","","","","","","","","","","","","","","","","","","",""
"","","","","","html-keyboard-response","23","115096","0.0-6.0-0.2","A2WJMGV0HKQG3Z","2022-05-19T01:29:39.496Z","rhyme-phon_sim-same_different-task_switching","","null","rhyme","<div style=""font-size:60px;"">+</div>","null","250","","","","","","","","","","","","","","","","","","","","","","","","","","","","","","","","","",""
"","","","","","html-keyboard-response","24","115609","0.0-6.0-1.2","A2WJMGV0HKQG3Z","2022-05-19T01:29:39.496Z","rhyme-phon_sim-same_different-task_switching","","null","rhyme","<img src=""square.png"" width=""306"" height=""306"" style=""position: fixed;left:14%;top:30%""><img src=""square.png"" width=""306"" height=""306"" style=""position: fixed;left:64%;top:30%"">","null","","","","","","","","","","","","","","","","","","","","","","","","","","","","","","","","","","",""
"","","","","","html-keyboard-response","25","117914","0.0-6.0-2.2","A2WJMGV0HKQG3Z","2022-05-19T01:29:39.496Z","rhyme-phon_sim-same_different-task_switching","","2298.89999999851","rhyme","<div style=""border: 3px solid #000000; position: fixed;left:14%;top:30%""><img src=""visual/claw.png"" width=""300""></div><div style=""border: 3px solid #000000; position: fixed;left:64%;top:30%""><img src=""visual/beer.png"" width=""300""></div>","arrowdown","","true","experiment","visual/claw.png","visual/beer.png","ArrowDown","NR","","","","","","","","","","","","","","","","","","","","","","","","","","","",""
"","","","","","html-keyboard-response","26","118168","0.0-6.0-0.3","A2WJMGV0HKQG3Z","2022-05-19T01:29:39.496Z","rhyme-phon_sim-same_different-task_switching","","null","rhyme","<div style=""font-size:60px;"">+</div>","null","250","","","","","","","","","","","","","","","","","","","","","","","","","","","","","","","","","",""
"","","","","","html-keyboard-response","27","118677","0.0-6.0-1.3","A2WJMGV0HKQG3Z","2022-05-19T01:29:39.496Z","rhyme-phon_sim-same_different-task_switching","","null","rhyme","<img src=""square.png"" width=""306"" height=""306"" style=""position: fixed;left:14%;top:30%""><img src=""square.png"" width=""306"" height=""306"" style=""position: fixed;left:64%;top:30%"">","null","","","","","","","","","","","","","","","","","","","","","","","","","","","","","","","","","","",""
"","","","","","html-keyboard-response","28","121609","0.0-6.0-2.3","A2WJMGV0HKQG3Z","2022-05-19T01:29:39.496Z","rhyme-phon_sim-same_different-task_switching","","2924.8000000044703","rhyme","<div style=""border: 3px solid #000000; position: fixed;left:14%;top:30%""><img src=""visual/king.png"" width=""300""></div><div style=""border: 3px solid #000000; position: fixed;left:64%;top:30%""><img src=""visual/cab.png"" width=""300""></div>","arrowdown","","true","experiment","visual/king.png","visual/cab.png","ArrowDown","NR","","","","","","","","","","","","","","","","","","","","","","","","","","","",""
"","","","","","html-keyboard-response","29","121863","0.0-6.0-0.4","A2WJMGV0HKQG3Z","2022-05-19T01:29:39.496Z","rhyme-phon_sim-same_different-task_switching","","null","rhyme","<div style=""font-size:60px;"">+</div>","null","250","","","","","","","","","","","","","","","","","","","","","","","","","","","","","","","","","",""
"","","","","","html-keyboard-response","30","122370","0.0-6.0-1.4","A2WJMGV0HKQG3Z","2022-05-19T01:29:39.496Z","rhyme-phon_sim-same_different-task_switching","","null","rhyme","<img src=""square.png"" width=""306"" height=""306"" style=""position: fixed;left:14%;top:30%""><img src=""square.png"" width=""306"" height=""306"" style=""position: fixed;left:64%;top:30%"">","null","","","","","","","","","","","","","","","","","","","","","","","","","","","","","","","","","","",""
"","","","","","html-keyboard-response","31","125042","0.0-6.0-2.4","A2WJMGV0HKQG3Z","2022-05-19T01:29:39.496Z","rhyme-phon_sim-same_different-task_switching","","2659.5","rhyme","<div style=""border: 3px solid #000000; position: fixed;left:14%;top:30%""><img src=""visual/snail.png"" width=""300""></div><div style=""border: 3px solid #000000; position: fixed;left:64%;top:30%""><img src=""visual/whale.png"" width=""300""></div>","arrowup","","true","experiment","visual/snail.png","visual/whale.png","ArrowUp","non-ortho","","","","","","","","","","","","","","","","","","","","","","","","","","","",""
"","","","","","html-keyboard-response","32","125296","0.0-6.0-0.5","A2WJMGV0HKQG3Z","2022-05-19T01:29:39.496Z","rhyme-phon_sim-same_different-task_switching","","null","rhyme","<div style=""font-size:60px;"">+</div>","null","250","","","","","","","","","","","","","","","","","","","","","","","","","","","","","","","","","",""
"","","","","","html-keyboard-response","33","125802","0.0-6.0-1.5","A2WJMGV0HKQG3Z","2022-05-19T01:29:39.496Z","rhyme-phon_sim-same_different-task_switching","","null","rhyme","<img src=""square.png"" width=""306"" height=""306"" style=""position: fixed;left:14%;top:30%""><img src=""square.png"" width=""306"" height=""306"" style=""position: fixed;left:64%;top:30%"">","null","","","","","","","","","","","","","","","","","","","","","","","","","","","","","","","","","","",""
"","","","","","html-keyboard-response","34","129307","0.0-6.0-2.5","A2WJMGV0HKQG3Z","2022-05-19T01:29:39.496Z","rhyme-phon_sim-same_different-task_switching","","3497.2999999970198","rhyme","<div style=""border: 3px solid #000000; position: fixed;left:14%;top:30%""><img src=""visual/bear.png"" width=""300""></div><div style=""border: 3px solid #000000; position: fixed;left:64%;top:30%""><img src=""visual/square_rhyme.png"" width=""300""></div>","arrowup","","true","experiment","visual/bear.png","visual/square_rhyme.png","ArrowUp","non-ortho","","","","","","","","","","","","","","","","","","","","","","","","","","","",""
"","","","","","html-keyboard-response","35","130310","0.0-6.0-0.6","A2WJMGV0HKQG3Z","2022-05-19T01:29:39.496Z","rhyme-phon_sim-same_different-task_switching","","null","rhyme","<div style=""font-size:60px;"">+</div>","null","1000","","","","","","","","","","","","","","","","","","","","","","","","","","","","","","","","","",""
"","","","","","html-keyboard-response","36","130818","0.0-6.0-1.6","A2WJMGV0HKQG3Z","2022-05-19T01:29:39.496Z","rhyme-phon_sim-same_different-task_switching","","null","rhyme","<img src=""square.png"" width=""306"" height=""306"" style=""position: fixed;left:14%;top:30%""><img src=""square.png"" width=""306"" height=""306"" style=""position: fixed;left:64%;top:30%"">","null","","","","","","","","","","","","","","","","","","","","","","","","","","","","","","","","","","",""
"","","","","","html-keyboard-response","37","133136","0.0-6.0-2.6","A2WJMGV0HKQG3Z","2022-05-19T01:29:39.496Z","rhyme-phon_sim-same_different-task_switching","","2309","rhyme","<div style=""border: 3px solid #000000; position: fixed;left:14%;top:30%""><img src=""visual/dart.png"" width=""300""></div><div style=""border: 3px solid #000000; position: fixed;left:64%;top:30%""><img src=""visual/heart.png"" width=""300""></div>","arrowup","","true","experiment","visual/dart.png","visual/heart.png","ArrowUp","non-ortho","","","","","","","","","","","","","","","","","","","","","","","","","","","",""
"","","","","","html-keyboard-response","38","133640","0.0-6.0-0.7","A2WJMGV0HKQG3Z","2022-05-19T01:29:39.496Z","rhyme-phon_sim-same_different-task_switching","","null","rhyme","<div style=""font-size:60px;"">+</div>","null","500","","","","","","","","","","","","","","","","","","","","","","","","","","","","","","","","","",""
"","","","","","html-keyboard-response","39","134145","0.0-6.0-1.7","A2WJMGV0HKQG3Z","2022-05-19T01:29:39.496Z","rhyme-phon_sim-same_different-task_switching","","null","rhyme","<img src=""square.png"" width=""306"" height=""306"" style=""position: fixed;left:14%;top:30%""><img src=""square.png"" width=""306"" height=""306"" style=""position: fixed;left:64%;top:30%"">","null","","","","","","","","","","","","","","","","","","","","","","","","","","","","","","","","","","",""
"","","","","","html-keyboard-response","40","135741","0.0-6.0-2.7","A2WJMGV0HKQG3Z","2022-05-19T01:29:39.496Z","rhyme-phon_sim-same_different-task_switching","","1589.3999999985099","rhyme","<div style=""border: 3px solid #000000; position: fixed;left:14%;top:30%""><img src=""visual/saw.png"" width=""300""></div><div style=""border: 3px solid #000000; position: fixed;left:64%;top:30%""><img src=""visual/claw.png"" width=""300""></div>","arrowup","","true","experiment","visual/saw.png","visual/claw.png","ArrowUp","ortho","","","","","","","","","","","","","","","","","","","","","","","","","","","",""
"","","","","","html-keyboard-response","41","136244","0.0-6.0-0.8","A2WJMGV0HKQG3Z","2022-05-19T01:29:39.496Z","rhyme-phon_sim-same_different-task_switching","","null","rhyme","<div style=""font-size:60px;"">+</div>","null","500","","","","","","","","","","","","","","","","","","","","","","","","","","","","","","","","","",""
"","","","","","html-keyboard-response","42","136749","0.0-6.0-1.8","A2WJMGV0HKQG3Z","2022-05-19T01:29:39.496Z","rhyme-phon_sim-same_different-task_switching","","null","rhyme","<img src=""square.png"" width=""306"" height=""306"" style=""position: fixed;left:14%;top:30%""><img src=""square.png"" width=""306"" height=""306"" style=""position: fixed;left:64%;top:30%"">","null","","","","","","","","","","","","","","","","","","","","","","","","","","","","","","","","","","",""
"","","","","","html-keyboard-response","43","140000","0.0-6.0-2.8","A2WJMGV0HKQG3Z","2022-05-19T01:29:39.496Z","rhyme-phon_sim-same_different-task_switching","","3241","rhyme","<div style=""border: 3px solid #000000; position: fixed;left:14%;top:30%""><img src=""visual/cat.png"" width=""300""></div><div style=""border: 3px solid #000000; position: fixed;left:64%;top:30%""><img src=""visual/sock.png"" width=""300""></div>","arrowdown","","true","experiment","visual/cat.png","visual/sock.png","ArrowDown","NR","","","","","","","","","","","","","","","","","","","","","","","","","","","",""
"","","","","","html-keyboard-response","44","140252","0.0-6.0-0.9","A2WJMGV0HKQG3Z","2022-05-19T01:29:39.496Z","rhyme-phon_sim-same_different-task_switching","","null","rhyme","<div style=""font-size:60px;"">+</div>","null","250","","","","","","","","","","","","","","","","","","","","","","","","","","","","","","","","","",""
"","","","","","html-keyboard-response","45","140758","0.0-6.0-1.9","A2WJMGV0HKQG3Z","2022-05-19T01:29:39.496Z","rhyme-phon_sim-same_different-task_switching","","null","rhyme","<img src=""square.png"" width=""306"" height=""306"" style=""position: fixed;left:14%;top:30%""><img src=""square.png"" width=""306"" height=""306"" style=""position: fixed;left:64%;top:30%"">","null","","","","","","","","","","","","","","","","","","","","","","","","","","","","","","","","","","",""
"","","","","","html-keyboard-response","46","143294","0.0-6.0-2.9","A2WJMGV0HKQG3Z","2022-05-19T01:29:39.496Z","rhyme-phon_sim-same_different-task_switching","","2527.39999999851","rhyme","<div style=""border: 3px solid #000000; position: fixed;left:14%;top:30%""><img src=""visual/flag.png"" width=""300""></div><div style=""border: 3px solid #000000; position: fixed;left:64%;top:30%""><img src=""visual/bag.png"" width=""300""></div>","arrowup","","true","experiment","visual/flag.png","visual/bag.png","ArrowUp","ortho","","","","","","","","","","","","","","","","","","","","","","","","","","","",""
"","","","","","html-keyboard-response","47","143551","0.0-6.0-0.10","A2WJMGV0HKQG3Z","2022-05-19T01:29:39.496Z","rhyme-phon_sim-same_different-task_switching","","null","rhyme","<div style=""font-size:60px;"">+</div>","null","250","","","","","","","","","","","","","","","","","","","","","","","","","","","","","","","","","",""
"","","","","","html-keyboard-response","48","144057","0.0-6.0-1.10","A2WJMGV0HKQG3Z","2022-05-19T01:29:39.496Z","rhyme-phon_sim-same_different-task_switching","","null","rhyme","<img src=""square.png"" width=""306"" height=""306"" style=""position: fixed;left:14%;top:30%""><img src=""square.png"" width=""306"" height=""306"" style=""position: fixed;left:64%;top:30%"">","null","","","","","","","","","","","","","","","","","","","","","","","","","","","","","","","","","","",""
"","","","","","html-keyboard-response","49","145815","0.0-6.0-2.10","A2WJMGV0HKQG3Z","2022-05-19T01:29:39.496Z","rhyme-phon_sim-same_different-task_switching","","1749.8000000044703","rhyme","<div style=""border: 3px solid #000000; position: fixed;left:14%;top:30%""><img src=""visual/cab.png"" width=""300""></div><div style=""border: 3px solid #000000; position: fixed;left:64%;top:30%""><img src=""visual/crab.png"" width=""300""></div>","arrowdown","","false","experiment","visual/cab.png","visual/crab.png","ArrowUp","ortho","","","","","","","","","","","","","","","","","","","","","","","","","","","",""
"","","","","","html-keyboard-response","50","146321","0.0-6.0-0.11","A2WJMGV0HKQG3Z","2022-05-19T01:29:39.496Z","rhyme-phon_sim-same_different-task_switching","","null","rhyme","<div style=""font-size:60px;"">+</div>","null","500","","","","","","","","","","","","","","","","","","","","","","","","","","","","","","","","","",""
"","","","","","html-keyboard-response","51","146828","0.0-6.0-1.11","A2WJMGV0HKQG3Z","2022-05-19T01:29:39.496Z","rhyme-phon_sim-same_different-task_switching","","null","rhyme","<img src=""square.png"" width=""306"" height=""306"" style=""position: fixed;left:14%;top:30%""><img src=""square.png"" width=""306"" height=""306"" style=""position: fixed;left:64%;top:30%"">","null","","","","","","","","","","","","","","","","","","","","","","","","","","","","","","","","","","",""
"","","","","","html-keyboard-response","52","148736","0.0-6.0-2.11","A2WJMGV0HKQG3Z","2022-05-19T01:29:39.496Z","rhyme-phon_sim-same_different-task_switching","","1896.6000000014901","rhyme","<div style=""border: 3px solid #000000; position: fixed;left:14%;top:30%""><img src=""visual/soap.png"" width=""300""></div><div style=""border: 3px solid #000000; position: fixed;left:64%;top:30%""><img src=""visual/rope.png"" width=""300""></div>","arrowdown","","false","experiment","visual/soap.png","visual/rope.png","ArrowUp","non-ortho","","","","","","","","","","","","","","","","","","","","","","","","","","","",""
"","","","","","html-keyboard-response","53","149741","0.0-6.0-0.12","A2WJMGV0HKQG3Z","2022-05-19T01:29:39.496Z","rhyme-phon_sim-same_different-task_switching","","null","rhyme","<div style=""font-size:60px;"">+</div>","null","1000","","","","","","","","","","","","","","","","","","","","","","","","","","","","","","","","","",""
"","","","","","html-keyboard-response","54","150250","0.0-6.0-1.12","A2WJMGV0HKQG3Z","2022-05-19T01:29:39.496Z","rhyme-phon_sim-same_different-task_switching","","null","rhyme","<img src=""square.png"" width=""306"" height=""306"" style=""position: fixed;left:14%;top:30%""><img src=""square.png"" width=""306"" height=""306"" style=""position: fixed;left:64%;top:30%"">","null","","","","","","","","","","","","","","","","","","","","","","","","","","","","","","","","","","",""
"","","","","","html-keyboard-response","55","152164","0.0-6.0-2.12","A2WJMGV0HKQG3Z","2022-05-19T01:29:39.496Z","rhyme-phon_sim-same_different-task_switching","","1909.1000000014901","rhyme","<div style=""border: 3px solid #000000; position: fixed;left:14%;top:30%""><img src=""visual/pear.png"" width=""300""></div><div style=""border: 3px solid #000000; position: fixed;left:64%;top:30%""><img src=""visual/rope.png"" width=""300""></div>","arrowdown","","true","experiment","visual/pear.png","visual/rope.png","ArrowDown","NR","","","","","","","","","","","","","","","","","","","","","","","","","","","",""
"","","","","","html-keyboard-response","56","152669","0.0-6.0-0.13","A2WJMGV0HKQG3Z","2022-05-19T01:29:39.496Z","rhyme-phon_sim-same_different-task_switching","","null","rhyme","<div style=""font-size:60px;"">+</div>","null","500","","","","","","","","","","","","","","","","","","","","","","","","","","","","","","","","","",""
"","","","","","html-keyboard-response","57","153178","0.0-6.0-1.13","A2WJMGV0HKQG3Z","2022-05-19T01:29:39.496Z","rhyme-phon_sim-same_different-task_switching","","null","rhyme","<img src=""square.png"" width=""306"" height=""306"" style=""position: fixed;left:14%;top:30%""><img src=""square.png"" width=""306"" height=""306"" style=""position: fixed;left:64%;top:30%"">","null","","","","","","","","","","","","","","","","","","","","","","","","","","","","","","","","","","",""
"","","","","","html-keyboard-response","58","154961","0.0-6.0-2.13","A2WJMGV0HKQG3Z","2022-05-19T01:29:39.496Z","rhyme-phon_sim-same_different-task_switching","","1774.6999999955297","rhyme","<div style=""border: 3px solid #000000; position: fixed;left:14%;top:30%""><img src=""visual/shark.png"" width=""300""></div><div style=""border: 3px solid #000000; position: fixed;left:64%;top:30%""><img src=""visual/moon.png"" width=""300""></div>","arrowdown","","true","experiment","visual/shark.png","visual/moon.png","ArrowDown","NR","","","","","","","","","","","","","","","","","","","","","","","","","","","",""
"","","","","","html-keyboard-response","59","155215","0.0-6.0-0.14","A2WJMGV0HKQG3Z","2022-05-19T01:29:39.496Z","rhyme-phon_sim-same_different-task_switching","","null","rhyme","<div style=""font-size:60px;"">+</div>","null","250","","","","","","","","","","","","","","","","","","","","","","","","","","","","","","","","","",""
"","","","","","html-keyboard-response","60","155722","0.0-6.0-1.14","A2WJMGV0HKQG3Z","2022-05-19T01:29:39.496Z","rhyme-phon_sim-same_different-task_switching","","null","rhyme","<img src=""square.png"" width=""306"" height=""306"" style=""position: fixed;left:14%;top:30%""><img src=""square.png"" width=""306"" height=""306"" style=""position: fixed;left:64%;top:30%"">","null","","","","","","","","","","","","","","","","","","","","","","","","","","","","","","","","","","",""
"","","","","","html-keyboard-response","61","157738","0.0-6.0-2.14","A2WJMGV0HKQG3Z","2022-05-19T01:29:39.496Z","rhyme-phon_sim-same_different-task_switching","","2009.5","rhyme","<div style=""border: 3px solid #000000; position: fixed;left:14%;top:30%""><img src=""visual/well.png"" width=""300""></div><div style=""border: 3px solid #000000; position: fixed;left:64%;top:30%""><img src=""visual/bell.png"" width=""300""></div>","arrowup","","true","experiment","visual/well.png","visual/bell.png","ArrowUp","ortho","","","","","","","","","","","","","","","","","","","","","","","","","","","",""
"","","","","","html-keyboard-response","62","158241","0.0-6.0-0.15","A2WJMGV0HKQG3Z","2022-05-19T01:29:39.496Z","rhyme-phon_sim-same_different-task_switching","","null","rhyme","<div style=""font-size:60px;"">+</div>","null","500","","","","","","","","","","","","","","","","","","","","","","","","","","","","","","","","","",""
"","","","","","html-keyboard-response","63","158745","0.0-6.0-1.15","A2WJMGV0HKQG3Z","2022-05-19T01:29:39.496Z","rhyme-phon_sim-same_different-task_switching","","null","rhyme","<img src=""square.png"" width=""306"" height=""306"" style=""position: fixed;left:14%;top:30%""><img src=""square.png"" width=""306"" height=""306"" style=""position: fixed;left:64%;top:30%"">","null","","","","","","","","","","","","","","","","","","","","","","","","","","","","","","","","","","",""
"","","","","","html-keyboard-response","64","162109","0.0-6.0-2.15","A2WJMGV0HKQG3Z","2022-05-19T01:29:39.496Z","rhyme-phon_sim-same_different-task_switching","","3358.7000000029802","rhyme","<div style=""border: 3px solid #000000; position: fixed;left:14%;top:30%""><img src=""visual/rake.png"" width=""300""></div><div style=""border: 3px solid #000000; position: fixed;left:64%;top:30%""><img src=""visual/park.png"" width=""300""></div>","arrowdown","","true","experiment","visual/rake.png","visual/park.png","ArrowDown","NR","","","","","","","","","","","","","","","","","","","","","","","","","","","",""
"","","","","","html-keyboard-response","65","162612","0.0-6.0-0.16","A2WJMGV0HKQG3Z","2022-05-19T01:29:39.496Z","rhyme-phon_sim-same_different-task_switching","","null","rhyme","<div style=""font-size:60px;"">+</div>","null","500","","","","","","","","","","","","","","","","","","","","","","","","","","","","","","","","","",""
"","","","","","html-keyboard-response","66","163116","0.0-6.0-1.16","A2WJMGV0HKQG3Z","2022-05-19T01:29:39.496Z","rhyme-phon_sim-same_different-task_switching","","null","rhyme","<img src=""square.png"" width=""306"" height=""306"" style=""position: fixed;left:14%;top:30%""><img src=""square.png"" width=""306"" height=""306"" style=""position: fixed;left:64%;top:30%"">","null","","","","","","","","","","","","","","","","","","","","","","","","","","","","","","","","","","",""
"","","","","","html-keyboard-response","67","164935","0.0-6.0-2.16","A2WJMGV0HKQG3Z","2022-05-19T01:29:39.496Z","rhyme-phon_sim-same_different-task_switching","","1813.3999999985099","rhyme","<div style=""border: 3px solid #000000; position: fixed;left:14%;top:30%""><img src=""visual/deer.png"" width=""300""></div><div style=""border: 3px solid #000000; position: fixed;left:64%;top:30%""><img src=""visual/beer.png"" width=""300""></div>","arrowup","","true","experiment","visual/deer.png","visual/beer.png","ArrowUp","ortho","","","","","","","","","","","","","","","","","","","","","","","","","","","",""
"","","","","","html-keyboard-response","68","165192","0.0-6.0-0.17","A2WJMGV0HKQG3Z","2022-05-19T01:29:39.496Z","rhyme-phon_sim-same_different-task_switching","","null","rhyme","<div style=""font-size:60px;"">+</div>","null","250","","","","","","","","","","","","","","","","","","","","","","","","","","","","","","","","","",""
"","","","","","html-keyboard-response","69","165705","0.0-6.0-1.17","A2WJMGV0HKQG3Z","2022-05-19T01:29:39.496Z","rhyme-phon_sim-same_different-task_switching","","null","rhyme","<img src=""square.png"" width=""306"" height=""306"" style=""position: fixed;left:14%;top:30%""><img src=""square.png"" width=""306"" height=""306"" style=""position: fixed;left:64%;top:30%"">","null","","","","","","","","","","","","","","","","","","","","","","","","","","","","","","","","","","",""
"","","","","","html-keyboard-response","70","168625","0.0-6.0-2.17","A2WJMGV0HKQG3Z","2022-05-19T01:29:39.496Z","rhyme-phon_sim-same_different-task_switching","","2914.2000000029802","rhyme","<div style=""border: 3px solid #000000; position: fixed;left:14%;top:30%""><img src=""visual/train.png"" width=""300""></div><div style=""border: 3px solid #000000; position: fixed;left:64%;top:30%""><img src=""visual/crane.png"" width=""300""></div>","arrowdown","","false","experiment","visual/train.png","visual/crane.png","ArrowUp","non-ortho","","","","","","","","","","","","","","","","","","","","","","","","","","","",""
"","","","","","html-keyboard-response","71","168878","0.0-6.0-0.18","A2WJMGV0HKQG3Z","2022-05-19T01:29:39.496Z","rhyme-phon_sim-same_different-task_switching","","null","rhyme","<div style=""font-size:60px;"">+</div>","null","250","","","","","","","","","","","","","","","","","","","","","","","","","","","","","","","","","",""
"","","","","","html-keyboard-response","72","169384","0.0-6.0-1.18","A2WJMGV0HKQG3Z","2022-05-19T01:29:39.496Z","rhyme-phon_sim-same_different-task_switching","","null","rhyme","<img src=""square.png"" width=""306"" height=""306"" style=""position: fixed;left:14%;top:30%""><img src=""square.png"" width=""306"" height=""306"" style=""position: fixed;left:64%;top:30%"">","null","","","","","","","","","","","","","","","","","","","","","","","","","","","","","","","","","","",""
"","","","","","html-keyboard-response","73","171760","0.0-6.0-2.18","A2WJMGV0HKQG3Z","2022-05-19T01:29:39.496Z","rhyme-phon_sim-same_different-task_switching","","2361.39999999851","rhyme","<div style=""border: 3px solid #000000; position: fixed;left:14%;top:30%""><img src=""visual/dart.png"" width=""300""></div><div style=""border: 3px solid #000000; position: fixed;left:64%;top:30%""><img src=""visual/tie.png"" width=""300""></div>","arrowdown","","true","experiment","visual/dart.png","visual/tie.png","ArrowDown","NR","","","","","","","","","","","","","","","","","","","","","","","","","","","",""
"","","","","","html-keyboard-response","74","172762","0.0-6.0-0.19","A2WJMGV0HKQG3Z","2022-05-19T01:29:39.496Z","rhyme-phon_sim-same_different-task_switching","","null","rhyme","<div style=""font-size:60px;"">+</div>","null","1000","","","","","","","","","","","","","","","","","","","","","","","","","","","","","","","","","",""
"","","","","","html-keyboard-response","75","173269","0.0-6.0-1.19","A2WJMGV0HKQG3Z","2022-05-19T01:29:39.496Z","rhyme-phon_sim-same_different-task_switching","","null","rhyme","<img src=""square.png"" width=""306"" height=""306"" style=""position: fixed;left:14%;top:30%""><img src=""square.png"" width=""306"" height=""306"" style=""position: fixed;left:64%;top:30%"">","null","","","","","","","","","","","","","","","","","","","","","","","","","","","","","","","","","","",""
"","","","","","html-keyboard-response","76","175271","0.0-6.0-2.19","A2WJMGV0HKQG3Z","2022-05-19T01:29:39.496Z","rhyme-phon_sim-same_different-task_switching","","1993.8000000044703","rhyme","<div style=""border: 3px solid #000000; position: fixed;left:14%;top:30%""><img src=""visual/key.png"" width=""300""></div><div style=""border: 3px solid #000000; position: fixed;left:64%;top:30%""><img src=""visual/snail.png"" width=""300""></div>","arrowdown","","true","experiment","visual/key.png","visual/snail.png","ArrowDown","NR","","","","","","","","","","","","","","","","","","","","","","","","","","","",""
"","","","","","html-keyboard-response","77","175527","0.0-6.0-0.20","A2WJMGV0HKQG3Z","2022-05-19T01:29:39.496Z","rhyme-phon_sim-same_different-task_switching","","null","rhyme","<div style=""font-size:60px;"">+</div>","null","250","","","","","","","","","","","","","","","","","","","","","","","","","","","","","","","","","",""
"","","","","","html-keyboard-response","78","176041","0.0-6.0-1.20","A2WJMGV0HKQG3Z","2022-05-19T01:29:39.496Z","rhyme-phon_sim-same_different-task_switching","","null","rhyme","<img src=""square.png"" width=""306"" height=""306"" style=""position: fixed;left:14%;top:30%""><img src=""square.png"" width=""306"" height=""306"" style=""position: fixed;left:64%;top:30%"">","null","","","","","","","","","","","","","","","","","","","","","","","","","","","","","","","","","","",""
"","","","","","html-keyboard-response","79","178323","0.0-6.0-2.20","A2WJMGV0HKQG3Z","2022-05-19T01:29:39.496Z","rhyme-phon_sim-same_different-task_switching","","2275","rhyme","<div style=""border: 3px solid #000000; position: fixed;left:14%;top:30%""><img src=""visual/plane.png"" width=""300""></div><div style=""border: 3px solid #000000; position: fixed;left:64%;top:30%""><img src=""visual/chain.png"" width=""300""></div>","arrowup","","true","experiment","visual/plane.png","visual/chain.png","ArrowUp","non-ortho","","","","","","","","","","","","","","","","","","","","","","","","","","","",""
"","","","","","html-keyboard-response","80","178829","0.0-6.0-0.21","A2WJMGV0HKQG3Z","2022-05-19T01:29:39.496Z","rhyme-phon_sim-same_different-task_switching","","null","rhyme","<div style=""font-size:60px;"">+</div>","null","500","","","","","","","","","","","","","","","","","","","","","","","","","","","","","","","","","",""
"","","","","","html-keyboard-response","81","179338","0.0-6.0-1.21","A2WJMGV0HKQG3Z","2022-05-19T01:29:39.496Z","rhyme-phon_sim-same_different-task_switching","","null","rhyme","<img src=""square.png"" width=""306"" height=""306"" style=""position: fixed;left:14%;top:30%""><img src=""square.png"" width=""306"" height=""306"" style=""position: fixed;left:64%;top:30%"">","null","","","","","","","","","","","","","","","","","","","","","","","","","","","","","","","","","","",""
"","","","","","html-keyboard-response","82","181450","0.0-6.0-2.21","A2WJMGV0HKQG3Z","2022-05-19T01:29:39.496Z","rhyme-phon_sim-same_different-task_switching","","2106.39999999851","rhyme","<div style=""border: 3px solid #000000; position: fixed;left:14%;top:30%""><img src=""visual/jar.png"" width=""300""></div><div style=""border: 3px solid #000000; position: fixed;left:64%;top:30%""><img src=""visual/whale.png"" width=""300""></div>","arrowdown","","true","experiment","visual/jar.png","visual/whale.png","ArrowDown","NR","","","","","","","","","","","","","","","","","","","","","","","","","","","",""
"","","","","","html-keyboard-response","83","181704","0.0-6.0-0.22","A2WJMGV0HKQG3Z","2022-05-19T01:29:39.496Z","rhyme-phon_sim-same_different-task_switching","","null","rhyme","<div style=""font-size:60px;"">+</div>","null","250","","","","","","","","","","","","","","","","","","","","","","","","","","","","","","","","","",""
"","","","","","html-keyboard-response","84","182214","0.0-6.0-1.22","A2WJMGV0HKQG3Z","2022-05-19T01:29:39.496Z","rhyme-phon_sim-same_different-task_switching","","null","rhyme","<img src=""square.png"" width=""306"" height=""306"" style=""position: fixed;left:14%;top:30%""><img src=""square.png"" width=""306"" height=""306"" style=""position: fixed;left:64%;top:30%"">","null","","","","","","","","","","","","","","","","","","","","","","","","","","","","","","","","","","",""
"","","","","","html-keyboard-response","85","185436","0.0-6.0-2.22","A2WJMGV0HKQG3Z","2022-05-19T01:29:39.496Z","rhyme-phon_sim-same_different-task_switching","","3215.4000000059605","rhyme","<div style=""border: 3px solid #000000; position: fixed;left:14%;top:30%""><img src=""visual/wheel.png"" width=""300""></div><div style=""border: 3px solid #000000; position: fixed;left:64%;top:30%""><img src=""visual/seal.png"" width=""300""></div>","arrowdown","","false","experiment","visual/wheel.png","visual/seal.png","ArrowUp","non-ortho","","","","","","","","","","","","","","","","","","","","","","","","","","","",""
"","","","","","html-keyboard-response","86","186190","0.0-6.0-0.23","A2WJMGV0HKQG3Z","2022-05-19T01:29:39.496Z","rhyme-phon_sim-same_different-task_switching","","null","rhyme","<div style=""font-size:60px;"">+</div>","null","750","","","","","","","","","","","","","","","","","","","","","","","","","","","","","","","","","",""
"","","","","","html-keyboard-response","87","186707","0.0-6.0-1.23","A2WJMGV0HKQG3Z","2022-05-19T01:29:39.496Z","rhyme-phon_sim-same_different-task_switching","","null","rhyme","<img src=""square.png"" width=""306"" height=""306"" style=""position: fixed;left:14%;top:30%""><img src=""square.png"" width=""306"" height=""306"" style=""position: fixed;left:64%;top:30%"">","null","","","","","","","","","","","","","","","","","","","","","","","","","","","","","","","","","","",""
"","","","","","html-keyboard-response","88","188419","0.0-6.0-2.23","A2WJMGV0HKQG3Z","2022-05-19T01:29:39.496Z","rhyme-phon_sim-same_different-task_switching","","1707.3000000044703","rhyme","<div style=""border: 3px solid #000000; position: fixed;left:14%;top:30%""><img src=""visual/spoon.png"" width=""300""></div><div style=""border: 3px solid #000000; position: fixed;left:64%;top:30%""><img src=""visual/moon.png"" width=""300""></div>","arrowup","","true","experiment","visual/spoon.png","visual/moon.png","ArrowUp","ortho","","","","","","","","","","","","","","","","","","","","","","","","","","","",""
"","","","","","html-keyboard-response","89","189170","0.0-6.0-0.24","A2WJMGV0HKQG3Z","2022-05-19T01:29:39.496Z","rhyme-phon_sim-same_different-task_switching","","null","rhyme","<div style=""font-size:60px;"">+</div>","null","750","","","","","","","","","","","","","","","","","","","","","","","","","","","","","","","","","",""
"","","","","","html-keyboard-response","90","189677","0.0-6.0-1.24","A2WJMGV0HKQG3Z","2022-05-19T01:29:39.496Z","rhyme-phon_sim-same_different-task_switching","","null","rhyme","<img src=""square.png"" width=""306"" height=""306"" style=""position: fixed;left:14%;top:30%""><img src=""square.png"" width=""306"" height=""306"" style=""position: fixed;left:64%;top:30%"">","null","","","","","","","","","","","","","","","","","","","","","","","","","","","","","","","","","","",""
"","","","","","html-keyboard-response","91","191619","0.0-6.0-2.24","A2WJMGV0HKQG3Z","2022-05-19T01:29:39.496Z","rhyme-phon_sim-same_different-task_switching","","1931.1999999955297","rhyme","<div style=""border: 3px solid #000000; position: fixed;left:14%;top:30%""><img src=""visual/chain.png"" width=""300""></div><div style=""border: 3px solid #000000; position: fixed;left:64%;top:30%""><img src=""visual/brain.png"" width=""300""></div>","arrowdown","","false","experiment","visual/chain.png","visual/brain.png","ArrowUp","ortho","","","","","","","","","","","","","","","","","","","","","","","","","","","",""
"","","","","","html-keyboard-response","92","192623","0.0-6.0-0.25","A2WJMGV0HKQG3Z","2022-05-19T01:29:39.496Z","rhyme-phon_sim-same_different-task_switching","","null","rhyme","<div style=""font-size:60px;"">+</div>","null","1000","","","","","","","","","","","","","","","","","","","","","","","","","","","","","","","","","",""
"","","","","","html-keyboard-response","93","193130","0.0-6.0-1.25","A2WJMGV0HKQG3Z","2022-05-19T01:29:39.496Z","rhyme-phon_sim-same_different-task_switching","","null","rhyme","<img src=""square.png"" width=""306"" height=""306"" style=""position: fixed;left:14%;top:30%""><img src=""square.png"" width=""306"" height=""306"" style=""position: fixed;left:64%;top:30%"">","null","","","","","","","","","","","","","","","","","","","","","","","","","","","","","","","","","","",""
"","","","","","html-keyboard-response","94","195104","0.0-6.0-2.25","A2WJMGV0HKQG3Z","2022-05-19T01:29:39.496Z","rhyme-phon_sim-same_different-task_switching","","1967.7000000029802","rhyme","<div style=""border: 3px solid #000000; position: fixed;left:14%;top:30%""><img src=""visual/eye.png"" width=""300""></div><div style=""border: 3px solid #000000; position: fixed;left:64%;top:30%""><img src=""visual/tie.png"" width=""300""></div>","arrowdown","","false","experiment","visual/eye.png","visual/tie.png","ArrowUp","non-ortho","","","","","","","","","","","","","","","","","","","","","","","","","","","",""
"","","","","","html-keyboard-response","95","195608","0.0-6.0-0.26","A2WJMGV0HKQG3Z","2022-05-19T01:29:39.496Z","rhyme-phon_sim-same_different-task_switching","","null","rhyme","<div style=""font-size:60px;"">+</div>","null","500","","","","","","","","","","","","","","","","","","","","","","","","","","","","","","","","","",""
"","","","","","html-keyboard-response","96","196114","0.0-6.0-1.26","A2WJMGV0HKQG3Z","2022-05-19T01:29:39.496Z","rhyme-phon_sim-same_different-task_switching","","null","rhyme","<img src=""square.png"" width=""306"" height=""306"" style=""position: fixed;left:14%;top:30%""><img src=""square.png"" width=""306"" height=""306"" style=""position: fixed;left:64%;top:30%"">","null","","","","","","","","","","","","","","","","","","","","","","","","","","","","","","","","","","",""
"","","","","","html-keyboard-response","97","199491","0.0-6.0-2.26","A2WJMGV0HKQG3Z","2022-05-19T01:29:39.496Z","rhyme-phon_sim-same_different-task_switching","","3371.7000000029802","rhyme","<div style=""border: 3px solid #000000; position: fixed;left:14%;top:30%""><img src=""visual/pope.png"" width=""300""></div><div style=""border: 3px solid #000000; position: fixed;left:64%;top:30%""><img src=""visual/soap.png"" width=""300""></div>","arrowup","","true","experiment","visual/pope.png","visual/soap.png","ArrowUp","non-ortho","","","","","","","","","","","","","","","","","","","","","","","","","","","",""
"","","","","","html-keyboard-response","98","199997","0.0-6.0-0.27","A2WJMGV0HKQG3Z","2022-05-19T01:29:39.496Z","rhyme-phon_sim-same_different-task_switching","","null","rhyme","<div style=""font-size:60px;"">+</div>","null","500","","","","","","","","","","","","","","","","","","","","","","","","","","","","","","","","","",""
"","","","","","html-keyboard-response","99","200502","0.0-6.0-1.27","A2WJMGV0HKQG3Z","2022-05-19T01:29:39.496Z","rhyme-phon_sim-same_different-task_switching","","null","rhyme","<img src=""square.png"" width=""306"" height=""306"" style=""position: fixed;left:14%;top:30%""><img src=""square.png"" width=""306"" height=""306"" style=""position: fixed;left:64%;top:30%"">","null","","","","","","","","","","","","","","","","","","","","","","","","","","","","","","","","","","",""
"","","","","","html-keyboard-response","100","203237","0.0-6.0-2.27","A2WJMGV0HKQG3Z","2022-05-19T01:29:39.496Z","rhyme-phon_sim-same_different-task_switching","","2730.89999999851","rhyme","<div style=""border: 3px solid #000000; position: fixed;left:14%;top:30%""><img src=""visual/egg.png"" width=""300""></div><div style=""border: 3px solid #000000; position: fixed;left:64%;top:30%""><img src=""visual/ring.png"" width=""300""></div>","arrowdown","","true","experiment","visual/egg.png","visual/ring.png","ArrowDown","NR","","","","","","","","","","","","","","","","","","","","","","","","","","","",""
"","","","","","html-keyboard-response","101","203492","0.0-6.0-0.28","A2WJMGV0HKQG3Z","2022-05-19T01:29:39.496Z","rhyme-phon_sim-same_different-task_switching","","null","rhyme","<div style=""font-size:60px;"">+</div>","null","250","","","","","","","","","","","","","","","","","","","","","","","","","","","","","","","","","",""
"","","","","","html-keyboard-response","102","204004","0.0-6.0-1.28","A2WJMGV0HKQG3Z","2022-05-19T01:29:39.496Z","rhyme-phon_sim-same_different-task_switching","","null","rhyme","<img src=""square.png"" width=""306"" height=""306"" style=""position: fixed;left:14%;top:30%""><img src=""square.png"" width=""306"" height=""306"" style=""position: fixed;left:64%;top:30%"">","null","","","","","","","","","","","","","","","","","","","","","","","","","","","","","","","","","","",""
"","","","","","html-keyboard-response","103","207949","0.0-6.0-2.28","A2WJMGV0HKQG3Z","2022-05-19T01:29:39.496Z","rhyme-phon_sim-same_different-task_switching","","3935.2000000029802","rhyme","<div style=""border: 3px solid #000000; position: fixed;left:14%;top:30%""><img src=""visual/bin.png"" width=""300""></div><div style=""border: 3px solid #000000; position: fixed;left:64%;top:30%""><img src=""visual/chin.png"" width=""300""></div>","arrowdown","","false","experiment","visual/bin.png","visual/chin.png","ArrowUp","ortho","","","","","","","","","","","","","","","","","","","","","","","","","","","",""
"","","","","","html-keyboard-response","104","208452","0.0-6.0-0.29","A2WJMGV0HKQG3Z","2022-05-19T01:29:39.496Z","rhyme-phon_sim-same_different-task_switching","","null","rhyme","<div style=""font-size:60px;"">+</div>","null","500","","","","","","","","","","","","","","","","","","","","","","","","","","","","","","","","","",""
"","","","","","html-keyboard-response","105","208962","0.0-6.0-1.29","A2WJMGV0HKQG3Z","2022-05-19T01:29:39.496Z","rhyme-phon_sim-same_different-task_switching","","null","rhyme","<img src=""square.png"" width=""306"" height=""306"" style=""position: fixed;left:14%;top:30%""><img src=""square.png"" width=""306"" height=""306"" style=""position: fixed;left:64%;top:30%"">","null","","","","","","","","","","","","","","","","","","","","","","","","","","","","","","","","","","",""
"","","","","","html-keyboard-response","106","211155","0.0-6.0-2.29","A2WJMGV0HKQG3Z","2022-05-19T01:29:39.496Z","rhyme-phon_sim-same_different-task_switching","","2186.1999999955297","rhyme","<div style=""border: 3px solid #000000; position: fixed;left:14%;top:30%""><img src=""visual/tie.png"" width=""300""></div><div style=""border: 3px solid #000000; position: fixed;left:64%;top:30%""><img src=""visual/fly.png"" width=""300""></div>","arrowup","","true","experiment","visual/tie.png","visual/fly.png","ArrowUp","non-ortho","","","","","","","","","","","","","","","","","","","","","","","","","","","",""
"","","","","","html-keyboard-response","107","211662","0.0-6.0-0.30","A2WJMGV0HKQG3Z","2022-05-19T01:29:39.496Z","rhyme-phon_sim-same_different-task_switching","","null","rhyme","<div style=""font-size:60px;"">+</div>","null","500","","","","","","","","","","","","","","","","","","","","","","","","","","","","","","","","","",""
"","","","","","html-keyboard-response","108","212168","0.0-6.0-1.30","A2WJMGV0HKQG3Z","2022-05-19T01:29:39.496Z","rhyme-phon_sim-same_different-task_switching","","null","rhyme","<img src=""square.png"" width=""306"" height=""306"" style=""position: fixed;left:14%;top:30%""><img src=""square.png"" width=""306"" height=""306"" style=""position: fixed;left:64%;top:30%"">","null","","","","","","","","","","","","","","","","","","","","","","","","","","","","","","","","","","",""
"","","","","","html-keyboard-response","109","215102","0.0-6.0-2.30","A2WJMGV0HKQG3Z","2022-05-19T01:29:39.496Z","rhyme-phon_sim-same_different-task_switching","","2926","rhyme","<div style=""border: 3px solid #000000; position: fixed;left:14%;top:30%""><img src=""visual/egg.png"" width=""300""></div><div style=""border: 3px solid #000000; position: fixed;left:64%;top:30%""><img src=""visual/leg.png"" width=""300""></div>","arrowdown","","false","experiment","visual/egg.png","visual/leg.png","ArrowUp","ortho","","","","","","","","","","","","","","","","","","","","","","","","","","","",""
"","","","","","html-keyboard-response","110","215606","0.0-6.0-0.31","A2WJMGV0HKQG3Z","2022-05-19T01:29:39.496Z","rhyme-phon_sim-same_different-task_switching","","null","rhyme","<div style=""font-size:60px;"">+</div>","null","500","","","","","","","","","","","","","","","","","","","","","","","","","","","","","","","","","",""
"","","","","","html-keyboard-response","111","216111","0.0-6.0-1.31","A2WJMGV0HKQG3Z","2022-05-19T01:29:39.496Z","rhyme-phon_sim-same_different-task_switching","","null","rhyme","<img src=""square.png"" width=""306"" height=""306"" style=""position: fixed;left:14%;top:30%""><img src=""square.png"" width=""306"" height=""306"" style=""position: fixed;left:64%;top:30%"">","null","","","","","","","","","","","","","","","","","","","","","","","","","","","","","","","","","","",""
"","","","","","html-keyboard-response","112","219159","0.0-6.0-2.31","A2WJMGV0HKQG3Z","2022-05-19T01:29:39.496Z","rhyme-phon_sim-same_different-task_switching","","3041.10000000149","rhyme","<div style=""border: 3px solid #000000; position: fixed;left:14%;top:30%""><img src=""visual/cake.png"" width=""300""></div><div style=""border: 3px solid #000000; position: fixed;left:64%;top:30%""><img src=""visual/rake.png"" width=""300""></div>","arrowdown","","false","experiment","visual/cake.png","visual/rake.png","ArrowUp","ortho","","","","","","","","","","","","","","","","","","","","","","","","","","","",""
"","","","","","html-keyboard-response","113","219914","0.0-6.0-0.32","A2WJMGV0HKQG3Z","2022-05-19T01:29:39.496Z","rhyme-phon_sim-same_different-task_switching","","null","rhyme","<div style=""font-size:60px;"">+</div>","null","750","","","","","","","","","","","","","","","","","","","","","","","","","","","","","","","","","",""
"","","","","","html-keyboard-response","114","220423","0.0-6.0-1.32","A2WJMGV0HKQG3Z","2022-05-19T01:29:39.496Z","rhyme-phon_sim-same_different-task_switching","","null","rhyme","<img src=""square.png"" width=""306"" height=""306"" style=""position: fixed;left:14%;top:30%""><img src=""square.png"" width=""306"" height=""306"" style=""position: fixed;left:64%;top:30%"">","null","","","","","","","","","","","","","","","","","","","","","","","","","","","","","","","","","","",""
"","","","","","html-keyboard-response","115","222057","0.0-6.0-2.32","A2WJMGV0HKQG3Z","2022-05-19T01:29:39.496Z","rhyme-phon_sim-same_different-task_switching","","1624.5","rhyme","<div style=""border: 3px solid #000000; position: fixed;left:14%;top:30%""><img src=""visual/star.png"" width=""300""></div><div style=""border: 3px solid #000000; position: fixed;left:64%;top:30%""><img src=""visual/jar.png"" width=""300""></div>","arrowup","","true","experiment","visual/star.png","visual/jar.png","ArrowUp","ortho","","","","","","","","","","","","","","","","","","","","","","","","","","","",""
"","","","","","html-keyboard-response","116","222309","0.0-6.0-0.33","A2WJMGV0HKQG3Z","2022-05-19T01:29:39.496Z","rhyme-phon_sim-same_different-task_switching","","null","rhyme","<div style=""font-size:60px;"">+</div>","null","250","","","","","","","","","","","","","","","","","","","","","","","","","","","","","","","","","",""
"","","","","","html-keyboard-response","117","222818","0.0-6.0-1.33","A2WJMGV0HKQG3Z","2022-05-19T01:29:39.496Z","rhyme-phon_sim-same_different-task_switching","","null","rhyme","<img src=""square.png"" width=""306"" height=""306"" style=""position: fixed;left:14%;top:30%""><img src=""square.png"" width=""306"" height=""306"" style=""position: fixed;left:64%;top:30%"">","null","","","","","","","","","","","","","","","","","","","","","","","","","","","","","","","","","","",""
"","","","","","html-keyboard-response","118","224212","0.0-6.0-2.33","A2WJMGV0HKQG3Z","2022-05-19T01:29:39.496Z","rhyme-phon_sim-same_different-task_switching","","1386.2999999970198","rhyme","<div style=""border: 3px solid #000000; position: fixed;left:14%;top:30%""><img src=""visual/key.png"" width=""300""></div><div style=""border: 3px solid #000000; position: fixed;left:64%;top:30%""><img src=""visual/tree.png"" width=""300""></div>","arrowup","","true","experiment","visual/key.png","visual/tree.png","ArrowUp","non-ortho","","","","","","","","","","","","","","","","","","","","","","","","","","","",""
"","","","","","html-keyboard-response","119","224970","0.0-6.0-0.34","A2WJMGV0HKQG3Z","2022-05-19T01:29:39.496Z","rhyme-phon_sim-same_different-task_switching","","null","rhyme","<div style=""font-size:60px;"">+</div>","null","750","","","","","","","","","","","","","","","","","","","","","","","","","","","","","","","","","",""
"","","","","","html-keyboard-response","120","225473","0.0-6.0-1.34","A2WJMGV0HKQG3Z","2022-05-19T01:29:39.496Z","rhyme-phon_sim-same_different-task_switching","","null","rhyme","<img src=""square.png"" width=""306"" height=""306"" style=""position: fixed;left:14%;top:30%""><img src=""square.png"" width=""306"" height=""306"" style=""position: fixed;left:64%;top:30%"">","null","","","","","","","","","","","","","","","","","","","","","","","","","","","","","","","","","","",""
"","","","","","html-keyboard-response","121","228396","0.0-6.0-2.34","A2WJMGV0HKQG3Z","2022-05-19T01:29:39.496Z","rhyme-phon_sim-same_different-task_switching","","2916.89999999851","rhyme","<div style=""border: 3px solid #000000; position: fixed;left:14%;top:30%""><img src=""visual/socks.png"" width=""300""></div><div style=""border: 3px solid #000000; position: fixed;left:64%;top:30%""><img src=""visual/fox.png"" width=""300""></div>","arrowdown","","false","experiment","visual/socks.png","visual/fox.png","ArrowUp","non-ortho","","","","","","","","","","","","","","","","","","","","","","","","","","","",""
"","","","","","html-keyboard-response","122","229398","0.0-6.0-0.35","A2WJMGV0HKQG3Z","2022-05-19T01:29:39.496Z","rhyme-phon_sim-same_different-task_switching","","null","rhyme","<div style=""font-size:60px;"">+</div>","null","1000","","","","","","","","","","","","","","","","","","","","","","","","","","","","","","","","","",""
"","","","","","html-keyboard-response","123","229913","0.0-6.0-1.35","A2WJMGV0HKQG3Z","2022-05-19T01:29:39.496Z","rhyme-phon_sim-same_different-task_switching","","null","rhyme","<img src=""square.png"" width=""306"" height=""306"" style=""position: fixed;left:14%;top:30%""><img src=""square.png"" width=""306"" height=""306"" style=""position: fixed;left:64%;top:30%"">","null","","","","","","","","","","","","","","","","","","","","","","","","","","","","","","","","","","",""
"","","","","","html-keyboard-response","124","231082","0.0-6.0-2.35","A2WJMGV0HKQG3Z","2022-05-19T01:29:39.496Z","rhyme-phon_sim-same_different-task_switching","","1163.7999999970198","rhyme","<div style=""border: 3px solid #000000; position: fixed;left:14%;top:30%""><img src=""visual/cat.png"" width=""300""></div><div style=""border: 3px solid #000000; position: fixed;left:64%;top:30%""><img src=""visual/hat.png"" width=""300""></div>","arrowup","","true","experiment","visual/cat.png","visual/hat.png","ArrowUp","ortho","","","","","","","","","","","","","","","","","","","","","","","","","","","",""
"","","","","","html-keyboard-response","125","231835","0.0-6.0-0.36","A2WJMGV0HKQG3Z","2022-05-19T01:29:39.496Z","rhyme-phon_sim-same_different-task_switching","","null","rhyme","<div style=""font-size:60px;"">+</div>","null","750","","","","","","","","","","","","","","","","","","","","","","","","","","","","","","","","","",""
"","","","","","html-keyboard-response","126","232342","0.0-6.0-1.36","A2WJMGV0HKQG3Z","2022-05-19T01:29:39.496Z","rhyme-phon_sim-same_different-task_switching","","null","rhyme","<img src=""square.png"" width=""306"" height=""306"" style=""position: fixed;left:14%;top:30%""><img src=""square.png"" width=""306"" height=""306"" style=""position: fixed;left:64%;top:30%"">","null","","","","","","","","","","","","","","","","","","","","","","","","","","","","","","","","","","",""
"","","","","","html-keyboard-response","127","236038","0.0-6.0-2.36","A2WJMGV0HKQG3Z","2022-05-19T01:29:39.496Z","rhyme-phon_sim-same_different-task_switching","","3685.3000000044703","rhyme","<div style=""border: 3px solid #000000; position: fixed;left:14%;top:30%""><img src=""visual/soap.png"" width=""300""></div><div style=""border: 3px solid #000000; position: fixed;left:64%;top:30%""><img src=""visual/shoe.png"" width=""300""></div>","arrowdown","","true","experiment","visual/soap.png","visual/shoe.png","ArrowDown","NR","","","","","","","","","","","","","","","","","","","","","","","","","","","",""
"","","","","","html-keyboard-response","128","236292","0.0-6.0-0.37","A2WJMGV0HKQG3Z","2022-05-19T01:29:39.496Z","rhyme-phon_sim-same_different-task_switching","","null","rhyme","<div style=""font-size:60px;"">+</div>","null","250","","","","","","","","","","","","","","","","","","","","","","","","","","","","","","","","","",""
"","","","","","html-keyboard-response","129","236800","0.0-6.0-1.37","A2WJMGV0HKQG3Z","2022-05-19T01:29:39.496Z","rhyme-phon_sim-same_different-task_switching","","null","rhyme","<img src=""square.png"" width=""306"" height=""306"" style=""position: fixed;left:14%;top:30%""><img src=""square.png"" width=""306"" height=""306"" style=""position: fixed;left:64%;top:30%"">","null","","","","","","","","","","","","","","","","","","","","","","","","","","","","","","","","","","",""
"","","","","","html-keyboard-response","130","238394","0.0-6.0-2.37","A2WJMGV0HKQG3Z","2022-05-19T01:29:39.496Z","rhyme-phon_sim-same_different-task_switching","","1588.2000000029802","rhyme","<div style=""border: 3px solid #000000; position: fixed;left:14%;top:30%""><img src=""visual/plane.png"" width=""300""></div><div style=""border: 3px solid #000000; position: fixed;left:64%;top:30%""><img src=""visual/train.png"" width=""300""></div>","arrowup","","true","experiment","visual/plane.png","visual/train.png","ArrowUp","non-ortho","","","","","","","","","","","","","","","","","","","","","","","","","","","",""
"","","","","","html-keyboard-response","131","238647","0.0-6.0-0.38","A2WJMGV0HKQG3Z","2022-05-19T01:29:39.496Z","rhyme-phon_sim-same_different-task_switching","","null","rhyme","<div style=""font-size:60px;"">+</div>","null","250","","","","","","","","","","","","","","","","","","","","","","","","","","","","","","","","","",""
"","","","","","html-keyboard-response","132","239156","0.0-6.0-1.38","A2WJMGV0HKQG3Z","2022-05-19T01:29:39.496Z","rhyme-phon_sim-same_different-task_switching","","null","rhyme","<img src=""square.png"" width=""306"" height=""306"" style=""position: fixed;left:14%;top:30%""><img src=""square.png"" width=""306"" height=""306"" style=""position: fixed;left:64%;top:30%"">","null","","","","","","","","","","","","","","","","","","","","","","","","","","","","","","","","","","",""
"","","","","","html-keyboard-response","133","241399","0.0-6.0-2.38","A2WJMGV0HKQG3Z","2022-05-19T01:29:39.496Z","rhyme-phon_sim-same_different-task_switching","","2236.60000000149","rhyme","<div style=""border: 3px solid #000000; position: fixed;left:14%;top:30%""><img src=""visual/bear.png"" width=""300""></div><div style=""border: 3px solid #000000; position: fixed;left:64%;top:30%""><img src=""visual/crane.png"" width=""300""></div>","arrowdown","","true","experiment","visual/bear.png","visual/crane.png","ArrowDown","NR","","","","","","","","","","","","","","","","","","","","","","","","","","","",""
"","","","","","html-keyboard-response","134","241652","0.0-6.0-0.39","A2WJMGV0HKQG3Z","2022-05-19T01:29:39.496Z","rhyme-phon_sim-same_different-task_switching","","null","rhyme","<div style=""font-size:60px;"">+</div>","null","250","","","","","","","","","","","","","","","","","","","","","","","","","","","","","","","","","",""
"","","","","","html-keyboard-response","135","242159","0.0-6.0-1.39","A2WJMGV0HKQG3Z","2022-05-19T01:29:39.496Z","rhyme-phon_sim-same_different-task_switching","","null","rhyme","<img src=""square.png"" width=""306"" height=""306"" style=""position: fixed;left:14%;top:30%""><img src=""square.png"" width=""306"" height=""306"" style=""position: fixed;left:64%;top:30%"">","null","","","","","","","","","","","","","","","","","","","","","","","","","","","","","","","","","","",""
"","","","","","html-keyboard-response","136","245293","0.0-6.0-2.39","A2WJMGV0HKQG3Z","2022-05-19T01:29:39.496Z","rhyme-phon_sim-same_different-task_switching","","3127.7999999970198","rhyme","<div style=""border: 3px solid #000000; position: fixed;left:14%;top:30%""><img src=""visual/box.png"" width=""300""></div><div style=""border: 3px solid #000000; position: fixed;left:64%;top:30%""><img src=""visual/fox.png"" width=""300""></div>","arrowup","","true","experiment","visual/box.png","visual/fox.png","ArrowUp","ortho","","","","","","","","","","","","","","","","","","","","","","","","","","","",""
"","","","","","html-keyboard-response","137","246298","0.0-6.0-0.40","A2WJMGV0HKQG3Z","2022-05-19T01:29:39.496Z","rhyme-phon_sim-same_different-task_switching","","null","rhyme","<div style=""font-size:60px;"">+</div>","null","1000","","","","","","","","","","","","","","","","","","","","","","","","","","","","","","","","","",""
"","","","","","html-keyboard-response","138","246803","0.0-6.0-1.40","A2WJMGV0HKQG3Z","2022-05-19T01:29:39.496Z","rhyme-phon_sim-same_different-task_switching","","null","rhyme","<img src=""square.png"" width=""306"" height=""306"" style=""position: fixed;left:14%;top:30%""><img src=""square.png"" width=""306"" height=""306"" style=""position: fixed;left:64%;top:30%"">","null","","","","","","","","","","","","","","","","","","","","","","","","","","","","","","","","","","",""
"","","","","","html-keyboard-response","139","248581","0.0-6.0-2.40","A2WJMGV0HKQG3Z","2022-05-19T01:29:39.496Z","rhyme-phon_sim-same_different-task_switching","","1770.5999999940395","rhyme","<div style=""border: 3px solid #000000; position: fixed;left:14%;top:30%""><img src=""visual/bone.png"" width=""300""></div><div style=""border: 3px solid #000000; position: fixed;left:64%;top:30%""><img src=""visual/cone.png"" width=""300""></div>","arrowup","","true","experiment","visual/bone.png","visual/cone.png","ArrowUp","ortho","","","","","","","","","","","","","","","","","","","","","","","","","","","",""
"","","","","","html-keyboard-response","140","249084","0.0-6.0-0.41","A2WJMGV0HKQG3Z","2022-05-19T01:29:39.496Z","rhyme-phon_sim-same_different-task_switching","","null","rhyme","<div style=""font-size:60px;"">+</div>","null","500","","","","","","","","","","","","","","","","","","","","","","","","","","","","","","","","","",""
"","","","","","html-keyboard-response","141","249597","0.0-6.0-1.41","A2WJMGV0HKQG3Z","2022-05-19T01:29:39.496Z","rhyme-phon_sim-same_different-task_switching","","null","rhyme","<img src=""square.png"" width=""306"" height=""306"" style=""position: fixed;left:14%;top:30%""><img src=""square.png"" width=""306"" height=""306"" style=""position: fixed;left:64%;top:30%"">","null","","","","","","","","","","","","","","","","","","","","","","","","","","","","","","","","","","",""
"","","","","","html-keyboard-response","142","251774","0.0-6.0-2.41","A2WJMGV0HKQG3Z","2022-05-19T01:29:39.496Z","rhyme-phon_sim-same_different-task_switching","","2170.10000000149","rhyme","<div style=""border: 3px solid #000000; position: fixed;left:14%;top:30%""><img src=""visual/nose.png"" width=""300""></div><div style=""border: 3px solid #000000; position: fixed;left:64%;top:30%""><img src=""visual/bell.png"" width=""300""></div>","arrowdown","","true","experiment","visual/nose.png","visual/bell.png","ArrowDown","NR","","","","","","","","","","","","","","","","","","","","","","","","","","","",""
"","","","","","html-keyboard-response","143","252027","0.0-6.0-0.42","A2WJMGV0HKQG3Z","2022-05-19T01:29:39.496Z","rhyme-phon_sim-same_different-task_switching","","null","rhyme","<div style=""font-size:60px;"">+</div>","null","250","","","","","","","","","","","","","","","","","","","","","","","","","","","","","","","","","",""
"","","","","","html-keyboard-response","144","252536","0.0-6.0-1.42","A2WJMGV0HKQG3Z","2022-05-19T01:29:39.496Z","rhyme-phon_sim-same_different-task_switching","","null","rhyme","<img src=""square.png"" width=""306"" height=""306"" style=""position: fixed;left:14%;top:30%""><img src=""square.png"" width=""306"" height=""306"" style=""position: fixed;left:64%;top:30%"">","null","","","","","","","","","","","","","","","","","","","","","","","","","","","","","","","","","","",""
"","","","","","html-keyboard-response","145","255532","0.0-6.0-2.42","A2WJMGV0HKQG3Z","2022-05-19T01:29:39.496Z","rhyme-phon_sim-same_different-task_switching","","2983.7000000029802","rhyme","<div style=""border: 3px solid #000000; position: fixed;left:14%;top:30%""><img src=""visual/king.png"" width=""300""></div><div style=""border: 3px solid #000000; position: fixed;left:64%;top:30%""><img src=""visual/ring.png"" width=""300""></div>","arrowup","","true","experiment","visual/king.png","visual/ring.png","ArrowUp","ortho","","","","","","","","","","","","","","","","","","","","","","","","","","","",""
"","","","","","html-keyboard-response","146","256286","0.0-6.0-0.43","A2WJMGV0HKQG3Z","2022-05-19T01:29:39.496Z","rhyme-phon_sim-same_different-task_switching","","null","rhyme","<div style=""font-size:60px;"">+</div>","null","750","","","","","","","","","","","","","","","","","","","","","","","","","","","","","","","","","",""
"","","","","","html-keyboard-response","147","256791","0.0-6.0-1.43","A2WJMGV0HKQG3Z","2022-05-19T01:29:39.496Z","rhyme-phon_sim-same_different-task_switching","","null","rhyme","<img src=""square.png"" width=""306"" height=""306"" style=""position: fixed;left:14%;top:30%""><img src=""square.png"" width=""306"" height=""306"" style=""position: fixed;left:64%;top:30%"">","null","","","","","","","","","","","","","","","","","","","","","","","","","","","","","","","","","","",""
"","","","","","html-keyboard-response","148","259220","0.0-6.0-2.43","A2WJMGV0HKQG3Z","2022-05-19T01:29:39.496Z","rhyme-phon_sim-same_different-task_switching","","2420.2999999970198","rhyme","<div style=""border: 3px solid #000000; position: fixed;left:14%;top:30%""><img src=""visual/brain.png"" width=""300""></div><div style=""border: 3px solid #000000; position: fixed;left:64%;top:30%""><img src=""visual/clock.png"" width=""300""></div>","arrowdown","","true","experiment","visual/brain.png","visual/clock.png","ArrowDown","NR","","","","","","","","","","","","","","","","","","","","","","","","","","","",""
"","","","","","html-keyboard-response","149","260222","0.0-6.0-0.44","A2WJMGV0HKQG3Z","2022-05-19T01:29:39.496Z","rhyme-phon_sim-same_different-task_switching","","null","rhyme","<div style=""font-size:60px;"">+</div>","null","1000","","","","","","","","","","","","","","","","","","","","","","","","","","","","","","","","","",""
"","","","","","html-keyboard-response","150","260728","0.0-6.0-1.44","A2WJMGV0HKQG3Z","2022-05-19T01:29:39.496Z","rhyme-phon_sim-same_different-task_switching","","null","rhyme","<img src=""square.png"" width=""306"" height=""306"" style=""position: fixed;left:14%;top:30%""><img src=""square.png"" width=""306"" height=""306"" style=""position: fixed;left:64%;top:30%"">","null","","","","","","","","","","","","","","","","","","","","","","","","","","","","","","","","","","",""
"","","","","","html-keyboard-response","151","265738","0.0-6.0-2.44","A2WJMGV0HKQG3Z","2022-05-19T01:29:39.496Z","rhyme-phon_sim-same_different-task_switching","","null","rhyme","<div style=""border: 3px solid #000000; position: fixed;left:14%;top:30%""><img src=""visual/drawer.png"" width=""300""></div><div style=""border: 3px solid #000000; position: fixed;left:64%;top:30%""><img src=""visual/chair.png"" width=""300""></div>","null","","false","experiment","visual/drawer.png","visual/chair.png","ArrowDown","NR","","","","","","","","","","","","","","","","","","","","","","","","","","","",""
"","","","","","html-keyboard-response","152","266743","0.0-6.0-0.45","A2WJMGV0HKQG3Z","2022-05-19T01:29:39.496Z","rhyme-phon_sim-same_different-task_switching","","null","rhyme","<div style=""font-size:60px;"">+</div>","null","1000","","","","","","","","","","","","","","","","","","","","","","","","","","","","","","","","","",""
"","","","","","html-keyboard-response","153","267251","0.0-6.0-1.45","A2WJMGV0HKQG3Z","2022-05-19T01:29:39.496Z","rhyme-phon_sim-same_different-task_switching","","null","rhyme","<img src=""square.png"" width=""306"" height=""306"" style=""position: fixed;left:14%;top:30%""><img src=""square.png"" width=""306"" height=""306"" style=""position: fixed;left:64%;top:30%"">","null","","","","","","","","","","","","","","","","","","","","","","","","","","","","","","","","","","",""
"","","","","","html-keyboard-response","154","268822","0.0-6.0-2.45","A2WJMGV0HKQG3Z","2022-05-19T01:29:39.496Z","rhyme-phon_sim-same_different-task_switching","","1559.3999999985099","rhyme","<div style=""border: 3px solid #000000; position: fixed;left:14%;top:30%""><img src=""visual/fly.png"" width=""300""></div><div style=""border: 3px solid #000000; position: fixed;left:64%;top:30%""><img src=""visual/plane.png"" width=""300""></div>","arrowdown","","true","experiment","visual/fly.png","visual/plane.png","ArrowDown","NR","","","","","","","","","","","","","","","","","","","","","","","","","","","",""
"","","","","","html-keyboard-response","155","269077","0.0-6.0-0.46","A2WJMGV0HKQG3Z","2022-05-19T01:29:39.496Z","rhyme-phon_sim-same_different-task_switching","","null","rhyme","<div style=""font-size:60px;"">+</div>","null","250","","","","","","","","","","","","","","","","","","","","","","","","","","","","","","","","","",""
"","","","","","html-keyboard-response","156","269594","0.0-6.0-1.46","A2WJMGV0HKQG3Z","2022-05-19T01:29:39.496Z","rhyme-phon_sim-same_different-task_switching","","null","rhyme","<img src=""square.png"" width=""306"" height=""306"" style=""position: fixed;left:14%;top:30%""><img src=""square.png"" width=""306"" height=""306"" style=""position: fixed;left:64%;top:30%"">","null","","","","","","","","","","","","","","","","","","","","","","","","","","","","","","","","","","",""
"","","","","","html-keyboard-response","157","271991","0.0-6.0-2.46","A2WJMGV0HKQG3Z","2022-05-19T01:29:39.496Z","rhyme-phon_sim-same_different-task_switching","","2391.4000000059605","rhyme","<div style=""border: 3px solid #000000; position: fixed;left:14%;top:30%""><img src=""visual/drawer.png"" width=""300""></div><div style=""border: 3px solid #000000; position: fixed;left:64%;top:30%""><img src=""visual/door.png"" width=""300""></div>","arrowdown","","false","experiment","visual/drawer.png","visual/door.png","ArrowUp","non-ortho","","","","","","","","","","","","","","","","","","","","","","","","","","","",""
"","","","","","html-keyboard-response","158","272495","0.0-6.0-0.47","A2WJMGV0HKQG3Z","2022-05-19T01:29:39.496Z","rhyme-phon_sim-same_different-task_switching","","null","rhyme","<div style=""font-size:60px;"">+</div>","null","500","","","","","","","","","","","","","","","","","","","","","","","","","","","","","","","","","",""
"","","","","","html-keyboard-response","159","273001","0.0-6.0-1.47","A2WJMGV0HKQG3Z","2022-05-19T01:29:39.496Z","rhyme-phon_sim-same_different-task_switching","","null","rhyme","<img src=""square.png"" width=""306"" height=""306"" style=""position: fixed;left:14%;top:30%""><img src=""square.png"" width=""306"" height=""306"" style=""position: fixed;left:64%;top:30%"">","null","","","","","","","","","","","","","","","","","","","","","","","","","","","","","","","","","","",""
"","","","","","html-keyboard-response","160","274478","0.0-6.0-2.47","A2WJMGV0HKQG3Z","2022-05-19T01:29:39.496Z","rhyme-phon_sim-same_different-task_switching","","1468.1000000014901","rhyme","<div style=""border: 3px solid #000000; position: fixed;left:14%;top:30%""><img src=""visual/tree.png"" width=""300""></div><div style=""border: 3px solid #000000; position: fixed;left:64%;top:30%""><img src=""visual/door.png"" width=""300""></div>","arrowdown","","true","experiment","visual/tree.png","visual/door.png","ArrowDown","NR","","","","","","","","","","","","","","","","","","","","","","","","","","","",""
"","","","","","html-keyboard-response","161","275231","0.0-6.0-0.48","A2WJMGV0HKQG3Z","2022-05-19T01:29:39.496Z","rhyme-phon_sim-same_different-task_switching","","null","rhyme","<div style=""font-size:60px;"">+</div>","null","750","","","","","","","","","","","","","","","","","","","","","","","","","","","","","","","","","",""
"","","","","","html-keyboard-response","162","275737","0.0-6.0-1.48","A2WJMGV0HKQG3Z","2022-05-19T01:29:39.496Z","rhyme-phon_sim-same_different-task_switching","","null","rhyme","<img src=""square.png"" width=""306"" height=""306"" style=""position: fixed;left:14%;top:30%""><img src=""square.png"" width=""306"" height=""306"" style=""position: fixed;left:64%;top:30%"">","null","","","","","","","","","","","","","","","","","","","","","","","","","","","","","","","","","","",""
"","","","","","html-keyboard-response","163","277622","0.0-6.0-2.48","A2WJMGV0HKQG3Z","2022-05-19T01:29:39.496Z","rhyme-phon_sim-same_different-task_switching","","1874.6000000014901","rhyme","<div style=""border: 3px solid #000000; position: fixed;left:14%;top:30%""><img src=""visual/bed.png"" width=""300""></div><div style=""border: 3px solid #000000; position: fixed;left:64%;top:30%""><img src=""visual/bread.png"" width=""300""></div>","arrowup","","true","experiment","visual/bed.png","visual/bread.png","ArrowUp","non-ortho","","","","","","","","","","","","","","","","","","","","","","","","","","","",""
"","","","","","html-keyboard-response","164","278374","0.0-6.0-0.49","A2WJMGV0HKQG3Z","2022-05-19T01:29:39.496Z","rhyme-phon_sim-same_different-task_switching","","null","rhyme","<div style=""font-size:60px;"">+</div>","null","750","","","","","","","","","","","","","","","","","","","","","","","","","","","","","","","","","",""
"","","","","","html-keyboard-response","165","278879","0.0-6.0-1.49","A2WJMGV0HKQG3Z","2022-05-19T01:29:39.496Z","rhyme-phon_sim-same_different-task_switching","","null","rhyme","<img src=""square.png"" width=""306"" height=""306"" style=""position: fixed;left:14%;top:30%""><img src=""square.png"" width=""306"" height=""306"" style=""position: fixed;left:64%;top:30%"">","null","","","","","","","","","","","","","","","","","","","","","","","","","","","","","","","","","","",""
"","","","","","html-keyboard-response","166","280285","0.0-6.0-2.49","A2WJMGV0HKQG3Z","2022-05-19T01:29:39.496Z","rhyme-phon_sim-same_different-task_switching","","1394.7000000029802","rhyme","<div style=""border: 3px solid #000000; position: fixed;left:14%;top:30%""><img src=""visual/rose.png"" width=""300""></div><div style=""border: 3px solid #000000; position: fixed;left:64%;top:30%""><img src=""visual/nose.png"" width=""300""></div>","arrowup","","true","experiment","visual/rose.png","visual/nose.png","ArrowUp","ortho","","","","","","","","","","","","","","","","","","","","","","","","","","","",""
"","","","","","html-keyboard-response","167","281040","0.0-6.0-0.50","A2WJMGV0HKQG3Z","2022-05-19T01:29:39.496Z","rhyme-phon_sim-same_different-task_switching","","null","rhyme","<div style=""font-size:60px;"">+</div>","null","750","","","","","","","","","","","","","","","","","","","","","","","","","","","","","","","","","",""
"","","","","","html-keyboard-response","168","281548","0.0-6.0-1.50","A2WJMGV0HKQG3Z","2022-05-19T01:29:39.496Z","rhyme-phon_sim-same_different-task_switching","","null","rhyme","<img src=""square.png"" width=""306"" height=""306"" style=""position: fixed;left:14%;top:30%""><img src=""square.png"" width=""306"" height=""306"" style=""position: fixed;left:64%;top:30%"">","null","","","","","","","","","","","","","","","","","","","","","","","","","","","","","","","","","","",""
"","","","","","html-keyboard-response","169","282853","0.0-6.0-2.50","A2WJMGV0HKQG3Z","2022-05-19T01:29:39.496Z","rhyme-phon_sim-same_different-task_switching","","1293.3999999985099","rhyme","<div style=""border: 3px solid #000000; position: fixed;left:14%;top:30%""><img src=""visual/chair.png"" width=""300""></div><div style=""border: 3px solid #000000; position: fixed;left:64%;top:30%""><img src=""visual/pear.png"" width=""300""></div>","arrowup","","true","experiment","visual/chair.png","visual/pear.png","ArrowUp","non-ortho","","","","","","","","","","","","","","","","","","","","","","","","","","","",""
"","","","","","html-keyboard-response","170","283357","0.0-6.0-0.51","A2WJMGV0HKQG3Z","2022-05-19T01:29:39.496Z","rhyme-phon_sim-same_different-task_switching","","null","rhyme","<div style=""font-size:60px;"">+</div>","null","500","","","","","","","","","","","","","","","","","","","","","","","","","","","","","","","","","",""
"","","","","","html-keyboard-response","171","283869","0.0-6.0-1.51","A2WJMGV0HKQG3Z","2022-05-19T01:29:39.496Z","rhyme-phon_sim-same_different-task_switching","","null","rhyme","<img src=""square.png"" width=""306"" height=""306"" style=""position: fixed;left:14%;top:30%""><img src=""square.png"" width=""306"" height=""306"" style=""position: fixed;left:64%;top:30%"">","null","","","","","","","","","","","","","","","","","","","","","","","","","","","","","","","","","","",""
"","","","","","html-keyboard-response","172","286924","0.0-6.0-2.51","A2WJMGV0HKQG3Z","2022-05-19T01:29:39.496Z","rhyme-phon_sim-same_different-task_switching","","3045.10000000149","rhyme","<div style=""border: 3px solid #000000; position: fixed;left:14%;top:30%""><img src=""visual/fan.png"" width=""300""></div><div style=""border: 3px solid #000000; position: fixed;left:64%;top:30%""><img src=""visual/man.png"" width=""300""></div>","arrowdown","","false","experiment","visual/fan.png","visual/man.png","ArrowUp","ortho","","","","","","","","","","","","","","","","","","","","","","","","","","","",""
"","","","","","html-keyboard-response","173","287931","0.0-6.0-0.52","A2WJMGV0HKQG3Z","2022-05-19T01:29:39.496Z","rhyme-phon_sim-same_different-task_switching","","null","rhyme","<div style=""font-size:60px;"">+</div>","null","1000","","","","","","","","","","","","","","","","","","","","","","","","","","","","","","","","","",""
"","","","","","html-keyboard-response","174","288441","0.0-6.0-1.52","A2WJMGV0HKQG3Z","2022-05-19T01:29:39.496Z","rhyme-phon_sim-same_different-task_switching","","null","rhyme","<img src=""square.png"" width=""306"" height=""306"" style=""position: fixed;left:14%;top:30%""><img src=""square.png"" width=""306"" height=""306"" style=""position: fixed;left:64%;top:30%"">","null","","","","","","","","","","","","","","","","","","","","","","","","","","","","","","","","","","",""
"","","","","","html-keyboard-response","175","289949","0.0-6.0-2.52","A2WJMGV0HKQG3Z","2022-05-19T01:29:39.496Z","rhyme-phon_sim-same_different-task_switching","","1499.8999999985099","rhyme","<div style=""border: 3px solid #000000; position: fixed;left:14%;top:30%""><img src=""visual/sock.png"" width=""300""></div><div style=""border: 3px solid #000000; position: fixed;left:64%;top:30%""><img src=""visual/clock.png"" width=""300""></div>","arrowup","","true","experiment","visual/sock.png","visual/clock.png","ArrowUp","ortho","","","","","","","","","","","","","","","","","","","","","","","","","","","",""
"","","","","","html-keyboard-response","176","290452","0.0-6.0-0.53","A2WJMGV0HKQG3Z","2022-05-19T01:29:39.496Z","rhyme-phon_sim-same_different-task_switching","","null","rhyme","<div style=""font-size:60px;"">+</div>","null","500","","","","","","","","","","","","","","","","","","","","","","","","","","","","","","","","","",""
"","","","","","html-keyboard-response","177","290960","0.0-6.0-1.53","A2WJMGV0HKQG3Z","2022-05-19T01:29:39.496Z","rhyme-phon_sim-same_different-task_switching","","null","rhyme","<img src=""square.png"" width=""306"" height=""306"" style=""position: fixed;left:14%;top:30%""><img src=""square.png"" width=""306"" height=""306"" style=""position: fixed;left:64%;top:30%"">","null","","","","","","","","","","","","","","","","","","","","","","","","","","","","","","","","","","",""
"","","","","","html-keyboard-response","178","292643","0.0-6.0-2.53","A2WJMGV0HKQG3Z","2022-05-19T01:29:39.496Z","rhyme-phon_sim-same_different-task_switching","","1669.9000000059605","rhyme","<div style=""border: 3px solid #000000; position: fixed;left:14%;top:30%""><img src=""visual/bear.png"" width=""300""></div><div style=""border: 3px solid #000000; position: fixed;left:64%;top:30%""><img src=""visual/hair.png"" width=""300""></div>","arrowup","","true","experiment","visual/bear.png","visual/hair.png","ArrowUp","non-ortho","","","","","","","","","","","","","","","","","","","","","","","","","","","",""
"","","","","","html-keyboard-response","179","293648","0.0-6.0-0.54","A2WJMGV0HKQG3Z","2022-05-19T01:29:39.496Z","rhyme-phon_sim-same_different-task_switching","","null","rhyme","<div style=""font-size:60px;"">+</div>","null","1000","","","","","","","","","","","","","","","","","","","","","","","","","","","","","","","","","",""
"","","","","","html-keyboard-response","180","294151","0.0-6.0-1.54","A2WJMGV0HKQG3Z","2022-05-19T01:29:39.496Z","rhyme-phon_sim-same_different-task_switching","","null","rhyme","<img src=""square.png"" width=""306"" height=""306"" style=""position: fixed;left:14%;top:30%""><img src=""square.png"" width=""306"" height=""306"" style=""position: fixed;left:64%;top:30%"">","null","","","","","","","","","","","","","","","","","","","","","","","","","","","","","","","","","","",""
"","","","","","html-keyboard-response","181","296104","0.0-6.0-2.54","A2WJMGV0HKQG3Z","2022-05-19T01:29:39.496Z","rhyme-phon_sim-same_different-task_switching","","1942.5","rhyme","<div style=""border: 3px solid #000000; position: fixed;left:14%;top:30%""><img src=""visual/shark.png"" width=""300""></div><div style=""border: 3px solid #000000; position: fixed;left:64%;top:30%""><img src=""visual/park.png"" width=""300""></div>","arrowdown","","false","experiment","visual/shark.png","visual/park.png","ArrowUp","ortho","","","","","","","","","","","","","","","","","","","","","","","","","","","",""
"","","","","","html-keyboard-response","182","297105","0.0-6.0-0.55","A2WJMGV0HKQG3Z","2022-05-19T01:29:39.496Z","rhyme-phon_sim-same_different-task_switching","","null","rhyme","<div style=""font-size:60px;"">+</div>","null","1000","","","","","","","","","","","","","","","","","","","","","","","","","","","","","","","","","",""
"","","","","","html-keyboard-response","183","297608","0.0-6.0-1.55","A2WJMGV0HKQG3Z","2022-05-19T01:29:39.496Z","rhyme-phon_sim-same_different-task_switching","","null","rhyme","<img src=""square.png"" width=""306"" height=""306"" style=""position: fixed;left:14%;top:30%""><img src=""square.png"" width=""306"" height=""306"" style=""position: fixed;left:64%;top:30%"">","null","","","","","","","","","","","","","","","","","","","","","","","","","","","","","","","","","","",""
"","","","","","html-keyboard-response","184","299986","0.0-6.0-2.55","A2WJMGV0HKQG3Z","2022-05-19T01:29:39.496Z","rhyme-phon_sim-same_different-task_switching","","2372.5","rhyme","<div style=""border: 3px solid #000000; position: fixed;left:14%;top:30%""><img src=""visual/nail.png"" width=""300""></div><div style=""border: 3px solid #000000; position: fixed;left:64%;top:30%""><img src=""visual/whale.png"" width=""300""></div>","arrowup","","true","experiment","visual/nail.png","visual/whale.png","ArrowUp","non-ortho","","","","","","","","","","","","","","","","","","","","","","","","","","","",""
"","","","","","html-keyboard-response","185","300740","0.0-6.0-0.56","A2WJMGV0HKQG3Z","2022-05-19T01:29:39.496Z","rhyme-phon_sim-same_different-task_switching","","null","rhyme","<div style=""font-size:60px;"">+</div>","null","750","","","","","","","","","","","","","","","","","","","","","","","","","","","","","","","","","",""
"","","","","","html-keyboard-response","186","301254","0.0-6.0-1.56","A2WJMGV0HKQG3Z","2022-05-19T01:29:39.496Z","rhyme-phon_sim-same_different-task_switching","","null","rhyme","<img src=""square.png"" width=""306"" height=""306"" style=""position: fixed;left:14%;top:30%""><img src=""square.png"" width=""306"" height=""306"" style=""position: fixed;left:64%;top:30%"">","null","","","","","","","","","","","","","","","","","","","","","","","","","","","","","","","","","","",""
"","","","","","html-keyboard-response","187","303108","0.0-6.0-2.56","A2WJMGV0HKQG3Z","2022-05-19T01:29:39.496Z","rhyme-phon_sim-same_different-task_switching","","1849.2000000029802","rhyme","<div style=""border: 3px solid #000000; position: fixed;left:14%;top:30%""><img src=""visual/wave.png"" width=""300""></div><div style=""border: 3px solid #000000; position: fixed;left:64%;top:30%""><img src=""visual/cave.png"" width=""300""></div>","arrowdown","","false","experiment","visual/wave.png","visual/cave.png","ArrowUp","ortho","","","","","","","","","","","","","","","","","","","","","","","","","","","",""
"","","","","","html-keyboard-response","188","303362","0.0-6.0-0.57","A2WJMGV0HKQG3Z","2022-05-19T01:29:39.496Z","rhyme-phon_sim-same_different-task_switching","","null","rhyme","<div style=""font-size:60px;"">+</div>","null","250","","","","","","","","","","","","","","","","","","","","","","","","","","","","","","","","","",""
"","","","","","html-keyboard-response","189","303872","0.0-6.0-1.57","A2WJMGV0HKQG3Z","2022-05-19T01:29:39.496Z","rhyme-phon_sim-same_different-task_switching","","null","rhyme","<img src=""square.png"" width=""306"" height=""306"" style=""position: fixed;left:14%;top:30%""><img src=""square.png"" width=""306"" height=""306"" style=""position: fixed;left:64%;top:30%"">","null","","","","","","","","","","","","","","","","","","","","","","","","","","","","","","","","","","",""
"","","","","","html-keyboard-response","190","305393","0.0-6.0-2.57","A2WJMGV0HKQG3Z","2022-05-19T01:29:39.496Z","rhyme-phon_sim-same_different-task_switching","","1512.2000000029802","rhyme","<div style=""border: 3px solid #000000; position: fixed;left:14%;top:30%""><img src=""visual/spoon.png"" width=""300""></div><div style=""border: 3px solid #000000; position: fixed;left:64%;top:30%""><img src=""visual/crab.png"" width=""300""></div>","arrowdown","","true","experiment","visual/spoon.png","visual/crab.png","ArrowDown","NR","","","","","","","","","","","","","","","","","","","","","","","","","","","",""
"","","","","","html-keyboard-response","191","305646","0.0-6.0-0.58","A2WJMGV0HKQG3Z","2022-05-19T01:29:39.496Z","rhyme-phon_sim-same_different-task_switching","","null","rhyme","<div style=""font-size:60px;"">+</div>","null","250","","","","","","","","","","","","","","","","","","","","","","","","","","","","","","","","","",""
"","","","","","html-keyboard-response","192","306152","0.0-6.0-1.58","A2WJMGV0HKQG3Z","2022-05-19T01:29:39.496Z","rhyme-phon_sim-same_different-task_switching","","null","rhyme","<img src=""square.png"" width=""306"" height=""306"" style=""position: fixed;left:14%;top:30%""><img src=""square.png"" width=""306"" height=""306"" style=""position: fixed;left:64%;top:30%"">","null","","","","","","","","","","","","","","","","","","","","","","","","","","","","","","","","","","",""
"","","","","","html-keyboard-response","193","307684","0.0-6.0-2.58","A2WJMGV0HKQG3Z","2022-05-19T01:29:39.496Z","rhyme-phon_sim-same_different-task_switching","","1528.5999999940395","rhyme","<div style=""border: 3px solid #000000; position: fixed;left:14%;top:30%""><img src=""visual/drum.png"" width=""300""></div><div style=""border: 3px solid #000000; position: fixed;left:64%;top:30%""><img src=""visual/thumb.png"" width=""300""></div>","arrowup","","true","experiment","visual/drum.png","visual/thumb.png","ArrowUp","non-ortho","","","","","","","","","","","","","","","","","","","","","","","","","","","",""
"","","","","","html-keyboard-response","194","308187","0.0-6.0-0.59","A2WJMGV0HKQG3Z","2022-05-19T01:29:39.496Z","rhyme-phon_sim-same_different-task_switching","","null","rhyme","<div style=""font-size:60px;"">+</div>","null","500","","","","","","","","","","","","","","","","","","","","","","","","","","","","","","","","","",""
"","","","","","html-keyboard-response","195","308692","0.0-6.0-1.59","A2WJMGV0HKQG3Z","2022-05-19T01:29:39.496Z","rhyme-phon_sim-same_different-task_switching","","null","rhyme","<img src=""square.png"" width=""306"" height=""306"" style=""position: fixed;left:14%;top:30%""><img src=""square.png"" width=""306"" height=""306"" style=""position: fixed;left:64%;top:30%"">","null","","","","","","","","","","","","","","","","","","","","","","","","","","","","","","","","","","",""
"","","","","","html-keyboard-response","196","310416","0.0-6.0-2.59","A2WJMGV0HKQG3Z","2022-05-19T01:29:39.496Z","rhyme-phon_sim-same_different-task_switching","","1720","rhyme","<div style=""border: 3px solid #000000; position: fixed;left:14%;top:30%""><img src=""visual/screw.png"" width=""300""></div><div style=""border: 3px solid #000000; position: fixed;left:64%;top:30%""><img src=""visual/shoe.png"" width=""300""></div>","arrowdown","","false","experiment","visual/screw.png","visual/shoe.png","ArrowUp","non-ortho","","","","","","","","","","","","","","","","","","","","","","","","","","","",""
"","","","","","survey-multi-choice","197","315866","0.0-7.0","A2WJMGV0HKQG3Z","2022-05-19T01:29:39.496Z","rhyme-phon_sim-same_different-task_switching","","5444.60000000149","rhyme","","{""Q0"":""Yes""}","","","","","","","","[0]","Yes","","","","","","","","","","","","","","","","","","","","","","","","","",""
"","","","","","survey-text","198","324289","0.0-8.0","A2WJMGV0HKQG3Z","2022-05-19T01:29:39.496Z","rhyme-phon_sim-same_different-task_switching","","8391.70000000298","rhyme","","{""Q0"":""nothing""}","","","","","","","","","","nothing","","","","","","","","","","","","","","","","","","","","","","","","",""
"","","","","","instructions","199","326450","0.0-9.0","A2WJMGV0HKQG3Z","2022-05-19T01:29:39.496Z","rhyme-phon_sim-same_different-task_switching","[{""page_index"":0,""viewing_time"":2155.1999999955297}]","2156.5","rhyme","","","","","","","","","","","","","","","","","","","","","","","","","","","","","","","","","","","","",""
"","","","","","instructions","200","360342","0.0-10.0","A2WJMGV0HKQG3Z","2022-05-19T01:29:39.496Z","rhyme-phon_sim-same_different-task_switching","[{""page_index"":0,""viewing_time"":33889}]","33890.5","phon_sim","","","","","","","","","","","","","","","","","","","","","","","","","","","","","","","","","","","","",""
"","","","","","html-keyboard-response","201","373351","0.0-11.0-0.0","A2WJMGV0HKQG3Z","2022-05-19T01:29:39.496Z","rhyme-phon_sim-same_different-task_switching","","null","phon_sim","<div style=""display:grid""><h1 id=""word_1"" style=""grid-column:1; grid-row:1"">mad</h1><h1 id=""word_2"" style=""visibility:hidden;grid-column:1; grid-row:1"">man</h1><h1 id=""word_3"" style=""visibility:hidden;grid-column:1; grid-row:1"">map</h1><h1 id=""word_4"" style=""visibility:hidden;grid-column:1; grid-row:1"">mat</h1><h1 id=""word_5"" style=""visibility:hidden;grid-column:1; grid-row:1"">max</h1></div>","null","","","training","","","","","","","","mad","man","map","mat","max","training","","","","","","","","","","","","","","","","","","",""
"","","","","","survey-text","202","400296","0.0-11.0-1.0","A2WJMGV0HKQG3Z","2022-05-19T01:29:39.496Z","rhyme-phon_sim-same_different-task_switching","","26926.09999999404","phon_sim","","{""position_1"":""mad "",""position_2"":""man"",""position_3"":""map"",""position_4"":""mat"",""position_5"":""max""}","","","training","","","","","","","","","","","","","","mad ","man","map","mat","max","","","","","","","","","","","","","",""
"","","","","","html-keyboard-response","203","405308","0.0-11.0-2.0","A2WJMGV0HKQG3Z","2022-05-19T01:29:39.496Z","rhyme-phon_sim-same_different-task_switching","","null","phon_sim","<h1 id=""word_1"">mad</h1><h1 id=""word_2"">man</h1><h1 id=""word_3"">map</h1><h1 id=""word_4"">mat</h1><h1 id=""word_5"">max</h1>","null","","","","","","","","","","","","","","","","","","","","","","","","","","","","","","","","","","",""
"","","","","","html-keyboard-response","204","418321","0.0-11.0-0.1","A2WJMGV0HKQG3Z","2022-05-19T01:29:39.496Z","rhyme-phon_sim-same_different-task_switching","","null","phon_sim","<div style=""display:grid""><h1 id=""word_1"" style=""grid-column:1; grid-row:1"">pen</h1><h1 id=""word_2"" style=""visibility:hidden;grid-column:1; grid-row:1"">rig</h1><h1 id=""word_3"" style=""visibility:hidden;grid-column:1; grid-row:1"">day</h1><h1 id=""word_4"" style=""visibility:hidden;grid-column:1; grid-row:1"">bar</h1><h1 id=""word_5"" style=""visibility:hidden;grid-column:1; grid-row:1"">cow</h1></div>","null","","","training","","","","","","","","pen","rig","day","bar","cow","training","","","","","","","","","","","","","","","","","","",""
"","","","","","survey-text","205","446724","0.0-11.0-1.1","A2WJMGV0HKQG3Z","2022-05-19T01:29:39.496Z","rhyme-phon_sim-same_different-task_switching","","28380.5","phon_sim","","{""position_1"":""pen"",""position_2"":""rig"",""position_3"":""day"",""position_4"":""bar"",""position_5"":""cow""}","","","training","","","","","","","","","","","","","","pen","rig","day","bar","cow","","","","","","","","","","","","","",""
"","","","","","html-keyboard-response","206","451730","0.0-11.0-2.1","A2WJMGV0HKQG3Z","2022-05-19T01:29:39.496Z","rhyme-phon_sim-same_different-task_switching","","null","phon_sim","<h1 id=""word_1"">pen</h1><h1 id=""word_2"">rig</h1><h1 id=""word_3"">day</h1><h1 id=""word_4"">bar</h1><h1 id=""word_5"">cow</h1>","null","","","","","","","","","","","","","","","","","","","","","","","","","","","","","","","","","","",""
"","","","","","instructions","207","455612","0.0-12.0","A2WJMGV0HKQG3Z","2022-05-19T01:29:39.496Z","rhyme-phon_sim-same_different-task_switching","[{""page_index"":0,""viewing_time"":3877.89999999851}]","3880.2999999970198","","","","","","","","","","","","","","","","","","","","","","","","","","","","","","","","","","","","","",""
"","","","","","html-keyboard-response","208","468621","0.0-13.0-0.0","A2WJMGV0HKQG3Z","2022-05-19T01:29:39.496Z","rhyme-phon_sim-same_different-task_switching","","null","phon_sim","<div style=""display:grid""><h1 id=""word_1"" style=""grid-column:1; grid-row:1"">friend</h1><h1 id=""word_2"" style=""visibility:hidden;grid-column:1; grid-row:1"">sleigh</h1><h1 id=""word_3"" style=""visibility:hidden;grid-column:1; grid-row:1"">plea</h1><h1 id=""word_4"" style=""visibility:hidden;grid-column:1; grid-row:1"">board</h1><h1 id=""word_5"" style=""visibility:hidden;grid-column:1; grid-row:1"">row</h1></div>","null","","","experiment","","","","","","","","friend","sleigh","plea","board","row","controlSet","","","","","","","","","","","","","","","","","","",""
