"success","timeout","failed_images","failed_audio","failed_video","trial_type","trial_index","time_elapsed","internal_node_id","worker_id","start_time","experiment_order","view_history","rt","experiment","response","phase","stimulus","condition","answer","correct","operation","color_cue","trial_no","symbol_cue","question_order","talk_out_loud","strategy_free_ans","word_1","word_2","word_3","word_4","word_5","original_word_set","response_1","response_2","response_3","response_4","response_5","judgment_type","stim_1","stim_2","inverted","true_pos","true_neg","wait_time","image_1","image_2","cor_key","type"
"true","false","[]","[]","[]","preload","0","3258","0.0-0.0","A12HZGOZQD5YK7","2022-05-31T13:49:12.679Z","task_switching-phon_sim-same_different-rhyme","","","","","","","","","","","","","","","","","","","","","","","","","","","","","","","","","","","","","",""
"","","","","","instructions","1","23621","0.0-1.0","A12HZGOZQD5YK7","2022-05-31T13:49:12.679Z","task_switching-phon_sim-same_different-rhyme","[{""page_index"":0,""viewing_time"":20361.299999952316}]","20361.5","","","","","","","","","","","","","","","","","","","","","","","","","","","","","","","","","","","",""
"true","","","","","fullscreen","2","33667","0.0-2.0","A12HZGOZQD5YK7","2022-05-31T13:49:12.679Z","task_switching-phon_sim-same_different-rhyme","","","","","","","","","","","","","","","","","","","","","","","","","","","","","","","","","","","","","",""
"","","","","","instructions","3","88492","0.0-3.0","A12HZGOZQD5YK7","2022-05-31T13:49:12.679Z","task_switching-phon_sim-same_different-rhyme","[{""page_index"":0,""viewing_time"":54825.40000009537}]","54825.60000002384","task_switching","","","","","","","","","","","","","","","","","","","","","","","","","","","","","","","","","","",""
"","","","","","instructions","4","99970","0.0-4.0","A12HZGOZQD5YK7","2022-05-31T13:49:12.679Z","task_switching-phon_sim-same_different-rhyme","[{""page_index"":0,""viewing_time"":11477.100000023842}]","11477.199999928474","task_switching","","","","","","","","","","","","","","","","","","","","","","","","","","","","","","","","","","",""
"","","","","","survey-text","5","101866","0.0-5.0","A12HZGOZQD5YK7","2022-05-31T13:49:12.679Z","task_switching-phon_sim-same_different-rhyme","","1891.6000000238419","task_switching","{""addition_ans"":""45""}","training","42","addition","45","true","add","","","","","","","","","","","","","","","","","","","","","","","","","","","",""
"","","","","","html-keyboard-response","6","102877","0.0-6.0","A12HZGOZQD5YK7","2022-05-31T13:49:12.679Z","task_switching-phon_sim-same_different-rhyme","","null","task_switching","null","training","<div style=""color:darkgreen; font-size:60px"">Well done!</div>","addition","","","","","","","","","","","","","","","","","","","","","","","","","","","","","","",""
"","","","","","survey-text","7","105106","0.0-7.0","A12HZGOZQD5YK7","2022-05-31T13:49:12.679Z","task_switching-phon_sim-same_different-rhyme","","2224.600000023842","task_switching","{""addition_ans"":""89""}","training","86","addition","89","true","add","","","","","","","","","","","","","","","","","","","","","","","","","","","",""
"","","","","","html-keyboard-response","8","106108","0.0-8.0","A12HZGOZQD5YK7","2022-05-31T13:49:12.679Z","task_switching-phon_sim-same_different-rhyme","","null","task_switching","null","training","<div style=""color:darkgreen; font-size:60px"">Well done!</div>","addition","","","","","","","","","","","","","","","","","","","","","","","","","","","","","","",""
"","","","","","survey-text","9","107133","0.0-9.0","A12HZGOZQD5YK7","2022-05-31T13:49:12.679Z","task_switching-phon_sim-same_different-rhyme","","1022.7999999523163","task_switching","{""addition_ans"":""13""}","training","10","addition","13","true","add","","","","","","","","","","","","","","","","","","","","","","","","","","","",""
"","","","","","html-keyboard-response","10","108143","0.0-10.0","A12HZGOZQD5YK7","2022-05-31T13:49:12.679Z","task_switching-phon_sim-same_different-rhyme","","null","task_switching","null","training","<div style=""color:darkgreen; font-size:60px"">Well done!</div>","addition","","","","","","","","","","","","","","","","","","","","","","","","","","","","","","",""
"","","","","","survey-text","11","109616","0.0-11.0","A12HZGOZQD5YK7","2022-05-31T13:49:12.679Z","task_switching-phon_sim-same_different-rhyme","","1470","task_switching","{""addition_ans"":""78""}","training","75","addition","78","true","add","","","","","","","","","","","","","","","","","","","","","","","","","","","",""
"","","","","","html-keyboard-response","12","110617","0.0-12.0","A12HZGOZQD5YK7","2022-05-31T13:49:12.679Z","task_switching-phon_sim-same_different-rhyme","","null","task_switching","null","training","<div style=""color:darkgreen; font-size:60px"">Well done!</div>","addition","","","","","","","","","","","","","","","","","","","","","","","","","","","","","","",""
"","","","","","survey-text","13","112098","0.0-13.0","A12HZGOZQD5YK7","2022-05-31T13:49:12.679Z","task_switching-phon_sim-same_different-rhyme","","1479.7000000476837","task_switching","{""addition_ans"":""75""}","training","72","addition","75","true","add","","","","","","","","","","","","","","","","","","","","","","","","","","","",""
"","","","","","html-keyboard-response","14","113111","0.0-14.0","A12HZGOZQD5YK7","2022-05-31T13:49:12.679Z","task_switching-phon_sim-same_different-rhyme","","null","task_switching","null","training","<div style=""color:darkgreen; font-size:60px"">Well done!</div>","addition","","","","","","","","","","","","","","","","","","","","","","","","","","","","","","",""
"","","","","","survey-text","15","114574","0.0-15.0","A12HZGOZQD5YK7","2022-05-31T13:49:12.679Z","task_switching-phon_sim-same_different-rhyme","","1460.7999999523163","task_switching","{""addition_ans"":""88""}","training","85","addition","88","true","add","","","","","","","","","","","","","","","","","","","","","","","","","","","",""
"","","","","","html-keyboard-response","16","115590","0.0-16.0","A12HZGOZQD5YK7","2022-05-31T13:49:12.679Z","task_switching-phon_sim-same_different-rhyme","","null","task_switching","null","training","<div style=""color:darkgreen; font-size:60px"">Well done!</div>","addition","","","","","","","","","","","","","","","","","","","","","","","","","","","","","","",""
"","","","","","survey-text","17","117051","0.0-17.0","A12HZGOZQD5YK7","2022-05-31T13:49:12.679Z","task_switching-phon_sim-same_different-rhyme","","1458.6000000238419","task_switching","{""addition_ans"":""96""}","training","93","addition","96","true","add","","","","","","","","","","","","","","","","","","","","","","","","","","","",""
"","","","","","html-keyboard-response","18","118054","0.0-18.0","A12HZGOZQD5YK7","2022-05-31T13:49:12.679Z","task_switching-phon_sim-same_different-rhyme","","null","task_switching","null","training","<div style=""color:darkgreen; font-size:60px"">Well done!</div>","addition","","","","","","","","","","","","","","","","","","","","","","","","","","","","","","",""
"","","","","","survey-text","19","119490","0.0-19.0","A12HZGOZQD5YK7","2022-05-31T13:49:12.679Z","task_switching-phon_sim-same_different-rhyme","","1435.1000000238419","task_switching","{""addition_ans"":""19""}","training","16","addition","19","true","add","","","","","","","","","","","","","","","","","","","","","","","","","","","",""
"","","","","","html-keyboard-response","20","120506","0.0-20.0","A12HZGOZQD5YK7","2022-05-31T13:49:12.679Z","task_switching-phon_sim-same_different-rhyme","","null","task_switching","null","training","<div style=""color:darkgreen; font-size:60px"">Well done!</div>","addition","","","","","","","","","","","","","","","","","","","","","","","","","","","","","","",""
"","","","","","survey-text","21","124297","0.0-21.0","A12HZGOZQD5YK7","2022-05-31T13:49:12.679Z","task_switching-phon_sim-same_different-rhyme","","3789.100000023842","task_switching","{""addition_ans"":""72""}","training","69","addition","72","true","add","","","","","","","","","","","","","","","","","","","","","","","","","","","",""
"","","","","","html-keyboard-response","22","125313","0.0-22.0","A12HZGOZQD5YK7","2022-05-31T13:49:12.679Z","task_switching-phon_sim-same_different-rhyme","","null","task_switching","null","training","<div style=""color:darkgreen; font-size:60px"">Well done!</div>","addition","","","","","","","","","","","","","","","","","","","","","","","","","","","","","","",""
"","","","","","survey-text","23","128254","0.0-23.0","A12HZGOZQD5YK7","2022-05-31T13:49:12.679Z","task_switching-phon_sim-same_different-rhyme","","2938.6999999284744","task_switching","{""addition_ans"":""61""}","training","58","addition","61","true","add","","","","","","","","","","","","","","","","","","","","","","","","","","","",""
"","","","","","html-keyboard-response","24","129265","0.0-24.0","A12HZGOZQD5YK7","2022-05-31T13:49:12.679Z","task_switching-phon_sim-same_different-rhyme","","null","task_switching","null","training","<div style=""color:darkgreen; font-size:60px"">Well done!</div>","addition","","","","","","","","","","","","","","","","","","","","","","","","","","","","","","",""
"","","","","","instructions","25","132802","0.0-25.0","A12HZGOZQD5YK7","2022-05-31T13:49:12.679Z","task_switching-phon_sim-same_different-rhyme","[{""page_index"":0,""viewing_time"":3536.7999999523163}]","3536.899999976158","task_switching","","","","","","","","","","","","","","","","","","","","","","","","","","","","","","","","","","",""
"","","","","","survey-text","26","134276","0.0-26.0","A12HZGOZQD5YK7","2022-05-31T13:49:12.679Z","task_switching-phon_sim-same_different-rhyme","","1473.0999999046326","task_switching","{""addition_ans"":""75""}","experiment","72","addition","75","true","add","","","","","","","","","","","","","","","","","","","","","","","","","","","",""
"","","","","","survey-text","27","135565","0.0-27.0","A12HZGOZQD5YK7","2022-05-31T13:49:12.679Z","task_switching-phon_sim-same_different-rhyme","","1287.2000000476837","task_switching","{""addition_ans"":""19""}","experiment","16","addition","19","true","add","","","","","","","","","","","","","","","","","","","","","","","","","","","",""
"","","","","","survey-text","28","137082","0.0-28.0","A12HZGOZQD5YK7","2022-05-31T13:49:12.679Z","task_switching-phon_sim-same_different-rhyme","","1515.8999999761581","task_switching","{""addition_ans"":""97""}","experiment","94","addition","97","true","add","","","","","","","","","","","","","","","","","","","","","","","","","","","",""
"","","","","","survey-text","29","140291","0.0-29.0","A12HZGOZQD5YK7","2022-05-31T13:49:12.679Z","task_switching-phon_sim-same_different-rhyme","","3207.5999999046326","task_switching","{""addition_ans"":""42""}","experiment","39","addition","42","true","add","","","","","","","","","","","","","","","","","","","","","","","","","","","",""
"","","","","","survey-text","30","142060","0.0-30.0","A12HZGOZQD5YK7","2022-05-31T13:49:12.679Z","task_switching-phon_sim-same_different-rhyme","","1766.7999999523163","task_switching","{""addition_ans"":""68""}","experiment","65","addition","68","true","add","","","","","","","","","","","","","","","","","","","","","","","","","","","",""
"","","","","","survey-text","31","143674","0.0-31.0","A12HZGOZQD5YK7","2022-05-31T13:49:12.679Z","task_switching-phon_sim-same_different-rhyme","","1611.3999999761581","task_switching","{""addition_ans"":""86""}","experiment","83","addition","86","true","add","","","","","","","","","","","","","","","","","","","","","","","","","","","",""
"","","","","","survey-text","32","145123","0.0-32.0","A12HZGOZQD5YK7","2022-05-31T13:49:12.679Z","task_switching-phon_sim-same_different-rhyme","","1446.7999999523163","task_switching","{""addition_ans"":""34""}","experiment","31","addition","34","true","add","","","","","","","","","","","","","","","","","","","","","","","","","","","",""
"","","","","","survey-text","33","146456","0.0-33.0","A12HZGOZQD5YK7","2022-05-31T13:49:12.679Z","task_switching-phon_sim-same_different-rhyme","","1332.1000000238419","task_switching","{""addition_ans"":""94""}","experiment","91","addition","94","true","add","","","","","","","","","","","","","","","","","","","","","","","","","","","",""
"","","","","","survey-text","34","147743","0.0-34.0","A12HZGOZQD5YK7","2022-05-31T13:49:12.679Z","task_switching-phon_sim-same_different-rhyme","","1285.2999999523163","task_switching","{""addition_ans"":""23""}","experiment","20","addition","23","true","add","","","","","","","","","","","","","","","","","","","","","","","","","","","",""
"","","","","","survey-text","35","149425","0.0-35.0","A12HZGOZQD5YK7","2022-05-31T13:49:12.679Z","task_switching-phon_sim-same_different-rhyme","","1681.3999999761581","task_switching","{""addition_ans"":""60""}","experiment","57","addition","60","true","add","","","","","","","","","","","","","","","","","","","","","","","","","","","",""
"","","","","","survey-text","36","150700","0.0-36.0","A12HZGOZQD5YK7","2022-05-31T13:49:12.679Z","task_switching-phon_sim-same_different-rhyme","","1272.0999999046326","task_switching","{""addition_ans"":""55""}","experiment","52","addition","55","true","add","","","","","","","","","","","","","","","","","","","","","","","","","","","",""
"","","","","","survey-text","37","152017","0.0-37.0","A12HZGOZQD5YK7","2022-05-31T13:49:12.679Z","task_switching-phon_sim-same_different-rhyme","","1315.3999999761581","task_switching","{""addition_ans"":""67""}","experiment","64","addition","67","true","add","","","","","","","","","","","","","","","","","","","","","","","","","","","",""
"","","","","","survey-text","38","153176","0.0-38.0","A12HZGOZQD5YK7","2022-05-31T13:49:12.679Z","task_switching-phon_sim-same_different-rhyme","","1158","task_switching","{""addition_ans"":""93""}","experiment","90","addition","93","true","add","","","","","","","","","","","","","","","","","","","","","","","","","","","",""
"","","","","","survey-text","39","154248","0.0-39.0","A12HZGOZQD5YK7","2022-05-31T13:49:12.679Z","task_switching-phon_sim-same_different-rhyme","","1070.2000000476837","task_switching","{""addition_ans"":""53""}","experiment","50","addition","53","true","add","","","","","","","","","","","","","","","","","","","","","","","","","","","",""
"","","","","","survey-text","40","155596","0.0-40.0","A12HZGOZQD5YK7","2022-05-31T13:49:12.679Z","task_switching-phon_sim-same_different-rhyme","","1345.3999999761581","task_switching","{""addition_ans"":""26""}","experiment","23","addition","26","true","add","","","","","","","","","","","","","","","","","","","","","","","","","","","",""
"","","","","","survey-text","41","157600","0.0-41.0","A12HZGOZQD5YK7","2022-05-31T13:49:12.679Z","task_switching-phon_sim-same_different-rhyme","","2002","task_switching","{""addition_ans"":""24""}","experiment","21","addition","24","true","add","","","","","","","","","","","","","","","","","","","","","","","","","","","",""
"","","","","","survey-text","42","159963","0.0-42.0","A12HZGOZQD5YK7","2022-05-31T13:49:12.679Z","task_switching-phon_sim-same_different-rhyme","","2360.8000000715256","task_switching","{""addition_ans"":""71""}","experiment","68","addition","71","true","add","","","","","","","","","","","","","","","","","","","","","","","","","","","",""
"","","","","","survey-text","43","162580","0.0-43.0","A12HZGOZQD5YK7","2022-05-31T13:49:12.679Z","task_switching-phon_sim-same_different-rhyme","","2615.600000023842","task_switching","{""addition_ans"":""51""}","experiment","48","addition","51","true","add","","","","","","","","","","","","","","","","","","","","","","","","","","","",""
"","","","","","survey-text","44","164097","0.0-44.0","A12HZGOZQD5YK7","2022-05-31T13:49:12.679Z","task_switching-phon_sim-same_different-rhyme","","1515.7999999523163","task_switching","{""addition_ans"":""33""}","experiment","30","addition","33","true","add","","","","","","","","","","","","","","","","","","","","","","","","","","","",""
"","","","","","survey-text","45","165253","0.0-45.0","A12HZGOZQD5YK7","2022-05-31T13:49:12.679Z","task_switching-phon_sim-same_different-rhyme","","1154.1000000238419","task_switching","{""addition_ans"":""36""}","experiment","33","addition","36","true","add","","","","","","","","","","","","","","","","","","","","","","","","","","","",""
"","","","","","survey-text","46","166413","0.0-46.0","A12HZGOZQD5YK7","2022-05-31T13:49:12.679Z","task_switching-phon_sim-same_different-rhyme","","1159.1999999284744","task_switching","{""addition_ans"":""45""}","experiment","42","addition","45","true","add","","","","","","","","","","","","","","","","","","","","","","","","","","","",""
"","","","","","survey-text","47","167796","0.0-47.0","A12HZGOZQD5YK7","2022-05-31T13:49:12.679Z","task_switching-phon_sim-same_different-rhyme","","1379.8999999761581","task_switching","{""addition_ans"":""88""}","experiment","85","addition","88","true","add","","","","","","","","","","","","","","","","","","","","","","","","","","","",""
"","","","","","survey-text","48","169048","0.0-48.0","A12HZGOZQD5YK7","2022-05-31T13:49:12.679Z","task_switching-phon_sim-same_different-rhyme","","1249.6000000238419","task_switching","{""addition_ans"":""96""}","experiment","93","addition","96","true","add","","","","","","","","","","","","","","","","","","","","","","","","","","","",""
"","","","","","survey-text","49","171255","0.0-49.0","A12HZGOZQD5YK7","2022-05-31T13:49:12.679Z","task_switching-phon_sim-same_different-rhyme","","2205.5","task_switching","{""addition_ans"":""62""}","experiment","59","addition","62","true","add","","","","","","","","","","","","","","","","","","","","","","","","","","","",""
"","","","","","survey-text","50","172462","0.0-50.0","A12HZGOZQD5YK7","2022-05-31T13:49:12.679Z","task_switching-phon_sim-same_different-rhyme","","1205.3000000715256","task_switching","{""addition_ans"":""63""}","experiment","60","addition","63","true","add","","","","","","","","","","","","","","","","","","","","","","","","","","","",""
"","","","","","survey-text","51","173844","0.0-51.0","A12HZGOZQD5YK7","2022-05-31T13:49:12.679Z","task_switching-phon_sim-same_different-rhyme","","1380.3000000715256","task_switching","{""addition_ans"":""25""}","experiment","22","addition","25","true","add","","","","","","","","","","","","","","","","","","","","","","","","","","","",""
"","","","","","survey-text","52","175491","0.0-52.0","A12HZGOZQD5YK7","2022-05-31T13:49:12.679Z","task_switching-phon_sim-same_different-rhyme","","1645.3999999761581","task_switching","{""addition_ans"":""59""}","experiment","56","addition","59","true","add","","","","","","","","","","","","","","","","","","","","","","","","","","","",""
"","","","","","survey-text","53","176748","0.0-53.0","A12HZGOZQD5YK7","2022-05-31T13:49:12.679Z","task_switching-phon_sim-same_different-rhyme","","1254.2999999523163","task_switching","{""addition_ans"":""74""}","experiment","71","addition","74","true","add","","","","","","","","","","","","","","","","","","","","","","","","","","","",""
"","","","","","survey-text","54","178272","0.0-54.0","A12HZGOZQD5YK7","2022-05-31T13:49:12.679Z","task_switching-phon_sim-same_different-rhyme","","1522.3000000715256","task_switching","{""addition_ans"":""16""}","experiment","13","addition","16","true","add","","","","","","","","","","","","","","","","","","","","","","","","","","","",""
"","","","","","survey-text","55","180487","0.0-55.0","A12HZGOZQD5YK7","2022-05-31T13:49:12.679Z","task_switching-phon_sim-same_different-rhyme","","2211.600000023842","task_switching","{""addition_ans"":""44""}","experiment","41","addition","44","true","add","","","","","","","","","","","","","","","","","","","","","","","","","","","",""
"","","","","","instructions","56","184409","0.0-56.0","A12HZGOZQD5YK7","2022-05-31T13:49:12.679Z","task_switching-phon_sim-same_different-rhyme","[{""page_index"":0,""viewing_time"":3920.899999976158}]","3921.1999999284744","task_switching","","","","","","","","","","","","","","","","","","","","","","","","","","","","","","","","","","",""
"","","","","","survey-text","57","186084","0.0-57.0","A12HZGOZQD5YK7","2022-05-31T13:49:12.679Z","task_switching-phon_sim-same_different-rhyme","","1673","task_switching","{""subtraction_ans"":""36""}","training","39","subtraction","36","true","subtract","","","","","","","","","","","","","","","","","","","","","","","","","","","",""
"","","","","","html-keyboard-response","58","187087","0.0-58.0","A12HZGOZQD5YK7","2022-05-31T13:49:12.679Z","task_switching-phon_sim-same_different-rhyme","","null","task_switching","null","training","<div style=""color:darkgreen; font-size:60px"">Well done!</div>","subtraction","","","","","","","","","","","","","","","","","","","","","","","","","","","","","","",""
"","","","","","survey-text","59","189775","0.0-59.0","A12HZGOZQD5YK7","2022-05-31T13:49:12.679Z","task_switching-phon_sim-same_different-rhyme","","2684.899999976158","task_switching","{""subtraction_ans"":""68""}","training","71","subtraction","68","true","subtract","","","","","","","","","","","","","","","","","","","","","","","","","","","",""
"","","","","","html-keyboard-response","60","190778","0.0-60.0","A12HZGOZQD5YK7","2022-05-31T13:49:12.679Z","task_switching-phon_sim-same_different-rhyme","","null","task_switching","null","training","<div style=""color:darkgreen; font-size:60px"">Well done!</div>","subtraction","","","","","","","","","","","","","","","","","","","","","","","","","","","","","","",""
"","","","","","survey-text","61","192203","0.0-61.0","A12HZGOZQD5YK7","2022-05-31T13:49:12.679Z","task_switching-phon_sim-same_different-rhyme","","1422.5","task_switching","{""subtraction_ans"":""91""}","training","94","subtraction","91","true","subtract","","","","","","","","","","","","","","","","","","","","","","","","","","","",""
"","","","","","html-keyboard-response","62","193214","0.0-62.0","A12HZGOZQD5YK7","2022-05-31T13:49:12.679Z","task_switching-phon_sim-same_different-rhyme","","null","task_switching","null","training","<div style=""color:darkgreen; font-size:60px"">Well done!</div>","subtraction","","","","","","","","","","","","","","","","","","","","","","","","","","","","","","",""
"","","","","","survey-text","63","194436","0.0-63.0","A12HZGOZQD5YK7","2022-05-31T13:49:12.679Z","task_switching-phon_sim-same_different-rhyme","","1218.9000000953674","task_switching","{""subtraction_ans"":""70""}","training","73","subtraction","70","true","subtract","","","","","","","","","","","","","","","","","","","","","","","","","","","",""
"","","","","","html-keyboard-response","64","195446","0.0-64.0","A12HZGOZQD5YK7","2022-05-31T13:49:12.679Z","task_switching-phon_sim-same_different-rhyme","","null","task_switching","null","training","<div style=""color:darkgreen; font-size:60px"">Well done!</div>","subtraction","","","","","","","","","","","","","","","","","","","","","","","","","","","","","","",""
"","","","","","survey-text","65","196552","0.0-65.0","A12HZGOZQD5YK7","2022-05-31T13:49:12.679Z","task_switching-phon_sim-same_different-rhyme","","1103.8999999761581","task_switching","{""subtraction_ans"":""75""}","training","78","subtraction","75","true","subtract","","","","","","","","","","","","","","","","","","","","","","","","","","","",""
"","","","","","html-keyboard-response","66","197564","0.0-66.0","A12HZGOZQD5YK7","2022-05-31T13:49:12.679Z","task_switching-phon_sim-same_different-rhyme","","null","task_switching","null","training","<div style=""color:darkgreen; font-size:60px"">Well done!</div>","subtraction","","","","","","","","","","","","","","","","","","","","","","","","","","","","","","",""
"","","","","","survey-text","67","198875","0.0-67.0","A12HZGOZQD5YK7","2022-05-31T13:49:12.679Z","task_switching-phon_sim-same_different-rhyme","","1309.6000000238419","task_switching","{""subtraction_ans"":""22""}","training","25","subtraction","22","true","subtract","","","","","","","","","","","","","","","","","","","","","","","","","","","",""
"","","","","","html-keyboard-response","68","199879","0.0-68.0","A12HZGOZQD5YK7","2022-05-31T13:49:12.679Z","task_switching-phon_sim-same_different-rhyme","","null","task_switching","null","training","<div style=""color:darkgreen; font-size:60px"">Well done!</div>","subtraction","","","","","","","","","","","","","","","","","","","","","","","","","","","","","","",""
"","","","","","survey-text","69","201337","0.0-69.0","A12HZGOZQD5YK7","2022-05-31T13:49:12.679Z","task_switching-phon_sim-same_different-rhyme","","1457.1999999284744","task_switching","{""subtraction_ans"":""76""}","training","79","subtraction","76","true","subtract","","","","","","","","","","","","","","","","","","","","","","","","","","","",""
"","","","","","html-keyboard-response","70","202350","0.0-70.0","A12HZGOZQD5YK7","2022-05-31T13:49:12.679Z","task_switching-phon_sim-same_different-rhyme","","null","task_switching","null","training","<div style=""color:darkgreen; font-size:60px"">Well done!</div>","subtraction","","","","","","","","","","","","","","","","","","","","","","","","","","","","","","",""
"","","","","","survey-text","71","204083","0.0-71.0","A12HZGOZQD5YK7","2022-05-31T13:49:12.679Z","task_switching-phon_sim-same_different-rhyme","","1730.1000000238419","task_switching","{""subtraction_ans"":""77""}","training","80","subtraction","77","true","subtract","","","","","","","","","","","","","","","","","","","","","","","","","","","",""
"","","","","","html-keyboard-response","72","205085","0.0-72.0","A12HZGOZQD5YK7","2022-05-31T13:49:12.679Z","task_switching-phon_sim-same_different-rhyme","","null","task_switching","null","training","<div style=""color:darkgreen; font-size:60px"">Well done!</div>","subtraction","","","","","","","","","","","","","","","","","","","","","","","","","","","","","","",""
"","","","","","survey-text","73","206681","0.0-73.0","A12HZGOZQD5YK7","2022-05-31T13:49:12.679Z","task_switching-phon_sim-same_different-rhyme","","1593.8999999761581","task_switching","{""subtraction_ans"":""59""}","training","62","subtraction","59","true","subtract","","","","","","","","","","","","","","","","","","","","","","","","","","","",""
"","","","","","html-keyboard-response","74","207691","0.0-74.0","A12HZGOZQD5YK7","2022-05-31T13:49:12.679Z","task_switching-phon_sim-same_different-rhyme","","null","task_switching","null","training","<div style=""color:darkgreen; font-size:60px"">Well done!</div>","subtraction","","","","","","","","","","","","","","","","","","","","","","","","","","","","","","",""
"","","","","","survey-text","75","209093","0.0-75.0","A12HZGOZQD5YK7","2022-05-31T13:49:12.679Z","task_switching-phon_sim-same_different-rhyme","","1398.4000000953674","task_switching","{""subtraction_ans"":""13""}","training","16","subtraction","13","true","subtract","","","","","","","","","","","","","","","","","","","","","","","","","","","",""
"","","","","","html-keyboard-response","76","210094","0.0-76.0","A12HZGOZQD5YK7","2022-05-31T13:49:12.679Z","task_switching-phon_sim-same_different-rhyme","","null","task_switching","null","training","<div style=""color:darkgreen; font-size:60px"">Well done!</div>","subtraction","","","","","","","","","","","","","","","","","","","","","","","","","","","","","","",""
"","","","","","instructions","77","212548","0.0-77.0","A12HZGOZQD5YK7","2022-05-31T13:49:12.679Z","task_switching-phon_sim-same_different-rhyme","[{""page_index"":0,""viewing_time"":2453.6999999284744}]","2453.899999976158","task_switching","","","","","","","","","","","","","","","","","","","","","","","","","","","","","","","","","","",""
"","","","","","survey-text","78","214862","0.0-78.0","A12HZGOZQD5YK7","2022-05-31T13:49:12.679Z","task_switching-phon_sim-same_different-rhyme","","2312.399999976158","task_switching","{""subtraction_ans"":""69""}","experiment","72","subtraction","69","true","subtract","","","","","","","","","","","","","","","","","","","","","","","","","","","",""
"","","","","","survey-text","79","216168","0.0-79.0","A12HZGOZQD5YK7","2022-05-31T13:49:12.679Z","task_switching-phon_sim-same_different-rhyme","","1304.3999999761581","task_switching","{""subtraction_ans"":""75""}","experiment","78","subtraction","75","true","subtract","","","","","","","","","","","","","","","","","","","","","","","","","","","",""
"","","","","","survey-text","80","217903","0.0-80.0","A12HZGOZQD5YK7","2022-05-31T13:49:12.679Z","task_switching-phon_sim-same_different-rhyme","","1733","task_switching","{""subtraction_ans"":""15""}","experiment","18","subtraction","15","true","subtract","","","","","","","","","","","","","","","","","","","","","","","","","","","",""
"","","","","","survey-text","81","219426","0.0-81.0","A12HZGOZQD5YK7","2022-05-31T13:49:12.679Z","task_switching-phon_sim-same_different-rhyme","","1521.3999999761581","task_switching","{""subtraction_ans"":""52""}","experiment","55","subtraction","52","true","subtract","","","","","","","","","","","","","","","","","","","","","","","","","","","",""
"","","","","","survey-text","82","221128","0.0-82.0","A12HZGOZQD5YK7","2022-05-31T13:49:12.679Z","task_switching-phon_sim-same_different-rhyme","","1700.3999999761581","task_switching","{""subtraction_ans"":""93""}","experiment","96","subtraction","93","true","subtract","","","","","","","","","","","","","","","","","","","","","","","","","","","",""
"","","","","","survey-text","83","222403","0.0-83.0","A12HZGOZQD5YK7","2022-05-31T13:49:12.679Z","task_switching-phon_sim-same_different-rhyme","","1273.1999999284744","task_switching","{""subtraction_ans"":""21""}","experiment","24","subtraction","21","true","subtract","","","","","","","","","","","","","","","","","","","","","","","","","","","",""
"","","","","","survey-text","84","224009","0.0-84.0","A12HZGOZQD5YK7","2022-05-31T13:49:12.679Z","task_switching-phon_sim-same_different-rhyme","","1605.1000000238419","task_switching","{""subtraction_ans"":""64""}","experiment","67","subtraction","64","true","subtract","","","","","","","","","","","","","","","","","","","","","","","","","","","",""
"","","","","","survey-text","85","226462","0.0-85.0","A12HZGOZQD5YK7","2022-05-31T13:49:12.679Z","task_switching-phon_sim-same_different-rhyme","","2451.3000000715256","task_switching","{""subtraction_ans"":""88""}","experiment","91","subtraction","88","true","subtract","","","","","","","","","","","","","","","","","","","","","","","","","","","",""
"","","","","","survey-text","86","228418","0.0-86.0","A12HZGOZQD5YK7","2022-05-31T13:49:12.679Z","task_switching-phon_sim-same_different-rhyme","","1953.8999999761581","task_switching","{""subtraction_ans"":""10""}","experiment","13","subtraction","10","true","subtract","","","","","","","","","","","","","","","","","","","","","","","","","","","",""
"","","","","","survey-text","87","229558","0.0-87.0","A12HZGOZQD5YK7","2022-05-31T13:49:12.679Z","task_switching-phon_sim-same_different-rhyme","","1137.5","task_switching","{""subtraction_ans"":""80""}","experiment","83","subtraction","80","true","subtract","","","","","","","","","","","","","","","","","","","","","","","","","","","",""
"","","","","","survey-text","88","230764","0.0-88.0","A12HZGOZQD5YK7","2022-05-31T13:49:12.679Z","task_switching-phon_sim-same_different-rhyme","","1204.8999999761581","task_switching","{""subtraction_ans"":""61""}","experiment","64","subtraction","61","true","subtract","","","","","","","","","","","","","","","","","","","","","","","","","","","",""
"","","","","","survey-text","89","232264","0.0-89.0","A12HZGOZQD5YK7","2022-05-31T13:49:12.679Z","task_switching-phon_sim-same_different-rhyme","","1497.9000000953674","task_switching","{""subtraction_ans"":""73""}","experiment","80","subtraction","73","false","subtract","","","","","","","","","","","","","","","","","","","","","","","","","","","",""
"","","","","","survey-text","90","234620","0.0-90.0","A12HZGOZQD5YK7","2022-05-31T13:49:12.679Z","task_switching-phon_sim-same_different-rhyme","","2354.399999976158","task_switching","{""subtraction_ans"":""74""}","experiment","77","subtraction","74","true","subtract","","","","","","","","","","","","","","","","","","","","","","","","","","","",""
"","","","","","survey-text","91","236023","0.0-91.0","A12HZGOZQD5YK7","2022-05-31T13:49:12.679Z","task_switching-phon_sim-same_different-rhyme","","1401.8999999761581","task_switching","{""subtraction_ans"":""26""}","experiment","29","subtraction","26","true","subtract","","","","","","","","","","","","","","","","","","","","","","","","","","","",""
"","","","","","survey-text","92","237694","0.0-92.0","A12HZGOZQD5YK7","2022-05-31T13:49:12.679Z","task_switching-phon_sim-same_different-rhyme","","1669.6999999284744","task_switching","{""subtraction_ans"":""32""}","experiment","35","subtraction","32","true","subtract","","","","","","","","","","","","","","","","","","","","","","","","","","","",""
"","","","","","survey-text","93","239351","0.0-93.0","A12HZGOZQD5YK7","2022-05-31T13:49:12.679Z","task_switching-phon_sim-same_different-rhyme","","1656","task_switching","{""subtraction_ans"":""39""}","experiment","42","subtraction","39","true","subtract","","","","","","","","","","","","","","","","","","","","","","","","","","","",""
"","","","","","survey-text","94","241461","0.0-94.0","A12HZGOZQD5YK7","2022-05-31T13:49:12.679Z","task_switching-phon_sim-same_different-rhyme","","2108.2000000476837","task_switching","{""subtraction_ans"":""42""}","experiment","45","subtraction","42","true","subtract","","","","","","","","","","","","","","","","","","","","","","","","","","","",""
"","","","","","survey-text","95","242789","0.0-95.0","A12HZGOZQD5YK7","2022-05-31T13:49:12.679Z","task_switching-phon_sim-same_different-rhyme","","1327.6999999284744","task_switching","{""subtraction_ans"":""71""}","experiment","74","subtraction","71","true","subtract","","","","","","","","","","","","","","","","","","","","","","","","","","","",""
"","","","","","survey-text","96","244052","0.0-96.0","A12HZGOZQD5YK7","2022-05-31T13:49:12.679Z","task_switching-phon_sim-same_different-rhyme","","1261.1000000238419","task_switching","{""subtraction_ans"":""91""}","experiment","94","subtraction","91","true","subtract","","","","","","","","","","","","","","","","","","","","","","","","","","","",""
"","","","","","survey-text","97","245347","0.0-97.0","A12HZGOZQD5YK7","2022-05-31T13:49:12.679Z","task_switching-phon_sim-same_different-rhyme","","1293.2999999523163","task_switching","{""subtraction_ans"":""50""}","experiment","53","subtraction","50","true","subtract","","","","","","","","","","","","","","","","","","","","","","","","","","","",""
"","","","","","survey-text","98","248406","0.0-98.0","A12HZGOZQD5YK7","2022-05-31T13:49:12.679Z","task_switching-phon_sim-same_different-rhyme","","3057.7000000476837","task_switching","{""subtraction_ans"":""84""}","experiment","87","subtraction","84","true","subtract","","","","","","","","","","","","","","","","","","","","","","","","","","","",""
"","","","","","survey-text","99","250961","0.0-99.0","A12HZGOZQD5YK7","2022-05-31T13:49:12.679Z","task_switching-phon_sim-same_different-rhyme","","2554.100000023842","task_switching","{""subtraction_ans"":""36""}","experiment","39","subtraction","36","true","subtract","","","","","","","","","","","","","","","","","","","","","","","","","","","",""
"","","","","","survey-text","100","252710","0.0-100.0","A12HZGOZQD5YK7","2022-05-31T13:49:12.679Z","task_switching-phon_sim-same_different-rhyme","","1747","task_switching","{""subtraction_ans"":""76""}","experiment","79","subtraction","76","true","subtract","","","","","","","","","","","","","","","","","","","","","","","","","","","",""
"","","","","","survey-text","101","255078","0.0-101.0","A12HZGOZQD5YK7","2022-05-31T13:49:12.679Z","task_switching-phon_sim-same_different-rhyme","","2366","task_switching","{""subtraction_ans"":""48""}","experiment","51","subtraction","48","true","subtract","","","","","","","","","","","","","","","","","","","","","","","","","","","",""
"","","","","","survey-text","102","258002","0.0-102.0","A12HZGOZQD5YK7","2022-05-31T13:49:12.679Z","task_switching-phon_sim-same_different-rhyme","","2922.2000000476837","task_switching","{""subtraction_ans"":""47""}","experiment","50","subtraction","47","true","subtract","","","","","","","","","","","","","","","","","","","","","","","","","","","",""
"","","","","","survey-text","103","260114","0.0-103.0","A12HZGOZQD5YK7","2022-05-31T13:49:12.679Z","task_switching-phon_sim-same_different-rhyme","","2110.8000000715256","task_switching","{""subtraction_ans"":""82""}","experiment","85","subtraction","82","true","subtract","","","","","","","","","","","","","","","","","","","","","","","","","","","",""
"","","","","","survey-text","104","261314","0.0-104.0","A12HZGOZQD5YK7","2022-05-31T13:49:12.679Z","task_switching-phon_sim-same_different-rhyme","","1199","task_switching","{""subtraction_ans"":""13""}","experiment","16","subtraction","13","true","subtract","","","","","","","","","","","","","","","","","","","","","","","","","","","",""
"","","","","","survey-text","105","263615","0.0-105.0","A12HZGOZQD5YK7","2022-05-31T13:49:12.679Z","task_switching-phon_sim-same_different-rhyme","","2297.899999976158","task_switching","{""subtraction_ans"":""54""}","experiment","57","subtraction","54","true","subtract","","","","","","","","","","","","","","","","","","","","","","","","","","","",""
"","","","","","survey-text","106","265431","0.0-106.0","A12HZGOZQD5YK7","2022-05-31T13:49:12.679Z","task_switching-phon_sim-same_different-rhyme","","1814.5","task_switching","{""subtraction_ans"":""33""}","experiment","36","subtraction","33","true","subtract","","","","","","","","","","","","","","","","","","","","","","","","","","","",""
"","","","","","survey-text","107","266483","0.0-107.0","A12HZGOZQD5YK7","2022-05-31T13:49:12.679Z","task_switching-phon_sim-same_different-rhyme","","1050.2000000476837","task_switching","{""subtraction_ans"":""31""}","experiment","34","subtraction","31","true","subtract","","","","","","","","","","","","","","","","","","","","","","","","","","","",""
"","","","","","instructions","108","278124","0.0-108.0","A12HZGOZQD5YK7","2022-05-31T13:49:12.679Z","task_switching-phon_sim-same_different-rhyme","[{""page_index"":0,""viewing_time"":11640.100000023842}]","11640.5","task_switching","","","","","","","","","","","","","","","","","","","","","","","","","","","","","","","","","","",""
"","","","","","survey-text","109","280352","0.0-109.0","A12HZGOZQD5YK7","2022-05-31T13:49:12.679Z","task_switching-phon_sim-same_different-rhyme","","2226","task_switching","{""colorcue_switch_ans"":""74""}","training","71","colorcue_switch","74","true","add","red","0","","","","","","","","","","","","","","","","","","","","","","","","","",""
"","","","","","html-keyboard-response","110","281360","0.0-110.0","A12HZGOZQD5YK7","2022-05-31T13:49:12.679Z","task_switching-phon_sim-same_different-rhyme","","null","task_switching","null","training","<div style=""color:darkgreen; font-size:60px"">Well done!</div>","colorcue_switch","","","","","","","","","","","","","","","","","","","","","","","","","","","","","","",""
"","","","","","survey-text","111","282952","0.0-111.0","A12HZGOZQD5YK7","2022-05-31T13:49:12.679Z","task_switching-phon_sim-same_different-rhyme","","1590.1999999284744","task_switching","{""colorcue_switch_ans"":""11""}","training","14","colorcue_switch","11","true","subtract","blue","1","","","","","","","","","","","","","","","","","","","","","","","","","",""
"","","","","","html-keyboard-response","112","283954","0.0-112.0","A12HZGOZQD5YK7","2022-05-31T13:49:12.679Z","task_switching-phon_sim-same_different-rhyme","","null","task_switching","null","training","<div style=""color:darkgreen; font-size:60px"">Well done!</div>","colorcue_switch","","","","","","","","","","","","","","","","","","","","","","","","","","","","","","",""
"","","","","","survey-text","113","285275","0.0-113.0","A12HZGOZQD5YK7","2022-05-31T13:49:12.679Z","task_switching-phon_sim-same_different-rhyme","","1319.5","task_switching","{""colorcue_switch_ans"":""55""}","training","52","colorcue_switch","55","true","add","red","2","","","","","","","","","","","","","","","","","","","","","","","","","",""
"","","","","","html-keyboard-response","114","286287","0.0-114.0","A12HZGOZQD5YK7","2022-05-31T13:49:12.679Z","task_switching-phon_sim-same_different-rhyme","","null","task_switching","null","training","<div style=""color:darkgreen; font-size:60px"">Well done!</div>","colorcue_switch","","","","","","","","","","","","","","","","","","","","","","","","","","","","","","",""
"","","","","","survey-text","115","288147","0.0-115.0","A12HZGOZQD5YK7","2022-05-31T13:49:12.679Z","task_switching-phon_sim-same_different-rhyme","","1856.2000000476837","task_switching","{""colorcue_switch_ans"":""58""}","training","61","colorcue_switch","58","true","subtract","blue","3","","","","","","","","","","","","","","","","","","","","","","","","","",""
"","","","","","html-keyboard-response","116","289156","0.0-116.0","A12HZGOZQD5YK7","2022-05-31T13:49:12.679Z","task_switching-phon_sim-same_different-rhyme","","null","task_switching","null","training","<div style=""color:darkgreen; font-size:60px"">Well done!</div>","colorcue_switch","","","","","","","","","","","","","","","","","","","","","","","","","","","","","","",""
"","","","","","survey-text","117","290945","0.0-117.0","A12HZGOZQD5YK7","2022-05-31T13:49:12.679Z","task_switching-phon_sim-same_different-rhyme","","1786.8999999761581","task_switching","{""colorcue_switch_ans"":""85""}","training","82","colorcue_switch","85","true","add","red","4","","","","","","","","","","","","","","","","","","","","","","","","","",""
"","","","","","html-keyboard-response","118","291949","0.0-118.0","A12HZGOZQD5YK7","2022-05-31T13:49:12.679Z","task_switching-phon_sim-same_different-rhyme","","null","task_switching","null","training","<div style=""color:darkgreen; font-size:60px"">Well done!</div>","colorcue_switch","","","","","","","","","","","","","","","","","","","","","","","","","","","","","","",""
"","","","","","survey-text","119","295691","0.0-119.0","A12HZGOZQD5YK7","2022-05-31T13:49:12.679Z","task_switching-phon_sim-same_different-rhyme","","3740.399999976158","task_switching","{""colorcue_switch_ans"":""87""}","training","90","colorcue_switch","87","true","subtract","blue","5","","","","","","","","","","","","","","","","","","","","","","","","","",""
"","","","","","html-keyboard-response","120","296699","0.0-120.0","A12HZGOZQD5YK7","2022-05-31T13:49:12.679Z","task_switching-phon_sim-same_different-rhyme","","null","task_switching","null","training","<div style=""color:darkgreen; font-size:60px"">Well done!</div>","colorcue_switch","","","","","","","","","","","","","","","","","","","","","","","","","","","","","","",""
"","","","","","survey-text","121","299368","0.0-121.0","A12HZGOZQD5YK7","2022-05-31T13:49:12.679Z","task_switching-phon_sim-same_different-rhyme","","2665.899999976158","task_switching","{""colorcue_switch_ans"":""24""}","training","21","colorcue_switch","24","true","add","red","6","","","","","","","","","","","","","","","","","","","","","","","","","",""
"","","","","","html-keyboard-response","122","300372","0.0-122.0","A12HZGOZQD5YK7","2022-05-31T13:49:12.679Z","task_switching-phon_sim-same_different-rhyme","","null","task_switching","null","training","<div style=""color:darkgreen; font-size:60px"">Well done!</div>","colorcue_switch","","","","","","","","","","","","","","","","","","","","","","","","","","","","","","",""
"","","","","","survey-text","123","304330","0.0-123.0","A12HZGOZQD5YK7","2022-05-31T13:49:12.679Z","task_switching-phon_sim-same_different-rhyme","","3956.3000000715256","task_switching","{""colorcue_switch_ans"":""47""}","training","50","colorcue_switch","47","true","subtract","blue","7","","","","","","","","","","","","","","","","","","","","","","","","","",""
"","","","","","html-keyboard-response","124","305338","0.0-124.0","A12HZGOZQD5YK7","2022-05-31T13:49:12.679Z","task_switching-phon_sim-same_different-rhyme","","null","task_switching","null","training","<div style=""color:darkgreen; font-size:60px"">Well done!</div>","colorcue_switch","","","","","","","","","","","","","","","","","","","","","","","","","","","","","","",""
"","","","","","survey-text","125","307020","0.0-125.0","A12HZGOZQD5YK7","2022-05-31T13:49:12.679Z","task_switching-phon_sim-same_different-rhyme","","1680.7000000476837","task_switching","{""colorcue_switch_ans"":""33""}","training","30","colorcue_switch","33","true","add","red","8","","","","","","","","","","","","","","","","","","","","","","","","","",""
"","","","","","html-keyboard-response","126","308036","0.0-126.0","A12HZGOZQD5YK7","2022-05-31T13:49:12.679Z","task_switching-phon_sim-same_different-rhyme","","null","task_switching","null","training","<div style=""color:darkgreen; font-size:60px"">Well done!</div>","colorcue_switch","","","","","","","","","","","","","","","","","","","","","","","","","","","","","","",""
"","","","","","survey-text","127","310223","0.0-127.0","A12HZGOZQD5YK7","2022-05-31T13:49:12.679Z","task_switching-phon_sim-same_different-rhyme","","2185.2999999523163","task_switching","{""colorcue_switch_ans"":""57""}","training","60","colorcue_switch","57","true","subtract","blue","9","","","","","","","","","","","","","","","","","","","","","","","","","",""
"","","","","","html-keyboard-response","128","311238","0.0-128.0","A12HZGOZQD5YK7","2022-05-31T13:49:12.679Z","task_switching-phon_sim-same_different-rhyme","","null","task_switching","null","training","<div style=""color:darkgreen; font-size:60px"">Well done!</div>","colorcue_switch","","","","","","","","","","","","","","","","","","","","","","","","","","","","","","",""
"","","","","","instructions","129","313185","0.0-129.0","A12HZGOZQD5YK7","2022-05-31T13:49:12.679Z","task_switching-phon_sim-same_different-rhyme","[{""page_index"":0,""viewing_time"":1946.8999999761581}]","1947.1999999284744","task_switching","","","","","","","","","","","","","","","","","","","","","","","","","","","","","","","","","","",""
"","","","","","survey-text","130","316022","0.0-130.0","A12HZGOZQD5YK7","2022-05-31T13:49:12.679Z","task_switching-phon_sim-same_different-rhyme","","2835.5","task_switching","{""colorcue_switch_ans"":""84""}","experiment","81","colorcue_switch","84","true","add","red","0","","","","","","","","","","","","","","","","","","","","","","","","","",""
"","","","","","survey-text","131","317822","0.0-131.0","A12HZGOZQD5YK7","2022-05-31T13:49:12.679Z","task_switching-phon_sim-same_different-rhyme","","1798","task_switching","{""colorcue_switch_ans"":""91""}","experiment","94","colorcue_switch","91","true","subtract","blue","1","","","","","","","","","","","","","","","","","","","","","","","","","",""
"","","","","","survey-text","132","319779","0.0-132.0","A12HZGOZQD5YK7","2022-05-31T13:49:12.679Z","task_switching-phon_sim-same_different-rhyme","","1955.5","task_switching","{""colorcue_switch_ans"":""75""}","experiment","72","colorcue_switch","75","true","add","red","2","","","","","","","","","","","","","","","","","","","","","","","","","",""
"","","","","","survey-text","133","322436","0.0-133.0","A12HZGOZQD5YK7","2022-05-31T13:49:12.679Z","task_switching-phon_sim-same_different-rhyme","","2655.899999976158","task_switching","{""colorcue_switch_ans"":""23""}","experiment","26","colorcue_switch","23","true","subtract","blue","3","","","","","","","","","","","","","","","","","","","","","","","","","",""
"","","","","","survey-text","134","324444","0.0-134.0","A12HZGOZQD5YK7","2022-05-31T13:49:12.679Z","task_switching-phon_sim-same_different-rhyme","","2006.0999999046326","task_switching","{""colorcue_switch_ans"":""49""}","experiment","46","colorcue_switch","49","true","add","red","4","","","","","","","","","","","","","","","","","","","","","","","","","",""
"","","","","","survey-text","135","325853","0.0-135.0","A12HZGOZQD5YK7","2022-05-31T13:49:12.679Z","task_switching-phon_sim-same_different-rhyme","","1407.4000000953674","task_switching","{""colorcue_switch_ans"":""41""}","experiment","44","colorcue_switch","41","true","subtract","blue","5","","","","","","","","","","","","","","","","","","","","","","","","","",""
"","","","","","survey-text","136","327791","0.0-136.0","A12HZGOZQD5YK7","2022-05-31T13:49:12.679Z","task_switching-phon_sim-same_different-rhyme","","1936.3000000715256","task_switching","{""colorcue_switch_ans"":""37""}","experiment","34","colorcue_switch","37","true","add","red","6","","","","","","","","","","","","","","","","","","","","","","","","","",""
"","","","","","survey-text","137","329597","0.0-137.0","A12HZGOZQD5YK7","2022-05-31T13:49:12.679Z","task_switching-phon_sim-same_different-rhyme","","1804","task_switching","{""colorcue_switch_ans"":""93""}","experiment","96","colorcue_switch","93","true","subtract","blue","7","","","","","","","","","","","","","","","","","","","","","","","","","",""
"","","","","","survey-text","138","331619","0.0-138.0","A12HZGOZQD5YK7","2022-05-31T13:49:12.679Z","task_switching-phon_sim-same_different-rhyme","","2020.3999999761581","task_switching","{""colorcue_switch_ans"":""38""}","experiment","35","colorcue_switch","38","true","add","red","8","","","","","","","","","","","","","","","","","","","","","","","","","",""
"","","","","","survey-text","139","334068","0.0-139.0","A12HZGOZQD5YK7","2022-05-31T13:49:12.679Z","task_switching-phon_sim-same_different-rhyme","","2447.100000023842","task_switching","{""colorcue_switch_ans"":""42""}","experiment","45","colorcue_switch","42","true","subtract","blue","9","","","","","","","","","","","","","","","","","","","","","","","","","",""
"","","","","","survey-text","140","335664","0.0-140.0","A12HZGOZQD5YK7","2022-05-31T13:49:12.679Z","task_switching-phon_sim-same_different-rhyme","","1593.7000000476837","task_switching","{""colorcue_switch_ans"":""66""}","experiment","63","colorcue_switch","66","true","add","red","10","","","","","","","","","","","","","","","","","","","","","","","","","",""
"","","","","","survey-text","141","337521","0.0-141.0","A12HZGOZQD5YK7","2022-05-31T13:49:12.679Z","task_switching-phon_sim-same_different-rhyme","","1854.6000000238419","task_switching","{""colorcue_switch_ans"":""82""}","experiment","85","colorcue_switch","82","true","subtract","blue","11","","","","","","","","","","","","","","","","","","","","","","","","","",""
"","","","","","survey-text","142","340580","0.0-142.0","A12HZGOZQD5YK7","2022-05-31T13:49:12.679Z","task_switching-phon_sim-same_different-rhyme","","3058.0999999046326","task_switching","{""colorcue_switch_ans"":""62""}","experiment","59","colorcue_switch","62","true","add","red","12","","","","","","","","","","","","","","","","","","","","","","","","","",""
"","","","","","survey-text","143","342135","0.0-143.0","A12HZGOZQD5YK7","2022-05-31T13:49:12.679Z","task_switching-phon_sim-same_different-rhyme","","1552.6999999284744","task_switching","{""colorcue_switch_ans"":""33""}","experiment","36","colorcue_switch","33","true","subtract","blue","13","","","","","","","","","","","","","","","","","","","","","","","","","",""
"","","","","","survey-text","144","344054","0.0-144.0","A12HZGOZQD5YK7","2022-05-31T13:49:12.679Z","task_switching-phon_sim-same_different-rhyme","","1917.7000000476837","task_switching","{""colorcue_switch_ans"":""70""}","experiment","67","colorcue_switch","70","true","add","red","14","","","","","","","","","","","","","","","","","","","","","","","","","",""
"","","","","","survey-text","145","346509","0.0-145.0","A12HZGOZQD5YK7","2022-05-31T13:49:12.679Z","task_switching-phon_sim-same_different-rhyme","","2453","task_switching","{""colorcue_switch_ans"":""14""}","experiment","17","colorcue_switch","14","true","subtract","blue","15","","","","","","","","","","","","","","","","","","","","","","","","","",""
"","","","","","survey-text","146","349748","0.0-146.0","A12HZGOZQD5YK7","2022-05-31T13:49:12.679Z","task_switching-phon_sim-same_different-rhyme","","3237.7999999523163","task_switching","{""colorcue_switch_ans"":""61""}","experiment","58","colorcue_switch","61","true","add","red","16","","","","","","","","","","","","","","","","","","","","","","","","","",""
"","","","","","survey-text","147","352489","0.0-147.0","A12HZGOZQD5YK7","2022-05-31T13:49:12.679Z","task_switching-phon_sim-same_different-rhyme","","2738","task_switching","{""colorcue_switch_ans"":""27""}","experiment","30","colorcue_switch","27","true","subtract","blue","17","","","","","","","","","","","","","","","","","","","","","","","","","",""
"","","","","","survey-text","148","354109","0.0-148.0","A12HZGOZQD5YK7","2022-05-31T13:49:12.679Z","task_switching-phon_sim-same_different-rhyme","","1618.7000000476837","task_switching","{""colorcue_switch_ans"":""60""}","experiment","57","colorcue_switch","60","true","add","red","18","","","","","","","","","","","","","","","","","","","","","","","","","",""
"","","","","","survey-text","149","356056","0.0-149.0","A12HZGOZQD5YK7","2022-05-31T13:49:12.679Z","task_switching-phon_sim-same_different-rhyme","","1945.1000000238419","task_switching","{""colorcue_switch_ans"":""89""}","experiment","92","colorcue_switch","89","true","subtract","blue","19","","","","","","","","","","","","","","","","","","","","","","","","","",""
"","","","","","survey-text","150","358418","0.0-150.0","A12HZGOZQD5YK7","2022-05-31T13:49:12.679Z","task_switching-phon_sim-same_different-rhyme","","2360.399999976158","task_switching","{""colorcue_switch_ans"":""30""}","experiment","27","colorcue_switch","30","true","add","red","20","","","","","","","","","","","","","","","","","","","","","","","","","",""
"","","","","","survey-text","151","360093","0.0-151.0","A12HZGOZQD5YK7","2022-05-31T13:49:12.679Z","task_switching-phon_sim-same_different-rhyme","","1673.2999999523163","task_switching","{""colorcue_switch_ans"":""63""}","experiment","66","colorcue_switch","63","true","subtract","blue","21","","","","","","","","","","","","","","","","","","","","","","","","","",""
"","","","","","survey-text","152","361995","0.0-152.0","A12HZGOZQD5YK7","2022-05-31T13:49:12.679Z","task_switching-phon_sim-same_different-rhyme","","1901.2999999523163","task_switching","{""colorcue_switch_ans"":""54""}","experiment","51","colorcue_switch","54","true","add","red","22","","","","","","","","","","","","","","","","","","","","","","","","","",""
"","","","","","survey-text","153","364494","0.0-153.0","A12HZGOZQD5YK7","2022-05-31T13:49:12.679Z","task_switching-phon_sim-same_different-rhyme","","2496","task_switching","{""colorcue_switch_ans"":""22""}","experiment","25","colorcue_switch","22","true","subtract","blue","23","","","","","","","","","","","","","","","","","","","","","","","","","",""
"","","","","","survey-text","154","365951","0.0-154.0","A12HZGOZQD5YK7","2022-05-31T13:49:12.679Z","task_switching-phon_sim-same_different-rhyme","","1455.5","task_switching","{""colorcue_switch_ans"":""23""}","experiment","20","colorcue_switch","23","true","add","red","24","","","","","","","","","","","","","","","","","","","","","","","","","",""
"","","","","","survey-text","155","367682","0.0-155.0","A12HZGOZQD5YK7","2022-05-31T13:49:12.679Z","task_switching-phon_sim-same_different-rhyme","","1729.8999999761581","task_switching","{""colorcue_switch_ans"":""79""}","experiment","82","colorcue_switch","79","true","subtract","blue","25","","","","","","","","","","","","","","","","","","","","","","","","","",""
"","","","","","survey-text","156","369175","0.0-156.0","A12HZGOZQD5YK7","2022-05-31T13:49:12.679Z","task_switching-phon_sim-same_different-rhyme","","1491.6000000238419","task_switching","{""colorcue_switch_ans"":""58""}","experiment","55","colorcue_switch","58","true","add","red","26","","","","","","","","","","","","","","","","","","","","","","","","","",""
"","","","","","survey-text","157","370632","0.0-157.0","A12HZGOZQD5YK7","2022-05-31T13:49:12.679Z","task_switching-phon_sim-same_different-rhyme","","1454.8999999761581","task_switching","{""colorcue_switch_ans"":""90""}","experiment","93","colorcue_switch","90","true","subtract","blue","27","","","","","","","","","","","","","","","","","","","","","","","","","",""
"","","","","","survey-text","158","372325","0.0-158.0","A12HZGOZQD5YK7","2022-05-31T13:49:12.679Z","task_switching-phon_sim-same_different-rhyme","","1691.2000000476837","task_switching","{""colorcue_switch_ans"":""56""}","experiment","53","colorcue_switch","56","true","add","red","28","","","","","","","","","","","","","","","","","","","","","","","","","",""
"","","","","","survey-text","159","373791","0.0-159.0","A12HZGOZQD5YK7","2022-05-31T13:49:12.679Z","task_switching-phon_sim-same_different-rhyme","","1464.2999999523163","task_switching","{""colorcue_switch_ans"":""21""}","experiment","24","colorcue_switch","21","true","subtract","blue","29","","","","","","","","","","","","","","","","","","","","","","","","","",""
"","","","","","instructions","160","390103","0.0-160.0","A12HZGOZQD5YK7","2022-05-31T13:49:12.679Z","task_switching-phon_sim-same_different-rhyme","[{""page_index"":0,""viewing_time"":16312}]","16312.100000023842","task_switching","","","","","","","","","","","","","","","","","","","","","","","","","","","","","","","","","","",""
"","","","","","survey-text","161","392673","0.0-161.0","A12HZGOZQD5YK7","2022-05-31T13:49:12.679Z","task_switching-phon_sim-same_different-rhyme","","2568.100000023842","task_switching","{""uncued_switch_ans"":""91""}","training","89","uncued_switch","91","false","add","","0","","","","","","","","","","","","","","","","","","","","","","","","","",""
"","","","","","html-keyboard-response","162","397688","0.0-162.0","A12HZGOZQD5YK7","2022-05-31T13:49:12.679Z","task_switching-phon_sim-same_different-rhyme","","null","task_switching","null","training","<div style=""color:darkred; font-size:40px"">Right direction but be careful with the numbers.<p> Correct answer: 92.</p><p> Next trial subtract 3.</p></div>","uncued_switch","","","","","","","","","","","","","","","","","","","","","","","","","","","","","","",""
"","","","","","survey-text","163","401319","0.0-163.0","A12HZGOZQD5YK7","2022-05-31T13:49:12.679Z","task_switching-phon_sim-same_different-rhyme","","3629.7999999523163","task_switching","{""uncued_switch_ans"":""36""}","training","39","uncued_switch","36","true","subtract","","1","","","","","","","","","","","","","","","","","","","","","","","","","",""
"","","","","","html-keyboard-response","164","402325","0.0-164.0","A12HZGOZQD5YK7","2022-05-31T13:49:12.679Z","task_switching-phon_sim-same_different-rhyme","","null","task_switching","null","training","<div style=""color:darkgreen; font-size:60px"">Well done!</div>","uncued_switch","","","","","","","","","","","","","","","","","","","","","","","","","","","","","","",""
"","","","","","survey-text","165","407019","0.0-165.0","A12HZGOZQD5YK7","2022-05-31T13:49:12.679Z","task_switching-phon_sim-same_different-rhyme","","4691.699999928474","task_switching","{""uncued_switch_ans"":""58""}","training","55","uncued_switch","58","true","add","","2","","","","","","","","","","","","","","","","","","","","","","","","","",""
"","","","","","html-keyboard-response","166","408021","0.0-166.0","A12HZGOZQD5YK7","2022-05-31T13:49:12.679Z","task_switching-phon_sim-same_different-rhyme","","null","task_switching","null","training","<div style=""color:darkgreen; font-size:60px"">Well done!</div>","uncued_switch","","","","","","","","","","","","","","","","","","","","","","","","","","","","","","",""
"","","","","","survey-text","167","409285","0.0-167.0","A12HZGOZQD5YK7","2022-05-31T13:49:12.679Z","task_switching-phon_sim-same_different-rhyme","","1262.7000000476837","task_switching","{""uncued_switch_ans"":""60""}","training","63","uncued_switch","60","true","subtract","","3","","","","","","","","","","","","","","","","","","","","","","","","","",""
"","","","","","html-keyboard-response","168","410300","0.0-168.0","A12HZGOZQD5YK7","2022-05-31T13:49:12.679Z","task_switching-phon_sim-same_different-rhyme","","null","task_switching","null","training","<div style=""color:darkgreen; font-size:60px"">Well done!</div>","uncued_switch","","","","","","","","","","","","","","","","","","","","","","","","","","","","","","",""
"","","","","","survey-text","169","411466","0.0-169.0","A12HZGOZQD5YK7","2022-05-31T13:49:12.679Z","task_switching-phon_sim-same_different-rhyme","","1163.5999999046326","task_switching","{""uncued_switch_ans"":""56""}","training","53","uncued_switch","56","true","add","","4","","","","","","","","","","","","","","","","","","","","","","","","","",""
"","","","","","html-keyboard-response","170","412476","0.0-170.0","A12HZGOZQD5YK7","2022-05-31T13:49:12.679Z","task_switching-phon_sim-same_different-rhyme","","null","task_switching","null","training","<div style=""color:darkgreen; font-size:60px"">Well done!</div>","uncued_switch","","","","","","","","","","","","","","","","","","","","","","","","","","","","","","",""
"","","","","","survey-text","171","413895","0.0-171.0","A12HZGOZQD5YK7","2022-05-31T13:49:12.679Z","task_switching-phon_sim-same_different-rhyme","","1416.7000000476837","task_switching","{""uncued_switch_ans"":""65""}","training","68","uncued_switch","65","true","subtract","","5","","","","","","","","","","","","","","","","","","","","","","","","","",""
"","","","","","html-keyboard-response","172","414904","0.0-172.0","A12HZGOZQD5YK7","2022-05-31T13:49:12.679Z","task_switching-phon_sim-same_different-rhyme","","null","task_switching","null","training","<div style=""color:darkgreen; font-size:60px"">Well done!</div>","uncued_switch","","","","","","","","","","","","","","","","","","","","","","","","","","","","","","",""
"","","","","","survey-text","173","416137","0.0-173.0","A12HZGOZQD5YK7","2022-05-31T13:49:12.679Z","task_switching-phon_sim-same_different-rhyme","","1231","task_switching","{""uncued_switch_ans"":""86""}","training","83","uncued_switch","86","true","add","","6","","","","","","","","","","","","","","","","","","","","","","","","","",""
"","","","","","html-keyboard-response","174","417141","0.0-174.0","A12HZGOZQD5YK7","2022-05-31T13:49:12.679Z","task_switching-phon_sim-same_different-rhyme","","null","task_switching","null","training","<div style=""color:darkgreen; font-size:60px"">Well done!</div>","uncued_switch","","","","","","","","","","","","","","","","","","","","","","","","","","","","","","",""
"","","","","","survey-text","175","418963","0.0-175.0","A12HZGOZQD5YK7","2022-05-31T13:49:12.679Z","task_switching-phon_sim-same_different-rhyme","","1820.5","task_switching","{""uncued_switch_ans"":""11""}","training","14","uncued_switch","11","true","subtract","","7","","","","","","","","","","","","","","","","","","","","","","","","","",""
"","","","","","html-keyboard-response","176","419976","0.0-176.0","A12HZGOZQD5YK7","2022-05-31T13:49:12.679Z","task_switching-phon_sim-same_different-rhyme","","null","task_switching","null","training","<div style=""color:darkgreen; font-size:60px"">Well done!</div>","uncued_switch","","","","","","","","","","","","","","","","","","","","","","","","","","","","","","",""
"","","","","","survey-text","177","421242","0.0-177.0","A12HZGOZQD5YK7","2022-05-31T13:49:12.679Z","task_switching-phon_sim-same_different-rhyme","","1264.7999999523163","task_switching","{""uncued_switch_ans"":""26""}","training","23","uncued_switch","26","true","add","","8","","","","","","","","","","","","","","","","","","","","","","","","","",""
"","","","","","html-keyboard-response","178","422246","0.0-178.0","A12HZGOZQD5YK7","2022-05-31T13:49:12.679Z","task_switching-phon_sim-same_different-rhyme","","null","task_switching","null","training","<div style=""color:darkgreen; font-size:60px"">Well done!</div>","uncued_switch","","","","","","","","","","","","","","","","","","","","","","","","","","","","","","",""
"","","","","","survey-text","179","430114","0.0-179.0","A12HZGOZQD5YK7","2022-05-31T13:49:12.679Z","task_switching-phon_sim-same_different-rhyme","","7864.899999976158","task_switching","{""uncued_switch_ans"":""68""}","training","71","uncued_switch","68","true","subtract","","9","","","","","","","","","","","","","","","","","","","","","","","","","",""
"","","","","","html-keyboard-response","180","431122","0.0-180.0","A12HZGOZQD5YK7","2022-05-31T13:49:12.679Z","task_switching-phon_sim-same_different-rhyme","","null","task_switching","null","training","<div style=""color:darkgreen; font-size:60px"">Well done!</div>","uncued_switch","","","","","","","","","","","","","","","","","","","","","","","","","","","","","","",""
"","","","","","instructions","181","433399","0.0-181.0","A12HZGOZQD5YK7","2022-05-31T13:49:12.679Z","task_switching-phon_sim-same_different-rhyme","[{""page_index"":0,""viewing_time"":2277.2999999523163}]","2277.600000023842","task_switching","","","","","","","","","","","","","","","","","","","","","","","","","","","","","","","","","","",""
"","","","","","survey-text","182","437044","0.0-182.0","A12HZGOZQD5YK7","2022-05-31T13:49:12.679Z","task_switching-phon_sim-same_different-rhyme","","3642.6999999284744","task_switching","{""uncued_switch_ans"":""89""}","experiment","86","uncued_switch","89","true","add","","0","","","","","","","","","","","","","","","","","","","","","","","","","",""
"","","","","","survey-text","183","441800","0.0-183.0","A12HZGOZQD5YK7","2022-05-31T13:49:12.679Z","task_switching-phon_sim-same_different-rhyme","","4754.399999976158","task_switching","{""uncued_switch_ans"":""18""}","experiment","21","uncued_switch","18","true","subtract","","1","","","","","","","","","","","","","","","","","","","","","","","","","",""
"","","","","","survey-text","184","443150","0.0-184.0","A12HZGOZQD5YK7","2022-05-31T13:49:12.679Z","task_switching-phon_sim-same_different-rhyme","","1348.1000000238419","task_switching","{""uncued_switch_ans"":""33""}","experiment","30","uncued_switch","33","true","add","","2","","","","","","","","","","","","","","","","","","","","","","","","","",""
"","","","","","survey-text","185","445890","0.0-185.0","A12HZGOZQD5YK7","2022-05-31T13:49:12.679Z","task_switching-phon_sim-same_different-rhyme","","2738.899999976158","task_switching","{""uncued_switch_ans"":""92""}","experiment","95","uncued_switch","92","true","subtract","","3","","","","","","","","","","","","","","","","","","","","","","","","","",""
"","","","","","survey-text","186","448147","0.0-186.0","A12HZGOZQD5YK7","2022-05-31T13:49:12.679Z","task_switching-phon_sim-same_different-rhyme","","2255.2999999523163","task_switching","{""uncued_switch_ans"":""35""}","experiment","32","uncued_switch","35","true","add","","4","","","","","","","","","","","","","","","","","","","","","","","","","",""
"","","","","","survey-text","187","449691","0.0-187.0","A12HZGOZQD5YK7","2022-05-31T13:49:12.679Z","task_switching-phon_sim-same_different-rhyme","","1543","task_switching","{""uncued_switch_ans"":""70""}","experiment","73","uncued_switch","70","true","subtract","","5","","","","","","","","","","","","","","","","","","","","","","","","","",""
"","","","","","survey-text","188","451428","0.0-188.0","A12HZGOZQD5YK7","2022-05-31T13:49:12.679Z","task_switching-phon_sim-same_different-rhyme","","1735.1000000238419","task_switching","{""uncued_switch_ans"":""79""}","experiment","76","uncued_switch","79","true","add","","6","","","","","","","","","","","","","","","","","","","","","","","","","",""
"","","","","","survey-text","189","453350","0.0-189.0","A12HZGOZQD5YK7","2022-05-31T13:49:12.679Z","task_switching-phon_sim-same_different-rhyme","","1919.9000000953674","task_switching","{""uncued_switch_ans"":""66""}","experiment","69","uncued_switch","66","true","subtract","","7","","","","","","","","","","","","","","","","","","","","","","","","","",""
"","","","","","survey-text","190","456604","0.0-190.0","A12HZGOZQD5YK7","2022-05-31T13:49:12.679Z","task_switching-phon_sim-same_different-rhyme","","3251.7999999523163","task_switching","{""uncued_switch_ans"":""20""}","experiment","17","uncued_switch","20","true","add","","8","","","","","","","","","","","","","","","","","","","","","","","","","",""
"","","","","","survey-text","191","458311","0.0-191.0","A12HZGOZQD5YK7","2022-05-31T13:49:12.679Z","task_switching-phon_sim-same_different-rhyme","","1705.7999999523163","task_switching","{""uncued_switch_ans"":""85""}","experiment","88","uncued_switch","85","true","subtract","","9","","","","","","","","","","","","","","","","","","","","","","","","","",""
"","","","","","survey-text","192","460310","0.0-192.0","A12HZGOZQD5YK7","2022-05-31T13:49:12.679Z","task_switching-phon_sim-same_different-rhyme","","1997.1000000238419","task_switching","{""uncued_switch_ans"":""40""}","experiment","37","uncued_switch","40","true","add","","10","","","","","","","","","","","","","","","","","","","","","","","","","",""
"","","","","","survey-text","193","464721","0.0-193.0","A12HZGOZQD5YK7","2022-05-31T13:49:12.679Z","task_switching-phon_sim-same_different-rhyme","","4409.799999952316","task_switching","{""uncued_switch_ans"":""88""}","experiment","91","uncued_switch","88","true","subtract","","11","","","","","","","","","","","","","","","","","","","","","","","","","",""
"","","","","","survey-text","194","467134","0.0-194.0","A12HZGOZQD5YK7","2022-05-31T13:49:12.679Z","task_switching-phon_sim-same_different-rhyme","","2411.3000000715256","task_switching","{""uncued_switch_ans"":""49""}","experiment","46","uncued_switch","49","true","add","","12","","","","","","","","","","","","","","","","","","","","","","","","","",""
"","","","","","survey-text","195","469442","0.0-195.0","A12HZGOZQD5YK7","2022-05-31T13:49:12.679Z","task_switching-phon_sim-same_different-rhyme","","2306.2000000476837","task_switching","{""uncued_switch_ans"":""17""}","experiment","20","uncued_switch","17","true","subtract","","13","","","","","","","","","","","","","","","","","","","","","","","","","",""
"","","","","","survey-text","196","471717","0.0-196.0","A12HZGOZQD5YK7","2022-05-31T13:49:12.679Z","task_switching-phon_sim-same_different-rhyme","","2273.600000023842","task_switching","{""uncued_switch_ans"":""84""}","experiment","81","uncued_switch","84","true","add","","14","","","","","","","","","","","","","","","","","","","","","","","","","",""
"","","","","","survey-text","197","476061","0.0-197.0","A12HZGOZQD5YK7","2022-05-31T13:49:12.679Z","task_switching-phon_sim-same_different-rhyme","","4342.699999928474","task_switching","{""uncued_switch_ans"":""64""}","experiment","67","uncued_switch","64","true","subtract","","15","","","","","","","","","","","","","","","","","","","","","","","","","",""
"","","","","","survey-text","198","477675","0.0-198.0","A12HZGOZQD5YK7","2022-05-31T13:49:12.679Z","task_switching-phon_sim-same_different-rhyme","","1612.8999999761581","task_switching","{""uncued_switch_ans"":""73""}","experiment","70","uncued_switch","73","true","add","","16","","","","","","","","","","","","","","","","","","","","","","","","","",""
"","","","","","survey-text","199","479901","0.0-199.0","A12HZGOZQD5YK7","2022-05-31T13:49:12.679Z","task_switching-phon_sim-same_different-rhyme","","2223.899999976158","task_switching","{""uncued_switch_ans"":""51""}","experiment","54","uncued_switch","51","true","subtract","","17","","","","","","","","","","","","","","","","","","","","","","","","","",""
"","","","","","survey-text","200","481497","0.0-200.0","A12HZGOZQD5YK7","2022-05-31T13:49:12.679Z","task_switching-phon_sim-same_different-rhyme","","1594.8999999761581","task_switching","{""uncued_switch_ans"":""43""}","experiment","40","uncued_switch","43","true","add","","18","","","","","","","","","","","","","","","","","","","","","","","","","",""
"","","","","","survey-text","201","483243","0.0-201.0","A12HZGOZQD5YK7","2022-05-31T13:49:12.679Z","task_switching-phon_sim-same_different-rhyme","","1744.3999999761581","task_switching","{""uncued_switch_ans"":""16""}","experiment","19","uncued_switch","16","true","subtract","","19","","","","","","","","","","","","","","","","","","","","","","","","","",""
"","","","","","survey-text","202","484767","0.0-202.0","A12HZGOZQD5YK7","2022-05-31T13:49:12.679Z","task_switching-phon_sim-same_different-rhyme","","1521.4000000953674","task_switching","{""uncued_switch_ans"":""16""}","experiment","13","uncued_switch","16","true","add","","20","","","","","","","","","","","","","","","","","","","","","","","","","",""
"","","","","","survey-text","203","486496","0.0-203.0","A12HZGOZQD5YK7","2022-05-31T13:49:12.679Z","task_switching-phon_sim-same_different-rhyme","","1727.2000000476837","task_switching","{""uncued_switch_ans"":""21""}","experiment","24","uncued_switch","21","true","subtract","","21","","","","","","","","","","","","","","","","","","","","","","","","","",""
"","","","","","survey-text","204","488506","0.0-204.0","A12HZGOZQD5YK7","2022-05-31T13:49:12.679Z","task_switching-phon_sim-same_different-rhyme","","2008.1000000238419","task_switching","{""uncued_switch_ans"":""29""}","experiment","26","uncued_switch","29","true","add","","22","","","","","","","","","","","","","","","","","","","","","","","","","",""
"","","","","","survey-text","205","491143","0.0-205.0","A12HZGOZQD5YK7","2022-05-31T13:49:12.679Z","task_switching-phon_sim-same_different-rhyme","","2635.7999999523163","task_switching","{""uncued_switch_ans"":""44""}","experiment","47","uncued_switch","44","true","subtract","","23","","","","","","","","","","","","","","","","","","","","","","","","","",""
"","","","","","survey-text","206","493493","0.0-206.0","A12HZGOZQD5YK7","2022-05-31T13:49:12.679Z","task_switching-phon_sim-same_different-rhyme","","2348","task_switching","{""uncued_switch_ans"":""30""}","experiment","27","uncued_switch","30","true","add","","24","","","","","","","","","","","","","","","","","","","","","","","","","",""
"","","","","","survey-text","207","497157","0.0-207.0","A12HZGOZQD5YK7","2022-05-31T13:49:12.679Z","task_switching-phon_sim-same_different-rhyme","","3662.7999999523163","task_switching","{""uncued_switch_ans"":""19""}","experiment","22","uncued_switch","19","true","subtract","","25","","","","","","","","","","","","","","","","","","","","","","","","","",""
"","","","","","survey-text","208","500029","0.0-208.0","A12HZGOZQD5YK7","2022-05-31T13:49:12.679Z","task_switching-phon_sim-same_different-rhyme","","2870.2999999523163","task_switching","{""uncued_switch_ans"":""74""}","experiment","71","uncued_switch","74","true","add","","26","","","","","","","","","","","","","","","","","","","","","","","","","",""
"","","","","","survey-text","209","502659","0.0-209.0","A12HZGOZQD5YK7","2022-05-31T13:49:12.679Z","task_switching-phon_sim-same_different-rhyme","","2626.899999976158","task_switching","{""uncued_switch_ans"":""89""}","experiment","92","uncued_switch","89","true","subtract","","27","","","","","","","","","","","","","","","","","","","","","","","","","",""
"","","","","","survey-text","210","504422","0.0-210.0","A12HZGOZQD5YK7","2022-05-31T13:49:12.679Z","task_switching-phon_sim-same_different-rhyme","","1760.8000000715256","task_switching","{""uncued_switch_ans"":""60""}","experiment","57","uncued_switch","60","true","add","","28","","","","","","","","","","","","","","","","","","","","","","","","","",""
"","","","","","survey-text","211","507351","0.0-211.0","A12HZGOZQD5YK7","2022-05-31T13:49:12.679Z","task_switching-phon_sim-same_different-rhyme","","2927.600000023842","task_switching","{""uncued_switch_ans"":""38""}","experiment","41","uncued_switch","38","true","subtract","","29","","","","","","","","","","","","","","","","","","","","","","","","","",""
"","","","","","instructions","212","516811","0.0-212.0","A12HZGOZQD5YK7","2022-05-31T13:49:12.679Z","task_switching-phon_sim-same_different-rhyme","[{""page_index"":0,""viewing_time"":9458.699999928474}]","9458.799999952316","task_switching","","","","","","","","","","","","","","","","","","","","","","","","","","","","","","","","","","",""
"","","","","","survey-text","213","521817","0.0-213.0","A12HZGOZQD5YK7","2022-05-31T13:49:12.679Z","task_switching-phon_sim-same_different-rhyme","","5004.600000023842","task_switching","{""symbolcue_switch_ans"":""81""}","training","78","symbolcue_switch","81","true","add","","0","+","","","","","","","","","","","","","","","","","","","","","","","","",""
"","","","","","html-keyboard-response","214","522833","0.0-214.0","A12HZGOZQD5YK7","2022-05-31T13:49:12.679Z","task_switching-phon_sim-same_different-rhyme","","null","task_switching","null","training","<div style=""color:darkgreen; font-size:60px"">Well done!</div>","symbolcue_switch","","","","","","","","","","","","","","","","","","","","","","","","","","","","","","",""
"","","","","","survey-text","215","529391","0.0-215.0","A12HZGOZQD5YK7","2022-05-31T13:49:12.679Z","task_switching-phon_sim-same_different-rhyme","","6556.199999928474","task_switching","{""symbolcue_switch_ans"":""88""}","training","91","symbolcue_switch","88","true","subtract","","1","-","","","","","","","","","","","","","","","","","","","","","","","","",""
"","","","","","html-keyboard-response","216","530394","0.0-216.0","A12HZGOZQD5YK7","2022-05-31T13:49:12.679Z","task_switching-phon_sim-same_different-rhyme","","null","task_switching","null","training","<div style=""color:darkgreen; font-size:60px"">Well done!</div>","symbolcue_switch","","","","","","","","","","","","","","","","","","","","","","","","","","","","","","",""
"","","","","","survey-text","217","533221","0.0-217.0","A12HZGOZQD5YK7","2022-05-31T13:49:12.679Z","task_switching-phon_sim-same_different-rhyme","","2824","task_switching","{""symbolcue_switch_ans"":""36""}","training","33","symbolcue_switch","36","true","add","","2","+","","","","","","","","","","","","","","","","","","","","","","","","",""
"","","","","","html-keyboard-response","218","534232","0.0-218.0","A12HZGOZQD5YK7","2022-05-31T13:49:12.679Z","task_switching-phon_sim-same_different-rhyme","","null","task_switching","null","training","<div style=""color:darkgreen; font-size:60px"">Well done!</div>","symbolcue_switch","","","","","","","","","","","","","","","","","","","","","","","","","","","","","","",""
"","","","","","survey-text","219","535934","0.0-219.0","A12HZGOZQD5YK7","2022-05-31T13:49:12.679Z","task_switching-phon_sim-same_different-rhyme","","1700.2999999523163","task_switching","{""symbolcue_switch_ans"":""54""}","training","57","symbolcue_switch","54","true","subtract","","3","-","","","","","","","","","","","","","","","","","","","","","","","","",""
"","","","","","html-keyboard-response","220","536940","0.0-220.0","A12HZGOZQD5YK7","2022-05-31T13:49:12.679Z","task_switching-phon_sim-same_different-rhyme","","null","task_switching","null","training","<div style=""color:darkgreen; font-size:60px"">Well done!</div>","symbolcue_switch","","","","","","","","","","","","","","","","","","","","","","","","","","","","","","",""
"","","","","","survey-text","221","538453","0.0-221.0","A12HZGOZQD5YK7","2022-05-31T13:49:12.679Z","task_switching-phon_sim-same_different-rhyme","","1511.6000000238419","task_switching","{""symbolcue_switch_ans"":""35""}","training","32","symbolcue_switch","35","true","add","","4","+","","","","","","","","","","","","","","","","","","","","","","","","",""
"","","","","","html-keyboard-response","222","539455","0.0-222.0","A12HZGOZQD5YK7","2022-05-31T13:49:12.679Z","task_switching-phon_sim-same_different-rhyme","","null","task_switching","null","training","<div style=""color:darkgreen; font-size:60px"">Well done!</div>","symbolcue_switch","","","","","","","","","","","","","","","","","","","","","","","","","","","","","","",""
"","","","","","survey-text","223","540924","0.0-223.0","A12HZGOZQD5YK7","2022-05-31T13:49:12.679Z","task_switching-phon_sim-same_different-rhyme","","1468","task_switching","{""symbolcue_switch_ans"":""40""}","training","43","symbolcue_switch","40","true","subtract","","5","-","","","","","","","","","","","","","","","","","","","","","","","","",""
"","","","","","html-keyboard-response","224","541937","0.0-224.0","A12HZGOZQD5YK7","2022-05-31T13:49:12.679Z","task_switching-phon_sim-same_different-rhyme","","null","task_switching","null","training","<div style=""color:darkgreen; font-size:60px"">Well done!</div>","symbolcue_switch","","","","","","","","","","","","","","","","","","","","","","","","","","","","","","",""
"","","","","","survey-text","225","544889","0.0-225.0","A12HZGOZQD5YK7","2022-05-31T13:49:12.679Z","task_switching-phon_sim-same_different-rhyme","","2950.7999999523163","task_switching","{""symbolcue_switch_ans"":""68""}","training","71","symbolcue_switch","68","false","add","","6","+","","","","","","","","","","","","","","","","","","","","","","","","",""
"","","","","","html-keyboard-response","226","549896","0.0-226.0","A12HZGOZQD5YK7","2022-05-31T13:49:12.679Z","task_switching-phon_sim-same_different-rhyme","","null","task_switching","null","training","<div style=""color:darkred; font-size:40px"">That was an <b>add</b> trial.<p> Correct answer: 74.</p><p> Next trial subtract 3.</p></div>","symbolcue_switch","","","","","","","","","","","","","","","","","","","","","","","","","","","","","","",""
"","","","","","survey-text","227","552590","0.0-227.0","A12HZGOZQD5YK7","2022-05-31T13:49:12.679Z","task_switching-phon_sim-same_different-rhyme","","2692.5","task_switching","{""symbolcue_switch_ans"":""84""}","training","87","symbolcue_switch","84","true","subtract","","7","-","","","","","","","","","","","","","","","","","","","","","","","","",""
"","","","","","html-keyboard-response","228","553596","0.0-228.0","A12HZGOZQD5YK7","2022-05-31T13:49:12.679Z","task_switching-phon_sim-same_different-rhyme","","null","task_switching","null","training","<div style=""color:darkgreen; font-size:60px"">Well done!</div>","symbolcue_switch","","","","","","","","","","","","","","","","","","","","","","","","","","","","","","",""
"","","","","","survey-text","229","555627","0.0-229.0","A12HZGOZQD5YK7","2022-05-31T13:49:12.679Z","task_switching-phon_sim-same_different-rhyme","","2028.6000000238419","task_switching","{""symbolcue_switch_ans"":""43""}","training","40","symbolcue_switch","43","true","add","","8","+","","","","","","","","","","","","","","","","","","","","","","","","",""
"","","","","","html-keyboard-response","230","556641","0.0-230.0","A12HZGOZQD5YK7","2022-05-31T13:49:12.679Z","task_switching-phon_sim-same_different-rhyme","","null","task_switching","null","training","<div style=""color:darkgreen; font-size:60px"">Well done!</div>","symbolcue_switch","","","","","","","","","","","","","","","","","","","","","","","","","","","","","","",""
"","","","","","survey-text","231","558834","0.0-231.0","A12HZGOZQD5YK7","2022-05-31T13:49:12.679Z","task_switching-phon_sim-same_different-rhyme","","2190.8000000715256","task_switching","{""symbolcue_switch_ans"":""13""}","training","16","symbolcue_switch","13","true","subtract","","9","-","","","","","","","","","","","","","","","","","","","","","","","","",""
"","","","","","html-keyboard-response","232","559838","0.0-232.0","A12HZGOZQD5YK7","2022-05-31T13:49:12.679Z","task_switching-phon_sim-same_different-rhyme","","null","task_switching","null","training","<div style=""color:darkgreen; font-size:60px"">Well done!</div>","symbolcue_switch","","","","","","","","","","","","","","","","","","","","","","","","","","","","","","",""
"","","","","","instructions","233","561854","0.0-233.0","A12HZGOZQD5YK7","2022-05-31T13:49:12.679Z","task_switching-phon_sim-same_different-rhyme","[{""page_index"":0,""viewing_time"":2015.3999999761581}]","2015.6999999284744","task_switching","","","","","","","","","","","","","","","","","","","","","","","","","","","","","","","","","","",""
"","","","","","survey-text","234","563991","0.0-234.0","A12HZGOZQD5YK7","2022-05-31T13:49:12.679Z","task_switching-phon_sim-same_different-rhyme","","2135","task_switching","{""symbolcue_switch_ans"":""96""}","experiment","93","symbolcue_switch","96","true","add","","0","+","","","","","","","","","","","","","","","","","","","","","","","","",""
"","","","","","survey-text","235","565828","0.0-235.0","A12HZGOZQD5YK7","2022-05-31T13:49:12.679Z","task_switching-phon_sim-same_different-rhyme","","1835.1000000238419","task_switching","{""symbolcue_switch_ans"":""11""}","experiment","14","symbolcue_switch","11","true","subtract","","1","-","","","","","","","","","","","","","","","","","","","","","","","","",""
"","","","","","survey-text","236","567796","0.0-236.0","A12HZGOZQD5YK7","2022-05-31T13:49:12.679Z","task_switching-phon_sim-same_different-rhyme","","1967","task_switching","{""symbolcue_switch_ans"":""39""}","experiment","36","symbolcue_switch","39","true","add","","2","+","","","","","","","","","","","","","","","","","","","","","","","","",""
"","","","","","survey-text","237","571072","0.0-237.0","A12HZGOZQD5YK7","2022-05-31T13:49:12.679Z","task_switching-phon_sim-same_different-rhyme","","3274.4000000953674","task_switching","{""symbolcue_switch_ans"":""88""}","experiment","91","symbolcue_switch","88","true","subtract","","3","-","","","","","","","","","","","","","","","","","","","","","","","","",""
"","","","","","survey-text","238","573326","0.0-238.0","A12HZGOZQD5YK7","2022-05-31T13:49:12.679Z","task_switching-phon_sim-same_different-rhyme","","2251.5","task_switching","{""symbolcue_switch_ans"":""88""}","experiment","85","symbolcue_switch","88","true","add","","4","+","","","","","","","","","","","","","","","","","","","","","","","","",""
"","","","","","survey-text","239","581224","0.0-239.0","A12HZGOZQD5YK7","2022-05-31T13:49:12.679Z","task_switching-phon_sim-same_different-rhyme","","7897.5","task_switching","{""symbolcue_switch_ans"":""38""}","experiment","41","symbolcue_switch","38","true","subtract","","5","-","","","","","","","","","","","","","","","","","","","","","","","","",""
"","","","","","survey-text","240","583869","0.0-240.0","A12HZGOZQD5YK7","2022-05-31T13:49:12.679Z","task_switching-phon_sim-same_different-rhyme","","2642.7000000476837","task_switching","{""symbolcue_switch_ans"":""56""}","experiment","53","symbolcue_switch","56","true","add","","6","+","","","","","","","","","","","","","","","","","","","","","","","","",""
"","","","","","survey-text","241","585709","0.0-241.0","A12HZGOZQD5YK7","2022-05-31T13:49:12.679Z","task_switching-phon_sim-same_different-rhyme","","1837.6000000238419","task_switching","{""symbolcue_switch_ans"":""74""}","experiment","77","symbolcue_switch","74","true","subtract","","7","-","","","","","","","","","","","","","","","","","","","","","","","","",""
"","","","","","survey-text","242","587627","0.0-242.0","A12HZGOZQD5YK7","2022-05-31T13:49:12.679Z","task_switching-phon_sim-same_different-rhyme","","1916.2000000476837","task_switching","{""symbolcue_switch_ans"":""69""}","experiment","66","symbolcue_switch","69","true","add","","8","+","","","","","","","","","","","","","","","","","","","","","","","","",""
"","","","","","survey-text","243","590493","0.0-243.0","A12HZGOZQD5YK7","2022-05-31T13:49:12.679Z","task_switching-phon_sim-same_different-rhyme","","2864.6999999284744","task_switching","{""symbolcue_switch_ans"":""75""}","experiment","78","symbolcue_switch","75","true","subtract","","9","-","","","","","","","","","","","","","","","","","","","","","","","","",""
"","","","","","survey-text","244","593830","0.0-244.0","A12HZGOZQD5YK7","2022-05-31T13:49:12.679Z","task_switching-phon_sim-same_different-rhyme","","3335","task_switching","{""symbolcue_switch_ans"":""32""}","experiment","29","symbolcue_switch","32","true","add","","10","+","","","","","","","","","","","","","","","","","","","","","","","","",""
"","","","","","survey-text","245","596811","0.0-245.0","A12HZGOZQD5YK7","2022-05-31T13:49:12.679Z","task_switching-phon_sim-same_different-rhyme","","2979.899999976158","task_switching","{""symbolcue_switch_ans"":""32""}","experiment","35","symbolcue_switch","32","true","subtract","","11","-","","","","","","","","","","","","","","","","","","","","","","","","",""
"","","","","","survey-text","246","600874","0.0-246.0","A12HZGOZQD5YK7","2022-05-31T13:49:12.679Z","task_switching-phon_sim-same_different-rhyme","","4061.2000000476837","task_switching","{""symbolcue_switch_ans"":""82""}","experiment","79","symbolcue_switch","82","true","add","","12","+","","","","","","","","","","","","","","","","","","","","","","","","",""
"","","","","","survey-text","247","602903","0.0-247.0","A12HZGOZQD5YK7","2022-05-31T13:49:12.679Z","task_switching-phon_sim-same_different-rhyme","","2026.7999999523163","task_switching","{""symbolcue_switch_ans"":""34""}","experiment","37","symbolcue_switch","34","true","subtract","","13","-","","","","","","","","","","","","","","","","","","","","","","","","",""
"","","","","","survey-text","248","604914","0.0-248.0","A12HZGOZQD5YK7","2022-05-31T13:49:12.679Z","task_switching-phon_sim-same_different-rhyme","","2008.8000000715256","task_switching","{""symbolcue_switch_ans"":""78""}","experiment","75","symbolcue_switch","78","true","add","","14","+","","","","","","","","","","","","","","","","","","","","","","","","",""
"","","","","","survey-text","249","607557","0.0-249.0","A12HZGOZQD5YK7","2022-05-31T13:49:12.679Z","task_switching-phon_sim-same_different-rhyme","","2642","task_switching","{""symbolcue_switch_ans"":""47""}","experiment","50","symbolcue_switch","47","true","subtract","","15","-","","","","","","","","","","","","","","","","","","","","","","","","",""
"","","","","","survey-text","250","609391","0.0-250.0","A12HZGOZQD5YK7","2022-05-31T13:49:12.679Z","task_switching-phon_sim-same_different-rhyme","","1831.9000000953674","task_switching","{""symbolcue_switch_ans"":""63""}","experiment","60","symbolcue_switch","63","true","add","","16","+","","","","","","","","","","","","","","","","","","","","","","","","",""
"","","","","","survey-text","251","610993","0.0-251.0","A12HZGOZQD5YK7","2022-05-31T13:49:12.679Z","task_switching-phon_sim-same_different-rhyme","","1600.4000000953674","task_switching","{""symbolcue_switch_ans"":""66""}","experiment","69","symbolcue_switch","66","true","subtract","","17","-","","","","","","","","","","","","","","","","","","","","","","","","",""
"","","","","","survey-text","252","614388","0.0-252.0","A12HZGOZQD5YK7","2022-05-31T13:49:12.679Z","task_switching-phon_sim-same_different-rhyme","","3393.899999976158","task_switching","{""symbolcue_switch_ans"":""98""}","experiment","95","symbolcue_switch","98","true","add","","18","+","","","","","","","","","","","","","","","","","","","","","","","","",""
"","","","","","survey-text","253","619770","0.0-253.0","A12HZGOZQD5YK7","2022-05-31T13:49:12.679Z","task_switching-phon_sim-same_different-rhyme","","5379.800000071526","task_switching","{""symbolcue_switch_ans"":""28""}","experiment","31","symbolcue_switch","28","true","subtract","","19","-","","","","","","","","","","","","","","","","","","","","","","","","",""
"","","","","","survey-text","254","624032","0.0-254.0","A12HZGOZQD5YK7","2022-05-31T13:49:12.679Z","task_switching-phon_sim-same_different-rhyme","","4261","task_switching","{""symbolcue_switch_ans"":""71""}","experiment","68","symbolcue_switch","71","true","add","","20","+","","","","","","","","","","","","","","","","","","","","","","","","",""
"","","","","","survey-text","255","628440","0.0-255.0","A12HZGOZQD5YK7","2022-05-31T13:49:12.679Z","task_switching-phon_sim-same_different-rhyme","","4405.700000047684","task_switching","{""symbolcue_switch_ans"":""64""}","experiment","67","symbolcue_switch","64","true","subtract","","21","-","","","","","","","","","","","","","","","","","","","","","","","","",""
"","","","","","survey-text","256","630342","0.0-256.0","A12HZGOZQD5YK7","2022-05-31T13:49:12.679Z","task_switching-phon_sim-same_different-rhyme","","1900.1999999284744","task_switching","{""symbolcue_switch_ans"":""35""}","experiment","32","symbolcue_switch","35","true","add","","22","+","","","","","","","","","","","","","","","","","","","","","","","","",""
"","","","","","survey-text","257","632125","0.0-257.0","A12HZGOZQD5YK7","2022-05-31T13:49:12.679Z","task_switching-phon_sim-same_different-rhyme","","1781.2000000476837","task_switching","{""symbolcue_switch_ans"":""40""}","experiment","43","symbolcue_switch","40","true","subtract","","23","-","","","","","","","","","","","","","","","","","","","","","","","","",""
"","","","","","survey-text","258","634111","0.0-258.0","A12HZGOZQD5YK7","2022-05-31T13:49:12.679Z","task_switching-phon_sim-same_different-rhyme","","1984","task_switching","{""symbolcue_switch_ans"":""28""}","experiment","25","symbolcue_switch","28","true","add","","24","+","","","","","","","","","","","","","","","","","","","","","","","","",""
"","","","","","survey-text","259","637776","0.0-259.0","A12HZGOZQD5YK7","2022-05-31T13:49:12.679Z","task_switching-phon_sim-same_different-rhyme","","3663.5","task_switching","{""symbolcue_switch_ans"":""46""}","experiment","49","symbolcue_switch","46","true","subtract","","25","-","","","","","","","","","","","","","","","","","","","","","","","","",""
"","","","","","survey-text","260","640493","0.0-260.0","A12HZGOZQD5YK7","2022-05-31T13:49:12.679Z","task_switching-phon_sim-same_different-rhyme","","2715.2000000476837","task_switching","{""symbolcue_switch_ans"":""25""}","experiment","22","symbolcue_switch","25","true","add","","26","+","","","","","","","","","","","","","","","","","","","","","","","","",""
"","","","","","survey-text","261","642341","0.0-261.0","A12HZGOZQD5YK7","2022-05-31T13:49:12.679Z","task_switching-phon_sim-same_different-rhyme","","1846.1000000238419","task_switching","{""symbolcue_switch_ans"":""17""}","experiment","20","symbolcue_switch","17","true","subtract","","27","-","","","","","","","","","","","","","","","","","","","","","","","","",""
"","","","","","survey-text","262","644059","0.0-262.0","A12HZGOZQD5YK7","2022-05-31T13:49:12.679Z","task_switching-phon_sim-same_different-rhyme","","1716.3999999761581","task_switching","{""symbolcue_switch_ans"":""49""}","experiment","46","symbolcue_switch","49","true","add","","28","+","","","","","","","","","","","","","","","","","","","","","","","","",""
"","","","","","survey-text","263","646117","0.0-263.0","A12HZGOZQD5YK7","2022-05-31T13:49:12.679Z","task_switching-phon_sim-same_different-rhyme","","2056.100000023842","task_switching","{""symbolcue_switch_ans"":""81""}","experiment","84","symbolcue_switch","81","true","subtract","","29","-","","","","","","","","","","","","","","","","","","","","","","","","",""
"","","","","","survey-multi-choice","264","651853","0.0-264.0","A12HZGOZQD5YK7","2022-05-31T13:49:12.679Z","task_switching-phon_sim-same_different-rhyme","","5735.399999976158","task_switching","{""Q0"":""No""}","","","","","","","","","","[0]","No","","","","","","","","","","","","","","","","","","","","","","",""
"","","","","","survey-text","265","698781","0.0-265.0","A12HZGOZQD5YK7","2022-05-31T13:49:12.679Z","task_switching-phon_sim-same_different-rhyme","","46925.39999997616","task_switching","{""Q0"":""I just added and subtracted and took my time when having to switch back and forth from adding and subtracting.""}","","","","","","","","","","","","I just added and subtracted and took my time when having to switch back and forth from adding and subtracting.","","","","","","","","","","","","","","","","","","","","","",""
"","","","","","instructions","266","701064","0.0-266.0","A12HZGOZQD5YK7","2022-05-31T13:49:12.679Z","task_switching-phon_sim-same_different-rhyme","[{""page_index"":0,""viewing_time"":2281.9000000953674}]","2282.2000000476837","task_switching","","","","","","","","","","","","","","","","","","","","","","","","","","","","","","","","","","",""
"","","","","","instructions","267","723647","0.0-267.0","A12HZGOZQD5YK7","2022-05-31T13:49:12.679Z","task_switching-phon_sim-same_different-rhyme","[{""page_index"":0,""viewing_time"":22582.300000071526}]","22582.600000023842","phon_sim","","","","","","","","","","","","","","","","","","","","","","","","","","","","","","","","","","",""
"","","","","","html-keyboard-response","268","736657","0.0-268.0-0.0","A12HZGOZQD5YK7","2022-05-31T13:49:12.679Z","task_switching-phon_sim-same_different-rhyme","","null","phon_sim","null","training","<div style=""display:grid""><h1 id=""word_1"" style=""grid-column:1; grid-row:1"">pen</h1><h1 id=""word_2"" style=""visibility:hidden;grid-column:1; grid-row:1"">rig</h1><h1 id=""word_3"" style=""visibility:hidden;grid-column:1; grid-row:1"">day</h1><h1 id=""word_4"" style=""visibility:hidden;grid-column:1; grid-row:1"">bar</h1><h1 id=""word_5"" style=""visibility:hidden;grid-column:1; grid-row:1"">cow</h1></div>","","","","","","","","","","","pen","rig","day","bar","cow","training","","","","","","","","","","","","","","","",""
"","","","","","survey-text","269","744069","0.0-268.0-1.0","A12HZGOZQD5YK7","2022-05-31T13:49:12.679Z","task_switching-phon_sim-same_different-rhyme","","7407.799999952316","phon_sim","{""position_1"":""pen"",""position_2"":""rig"",""position_3"":""day"",""position_4"":""bar"",""position_5"":""cow""}","training","","","","","","","","","","","","","","","","","","pen","rig","day","bar","cow","","","","","","","","","","",""
"","","","","","html-keyboard-response","270","749076","0.0-268.0-2.0","A12HZGOZQD5YK7","2022-05-31T13:49:12.679Z","task_switching-phon_sim-same_different-rhyme","","null","phon_sim","null","","<h1 id=""word_1"">pen</h1><h1 id=""word_2"">rig</h1><h1 id=""word_3"">day</h1><h1 id=""word_4"">bar</h1><h1 id=""word_5"">cow</h1>","","","","","","","","","","","","","","","","","","","","","","","","","","","","","","","",""
"","","","","","html-keyboard-response","271","762078","0.0-268.0-0.1","A12HZGOZQD5YK7","2022-05-31T13:49:12.679Z","task_switching-phon_sim-same_different-rhyme","","null","phon_sim","null","training","<div style=""display:grid""><h1 id=""word_1"" style=""grid-column:1; grid-row:1"">mad</h1><h1 id=""word_2"" style=""visibility:hidden;grid-column:1; grid-row:1"">man</h1><h1 id=""word_3"" style=""visibility:hidden;grid-column:1; grid-row:1"">map</h1><h1 id=""word_4"" style=""visibility:hidden;grid-column:1; grid-row:1"">mat</h1><h1 id=""word_5"" style=""visibility:hidden;grid-column:1; grid-row:1"">max</h1></div>","","","","","","","","","","","mad","man","map","mat","max","training","","","","","","","","","","","","","","","",""
