"success","timeout","failed_images","failed_audio","failed_video","trial_type","trial_index","time_elapsed","internal_node_id","worker_id","start_time","experiment_order","view_history","rt","experiment","stimulus","response","phase","word_1","word_2","word_3","word_4","word_5","original_word_set","response_1","response_2","response_3","response_4","response_5","question_order","talk_out_loud","strategy_free_ans","condition","answer","correct","operation","symbol_cue","trial_no","color_cue","wait_time","image_1","image_2","cor_key","type","judgment_type","stim_1","stim_2","inverted","true_neg","true_pos","false_pos","false_neg"
"true","false","[]","[]","[]","preload","0","2916","0.0-0.0","A1WH32GYQOHIRQ","2022-05-18T15:31:36.495Z","phon_sim-task_switching-rhyme-same_different","","","","","","","","","","","","","","","","","","","","","","","","","","","","","","","","","","","","","","","",""
"","","","","","instructions","1","42554","0.0-1.0","A1WH32GYQOHIRQ","2022-05-18T15:31:36.495Z","phon_sim-task_switching-rhyme-same_different","[{""page_index"":0,""viewing_time"":39636.89999997616}]","39637.200000047684","","","","","","","","","","","","","","","","","","","","","","","","","","","","","","","","","","","","","",""
"true","","","","","fullscreen","2","45349","0.0-2.0","A1WH32GYQOHIRQ","2022-05-18T15:31:36.495Z","phon_sim-task_switching-rhyme-same_different","","","","","","","","","","","","","","","","","","","","","","","","","","","","","","","","","","","","","","","",""
"","","","","","instructions","3","58040","0.0-3.0","A1WH32GYQOHIRQ","2022-05-18T15:31:36.495Z","phon_sim-task_switching-rhyme-same_different","[{""page_index"":0,""viewing_time"":12689.200000047684}]","12689.5","phon_sim","","","","","","","","","","","","","","","","","","","","","","","","","","","","","","","","","","","","",""
"","","","","","html-keyboard-response","4","71046","0.0-4.0-0.0","A1WH32GYQOHIRQ","2022-05-18T15:31:36.495Z","phon_sim-task_switching-rhyme-same_different","","null","phon_sim","<div style=""display:grid""><h1 id=""word_1"" style=""grid-column:1; grid-row:1"">pen</h1><h1 id=""word_2"" style=""visibility:hidden;grid-column:1; grid-row:1"">rig</h1><h1 id=""word_3"" style=""visibility:hidden;grid-column:1; grid-row:1"">day</h1><h1 id=""word_4"" style=""visibility:hidden;grid-column:1; grid-row:1"">bar</h1><h1 id=""word_5"" style=""visibility:hidden;grid-column:1; grid-row:1"">cow</h1></div>","null","training","pen","rig","day","bar","cow","training","","","","","","","","","","","","","","","","","","","","","","","","","","","",""
"","","","","","survey-text","5","86976","0.0-4.0-1.0","A1WH32GYQOHIRQ","2022-05-18T15:31:36.495Z","phon_sim-task_switching-rhyme-same_different","","15923.199999928474","phon_sim","","{""position_1"":""pen"",""position_2"":""rig"",""position_3"":""day"",""position_4"":""bar"",""position_5"":""cow""}","training","","","","","","","pen","rig","day","bar","cow","","","","","","","","","","","","","","","","","","","","","","",""
"","","","","","html-keyboard-response","6","91983","0.0-4.0-2.0","A1WH32GYQOHIRQ","2022-05-18T15:31:36.495Z","phon_sim-task_switching-rhyme-same_different","","null","phon_sim","<h1 id=""word_1"">pen</h1><h1 id=""word_2"">rig</h1><h1 id=""word_3"">day</h1><h1 id=""word_4"">bar</h1><h1 id=""word_5"">cow</h1>","null","","","","","","","","","","","","","","","","","","","","","","","","","","","","","","","","","","",""
"","","","","","html-keyboard-response","7","104988","0.0-4.0-0.1","A1WH32GYQOHIRQ","2022-05-18T15:31:36.495Z","phon_sim-task_switching-rhyme-same_different","","null","phon_sim","<div style=""display:grid""><h1 id=""word_1"" style=""grid-column:1; grid-row:1"">mad</h1><h1 id=""word_2"" style=""visibility:hidden;grid-column:1; grid-row:1"">man</h1><h1 id=""word_3"" style=""visibility:hidden;grid-column:1; grid-row:1"">map</h1><h1 id=""word_4"" style=""visibility:hidden;grid-column:1; grid-row:1"">mat</h1><h1 id=""word_5"" style=""visibility:hidden;grid-column:1; grid-row:1"">max</h1></div>","null","training","mad","man","map","mat","max","training","","","","","","","","","","","","","","","","","","","","","","","","","","","",""
"","","","","","survey-text","8","146191","0.0-4.0-1.1","A1WH32GYQOHIRQ","2022-05-18T15:31:36.495Z","phon_sim-task_switching-rhyme-same_different","","41198.60000002384","phon_sim","","{""position_1"":""mad"",""position_2"":""man"",""position_3"":""map"",""position_4"":""mat"",""position_5"":""""}","training","","","","","","","mad","man","map","mat","","","","","","","","","","","","","","","","","","","","","","","",""
"","","","","","html-keyboard-response","9","151195","0.0-4.0-2.1","A1WH32GYQOHIRQ","2022-05-18T15:31:36.495Z","phon_sim-task_switching-rhyme-same_different","","null","phon_sim","<h1 id=""word_1"">mad</h1><h1 id=""word_2"">man</h1><h1 id=""word_3"">map</h1><h1 id=""word_4"">mat</h1><h1 id=""word_5"">max</h1>","null","","","","","","","","","","","","","","","","","","","","","","","","","","","","","","","","","","",""
"","","","","","instructions","10","155439","0.0-5.0","A1WH32GYQOHIRQ","2022-05-18T15:31:36.495Z","phon_sim-task_switching-rhyme-same_different","[{""page_index"":0,""viewing_time"":4243.600000023842}]","4243.899999976158","","","","","","","","","","","","","","","","","","","","","","","","","","","","","","","","","","","","","",""
"","","","","","html-keyboard-response","11","168446","0.0-6.0-0.0","A1WH32GYQOHIRQ","2022-05-18T15:31:36.495Z","phon_sim-task_switching-rhyme-same_different","","null","phon_sim","<div style=""display:grid""><h1 id=""word_1"" style=""grid-column:1; grid-row:1"">taut</h1><h1 id=""word_2"" style=""visibility:hidden;grid-column:1; grid-row:1"">bought</h1><h1 id=""word_3"" style=""visibility:hidden;grid-column:1; grid-row:1"">caught</h1><h1 id=""word_4"" style=""visibility:hidden;grid-column:1; grid-row:1"">wart</h1><h1 id=""word_5"" style=""visibility:hidden;grid-column:1; grid-row:1"">sort</h1></div>","null","experiment","taut","bought","caught","wart","sort","phonSet","","","","","","","","","","","","","","","","","","","","","","","","","","","",""
"","","","","","survey-text","12","190407","0.0-6.0-1.0","A1WH32GYQOHIRQ","2022-05-18T15:31:36.495Z","phon_sim-task_switching-rhyme-same_different","","21955.700000047684","phon_sim","","{""position_1"":""taut"",""position_2"":""bought"",""position_3"":""caught"",""position_4"":""wart"",""position_5"":""dart""}","experiment","","","","","","","taut","bought","caught","wart","dart","","","","","","","","","","","","","","","","","","","","","","",""
"","","","","","html-keyboard-response","13","203414","0.0-6.0-0.1","A1WH32GYQOHIRQ","2022-05-18T15:31:36.495Z","phon_sim-task_switching-rhyme-same_different","","null","phon_sim","<div style=""display:grid""><h1 id=""word_1"" style=""grid-column:1; grid-row:1"">cough</h1><h1 id=""word_2"" style=""visibility:hidden;grid-column:1; grid-row:1"">bough</h1><h1 id=""word_3"" style=""visibility:hidden;grid-column:1; grid-row:1"">rough</h1><h1 id=""word_4"" style=""visibility:hidden;grid-column:1; grid-row:1"">through</h1><h1 id=""word_5"" style=""visibility:hidden;grid-column:1; grid-row:1"">dough</h1></div>","null","experiment","cough","bough","rough","through","dough","orthoSet","","","","","","","","","","","","","","","","","","","","","","","","","","","",""
"","","","","","survey-text","14","301483","0.0-6.0-1.1","A1WH32GYQOHIRQ","2022-05-18T15:31:36.495Z","phon_sim-task_switching-rhyme-same_different","","98063.60000002384","phon_sim","","{""position_1"":""cough"",""position_2"":""bough"",""position_3"":""through"",""position_4"":"""",""position_5"":""""}","experiment","","","","","","","cough","bough","through","","","","","","","","","","","","","","","","","","","","","","","","",""
"","","","","","html-keyboard-response","15","314488","0.0-6.0-0.2","A1WH32GYQOHIRQ","2022-05-18T15:31:36.495Z","phon_sim-task_switching-rhyme-same_different","","null","phon_sim","<div style=""display:grid""><h1 id=""word_1"" style=""grid-column:1; grid-row:1"">board</h1><h1 id=""word_2"" style=""visibility:hidden;grid-column:1; grid-row:1"">plea</h1><h1 id=""word_3"" style=""visibility:hidden;grid-column:1; grid-row:1"">sleigh</h1><h1 id=""word_4"" style=""visibility:hidden;grid-column:1; grid-row:1"">friend</h1><h1 id=""word_5"" style=""visibility:hidden;grid-column:1; grid-row:1"">row</h1></div>","null","experiment","board","plea","sleigh","friend","row","controlSet","","","","","","","","","","","","","","","","","","","","","","","","","","","",""
"","","","","","survey-text","16","349798","0.0-6.0-1.2","A1WH32GYQOHIRQ","2022-05-18T15:31:36.495Z","phon_sim-task_switching-rhyme-same_different","","35304.39999997616","phon_sim","","{""position_1"":""board"",""position_2"":""plead"",""position_3"":""friend"",""position_4"":""row"",""position_5"":""bow""}","experiment","","","","","","","board","plead","friend","row","bow","","","","","","","","","","","","","","","","","","","","","","",""
"","","","","","html-keyboard-response","17","362804","0.0-6.0-0.3","A1WH32GYQOHIRQ","2022-05-18T15:31:36.495Z","phon_sim-task_switching-rhyme-same_different","","null","phon_sim","<div style=""display:grid""><h1 id=""word_1"" style=""grid-column:1; grid-row:1"">wart</h1><h1 id=""word_2"" style=""visibility:hidden;grid-column:1; grid-row:1"">bought</h1><h1 id=""word_3"" style=""visibility:hidden;grid-column:1; grid-row:1"">caught</h1><h1 id=""word_4"" style=""visibility:hidden;grid-column:1; grid-row:1"">taut</h1><h1 id=""word_5"" style=""visibility:hidden;grid-column:1; grid-row:1"">sort</h1></div>","null","experiment","wart","bought","caught","taut","sort","phonSet","","","","","","","","","","","","","","","","","","","","","","","","","","","",""
"","","","","","survey-text","18","384118","0.0-6.0-1.3","A1WH32GYQOHIRQ","2022-05-18T15:31:36.495Z","phon_sim-task_switching-rhyme-same_different","","21308.200000047684","phon_sim","","{""position_1"":""wart"",""position_2"":""bought"",""position_3"":""caught"",""position_4"":""taut"",""position_5"":""sort""}","experiment","","","","","","","wart","bought","caught","taut","sort","","","","","","","","","","","","","","","","","","","","","","",""
"","","","","","html-keyboard-response","19","397126","0.0-6.0-0.4","A1WH32GYQOHIRQ","2022-05-18T15:31:36.495Z","phon_sim-task_switching-rhyme-same_different","","null","phon_sim","<div style=""display:grid""><h1 id=""word_1"" style=""grid-column:1; grid-row:1"">bought</h1><h1 id=""word_2"" style=""visibility:hidden;grid-column:1; grid-row:1"">sort</h1><h1 id=""word_3"" style=""visibility:hidden;grid-column:1; grid-row:1"">taut</h1><h1 id=""word_4"" style=""visibility:hidden;grid-column:1; grid-row:1"">wart</h1><h1 id=""word_5"" style=""visibility:hidden;grid-column:1; grid-row:1"">caught</h1></div>","null","experiment","bought","sort","taut","wart","caught","phonSet","","","","","","","","","","","","","","","","","","","","","","","","","","","",""
"","","","","","survey-text","20","443826","0.0-6.0-1.4","A1WH32GYQOHIRQ","2022-05-18T15:31:36.495Z","phon_sim-task_switching-rhyme-same_different","","46694.800000071526","phon_sim","","{""position_1"":""bought"",""position_2"":""sort"",""position_3"":""wart"",""position_4"":""taut"",""position_5"":""caught""}","experiment","","","","","","","bought","sort","wart","taut","caught","","","","","","","","","","","","","","","","","","","","","","",""
"","","","","","html-keyboard-response","21","456835","0.0-6.0-0.5","A1WH32GYQOHIRQ","2022-05-18T15:31:36.495Z","phon_sim-task_switching-rhyme-same_different","","null","phon_sim","<div style=""display:grid""><h1 id=""word_1"" style=""grid-column:1; grid-row:1"">row</h1><h1 id=""word_2"" style=""visibility:hidden;grid-column:1; grid-row:1"">sleigh</h1><h1 id=""word_3"" style=""visibility:hidden;grid-column:1; grid-row:1"">board</h1><h1 id=""word_4"" style=""visibility:hidden;grid-column:1; grid-row:1"">plea</h1><h1 id=""word_5"" style=""visibility:hidden;grid-column:1; grid-row:1"">friend</h1></div>","null","experiment","row","sleigh","board","plea","friend","controlSet","","","","","","","","","","","","","","","","","","","","","","","","","","","",""
"","","","","","survey-text","22","478237","0.0-6.0-1.5","A1WH32GYQOHIRQ","2022-05-18T15:31:36.495Z","phon_sim-task_switching-rhyme-same_different","","21396.899999976158","phon_sim","","{""position_1"":""row"",""position_2"":""sleigh"",""position_3"":""board"",""position_4"":""plead"",""position_5"":""friend""}","experiment","","","","","","","row","sleigh","board","plead","friend","","","","","","","","","","","","","","","","","","","","","","",""
"","","","","","html-keyboard-response","23","491245","0.0-6.0-0.6","A1WH32GYQOHIRQ","2022-05-18T15:31:36.495Z","phon_sim-task_switching-rhyme-same_different","","null","phon_sim","<div style=""display:grid""><h1 id=""word_1"" style=""grid-column:1; grid-row:1"">friend</h1><h1 id=""word_2"" style=""visibility:hidden;grid-column:1; grid-row:1"">plea</h1><h1 id=""word_3"" style=""visibility:hidden;grid-column:1; grid-row:1"">row</h1><h1 id=""word_4"" style=""visibility:hidden;grid-column:1; grid-row:1"">sleigh</h1><h1 id=""word_5"" style=""visibility:hidden;grid-column:1; grid-row:1"">board</h1></div>","null","experiment","friend","plea","row","sleigh","board","controlSet","","","","","","","","","","","","","","","","","","","","","","","","","","","",""
"","","","","","survey-text","24","512293","0.0-6.0-1.6","A1WH32GYQOHIRQ","2022-05-18T15:31:36.495Z","phon_sim-task_switching-rhyme-same_different","","21042.799999952316","phon_sim","","{""position_1"":""friend"",""position_2"":""plea"",""position_3"":""row"",""position_4"":""sleigh"",""position_5"":""board""}","experiment","","","","","","","friend","plea","row","sleigh","board","","","","","","","","","","","","","","","","","","","","","","",""
"","","","","","html-keyboard-response","25","525299","0.0-6.0-0.7","A1WH32GYQOHIRQ","2022-05-18T15:31:36.495Z","phon_sim-task_switching-rhyme-same_different","","null","phon_sim","<div style=""display:grid""><h1 id=""word_1"" style=""grid-column:1; grid-row:1"">taut</h1><h1 id=""word_2"" style=""visibility:hidden;grid-column:1; grid-row:1"">sort</h1><h1 id=""word_3"" style=""visibility:hidden;grid-column:1; grid-row:1"">caught</h1><h1 id=""word_4"" style=""visibility:hidden;grid-column:1; grid-row:1"">bought</h1><h1 id=""word_5"" style=""visibility:hidden;grid-column:1; grid-row:1"">wart</h1></div>","null","experiment","taut","sort","caught","bought","wart","phonSet","","","","","","","","","","","","","","","","","","","","","","","","","","","",""
"","","","","","survey-text","26","558220","0.0-6.0-1.7","A1WH32GYQOHIRQ","2022-05-18T15:31:36.495Z","phon_sim-task_switching-rhyme-same_different","","32917.89999997616","phon_sim","","{""position_1"":""taut"",""position_2"":""sort"",""position_3"":""caught"",""position_4"":""bought"",""position_5"":""wart""}","experiment","","","","","","","taut","sort","caught","bought","wart","","","","","","","","","","","","","","","","","","","","","","",""
"","","","","","html-keyboard-response","27","571228","0.0-6.0-0.8","A1WH32GYQOHIRQ","2022-05-18T15:31:36.495Z","phon_sim-task_switching-rhyme-same_different","","null","phon_sim","<div style=""display:grid""><h1 id=""word_1"" style=""grid-column:1; grid-row:1"">taut</h1><h1 id=""word_2"" style=""visibility:hidden;grid-column:1; grid-row:1"">wart</h1><h1 id=""word_3"" style=""visibility:hidden;grid-column:1; grid-row:1"">sort</h1><h1 id=""word_4"" style=""visibility:hidden;grid-column:1; grid-row:1"">caught</h1><h1 id=""word_5"" style=""visibility:hidden;grid-column:1; grid-row:1"">bought</h1></div>","null","experiment","taut","wart","sort","caught","bought","phonSet","","","","","","","","","","","","","","","","","","","","","","","","","","","",""
"","","","","","survey-text","28","603720","0.0-6.0-1.8","A1WH32GYQOHIRQ","2022-05-18T15:31:36.495Z","phon_sim-task_switching-rhyme-same_different","","32486.299999952316","phon_sim","","{""position_1"":""taut"",""position_2"":""wart"",""position_3"":""sort"",""position_4"":""caught"",""position_5"":""bought""}","experiment","","","","","","","taut","wart","sort","caught","bought","","","","","","","","","","","","","","","","","","","","","","",""
"","","","","","html-keyboard-response","29","616723","0.0-6.0-0.9","A1WH32GYQOHIRQ","2022-05-18T15:31:36.495Z","phon_sim-task_switching-rhyme-same_different","","null","phon_sim","<div style=""display:grid""><h1 id=""word_1"" style=""grid-column:1; grid-row:1"">rough</h1><h1 id=""word_2"" style=""visibility:hidden;grid-column:1; grid-row:1"">dough</h1><h1 id=""word_3"" style=""visibility:hidden;grid-column:1; grid-row:1"">through</h1><h1 id=""word_4"" style=""visibility:hidden;grid-column:1; grid-row:1"">bough</h1><h1 id=""word_5"" style=""visibility:hidden;grid-column:1; grid-row:1"">cough</h1></div>","null","experiment","rough","dough","through","bough","cough","orthoSet","","","","","","","","","","","","","","","","","","","","","","","","","","","",""
"","","","","","survey-text","30","637764","0.0-6.0-1.9","A1WH32GYQOHIRQ","2022-05-18T15:31:36.495Z","phon_sim-task_switching-rhyme-same_different","","21036.600000023842","phon_sim","","{""position_1"":""rough"",""position_2"":""dough"",""position_3"":""through"",""position_4"":""bough"",""position_5"":""""}","experiment","","","","","","","rough","dough","through","bough","","","","","","","","","","","","","","","","","","","","","","","",""
"","","","","","html-keyboard-response","31","650771","0.0-6.0-0.10","A1WH32GYQOHIRQ","2022-05-18T15:31:36.495Z","phon_sim-task_switching-rhyme-same_different","","null","phon_sim","<div style=""display:grid""><h1 id=""word_1"" style=""grid-column:1; grid-row:1"">board</h1><h1 id=""word_2"" style=""visibility:hidden;grid-column:1; grid-row:1"">sleigh</h1><h1 id=""word_3"" style=""visibility:hidden;grid-column:1; grid-row:1"">friend</h1><h1 id=""word_4"" style=""visibility:hidden;grid-column:1; grid-row:1"">row</h1><h1 id=""word_5"" style=""visibility:hidden;grid-column:1; grid-row:1"">plea</h1></div>","null","experiment","board","sleigh","friend","row","plea","controlSet","","","","","","","","","","","","","","","","","","","","","","","","","","","",""
"","","","","","survey-text","32","671340","0.0-6.0-1.10","A1WH32GYQOHIRQ","2022-05-18T15:31:36.495Z","phon_sim-task_switching-rhyme-same_different","","20562.600000023842","phon_sim","","{""position_1"":""board"",""position_2"":""sleigh"",""position_3"":""row"",""position_4"":""plea"",""position_5"":""friend""}","experiment","","","","","","","board","sleigh","row","plea","friend","","","","","","","","","","","","","","","","","","","","","","",""
"","","","","","html-keyboard-response","33","684346","0.0-6.0-0.11","A1WH32GYQOHIRQ","2022-05-18T15:31:36.495Z","phon_sim-task_switching-rhyme-same_different","","null","phon_sim","<div style=""display:grid""><h1 id=""word_1"" style=""grid-column:1; grid-row:1"">sleigh</h1><h1 id=""word_2"" style=""visibility:hidden;grid-column:1; grid-row:1"">friend</h1><h1 id=""word_3"" style=""visibility:hidden;grid-column:1; grid-row:1"">plea</h1><h1 id=""word_4"" style=""visibility:hidden;grid-column:1; grid-row:1"">row</h1><h1 id=""word_5"" style=""visibility:hidden;grid-column:1; grid-row:1"">board</h1></div>","null","experiment","sleigh","friend","plea","row","board","controlSet","","","","","","","","","","","","","","","","","","","","","","","","","","","",""
"","","","","","survey-text","34","711516","0.0-6.0-1.11","A1WH32GYQOHIRQ","2022-05-18T15:31:36.495Z","phon_sim-task_switching-rhyme-same_different","","27164.899999976158","phon_sim","","{""position_1"":""sleigh"",""position_2"":""friend"",""position_3"":""plea"",""position_4"":""row"",""position_5"":""board""}","experiment","","","","","","","sleigh","friend","plea","row","board","","","","","","","","","","","","","","","","","","","","","","",""
"","","","","","html-keyboard-response","35","724524","0.0-6.0-0.12","A1WH32GYQOHIRQ","2022-05-18T15:31:36.495Z","phon_sim-task_switching-rhyme-same_different","","null","phon_sim","<div style=""display:grid""><h1 id=""word_1"" style=""grid-column:1; grid-row:1"">bought</h1><h1 id=""word_2"" style=""visibility:hidden;grid-column:1; grid-row:1"">wart</h1><h1 id=""word_3"" style=""visibility:hidden;grid-column:1; grid-row:1"">taut</h1><h1 id=""word_4"" style=""visibility:hidden;grid-column:1; grid-row:1"">caught</h1><h1 id=""word_5"" style=""visibility:hidden;grid-column:1; grid-row:1"">sort</h1></div>","null","experiment","bought","wart","taut","caught","sort","phonSet","","","","","","","","","","","","","","","","","","","","","","","","","","","",""
"","","","","","survey-text","36","785216","0.0-6.0-1.12","A1WH32GYQOHIRQ","2022-05-18T15:31:36.495Z","phon_sim-task_switching-rhyme-same_different","","60687.200000047684","phon_sim","","{""position_1"":""caught"",""position_2"":""bought"",""position_3"":""through"",""position_4"":""sort"",""position_5"":""wart""}","experiment","","","","","","","caught","bought","through","sort","wart","","","","","","","","","","","","","","","","","","","","","","",""
"","","","","","html-keyboard-response","37","798224","0.0-6.0-0.13","A1WH32GYQOHIRQ","2022-05-18T15:31:36.495Z","phon_sim-task_switching-rhyme-same_different","","null","phon_sim","<div style=""display:grid""><h1 id=""word_1"" style=""grid-column:1; grid-row:1"">row</h1><h1 id=""word_2"" style=""visibility:hidden;grid-column:1; grid-row:1"">friend</h1><h1 id=""word_3"" style=""visibility:hidden;grid-column:1; grid-row:1"">plea</h1><h1 id=""word_4"" style=""visibility:hidden;grid-column:1; grid-row:1"">sleigh</h1><h1 id=""word_5"" style=""visibility:hidden;grid-column:1; grid-row:1"">board</h1></div>","null","experiment","row","friend","plea","sleigh","board","controlSet","","","","","","","","","","","","","","","","","","","","","","","","","","","",""
"","","","","","survey-text","38","818476","0.0-6.0-1.13","A1WH32GYQOHIRQ","2022-05-18T15:31:36.495Z","phon_sim-task_switching-rhyme-same_different","","20246.399999976158","phon_sim","","{""position_1"":""row"",""position_2"":""friend"",""position_3"":""plea"",""position_4"":""sleigh"",""position_5"":""board""}","experiment","","","","","","","row","friend","plea","sleigh","board","","","","","","","","","","","","","","","","","","","","","","",""
"","","","","","html-keyboard-response","39","831484","0.0-6.0-0.14","A1WH32GYQOHIRQ","2022-05-18T15:31:36.495Z","phon_sim-task_switching-rhyme-same_different","","null","phon_sim","<div style=""display:grid""><h1 id=""word_1"" style=""grid-column:1; grid-row:1"">sort</h1><h1 id=""word_2"" style=""visibility:hidden;grid-column:1; grid-row:1"">wart</h1><h1 id=""word_3"" style=""visibility:hidden;grid-column:1; grid-row:1"">bought</h1><h1 id=""word_4"" style=""visibility:hidden;grid-column:1; grid-row:1"">caught</h1><h1 id=""word_5"" style=""visibility:hidden;grid-column:1; grid-row:1"">taut</h1></div>","null","experiment","sort","wart","bought","caught","taut","phonSet","","","","","","","","","","","","","","","","","","","","","","","","","","","",""
"","","","","","survey-text","40","850307","0.0-6.0-1.14","A1WH32GYQOHIRQ","2022-05-18T15:31:36.495Z","phon_sim-task_switching-rhyme-same_different","","18817.899999976158","phon_sim","","{""position_1"":""sort"",""position_2"":""wart"",""position_3"":""bought"",""position_4"":""taut"",""position_5"":""caught""}","experiment","","","","","","","sort","wart","bought","taut","caught","","","","","","","","","","","","","","","","","","","","","","",""
"","","","","","html-keyboard-response","41","863309","0.0-6.0-0.15","A1WH32GYQOHIRQ","2022-05-18T15:31:36.495Z","phon_sim-task_switching-rhyme-same_different","","null","phon_sim","<div style=""display:grid""><h1 id=""word_1"" style=""grid-column:1; grid-row:1"">board</h1><h1 id=""word_2"" style=""visibility:hidden;grid-column:1; grid-row:1"">plea</h1><h1 id=""word_3"" style=""visibility:hidden;grid-column:1; grid-row:1"">sleigh</h1><h1 id=""word_4"" style=""visibility:hidden;grid-column:1; grid-row:1"">row</h1><h1 id=""word_5"" style=""visibility:hidden;grid-column:1; grid-row:1"">friend</h1></div>","null","experiment","board","plea","sleigh","row","friend","controlSet","","","","","","","","","","","","","","","","","","","","","","","","","","","",""
"","","","","","survey-text","42","874529","0.0-6.0-1.15","A1WH32GYQOHIRQ","2022-05-18T15:31:36.495Z","phon_sim-task_switching-rhyme-same_different","","11216","phon_sim","","{""position_1"":""board"",""position_2"":""plea"",""position_3"":""sleigh"",""position_4"":""row"",""position_5"":""friend""}","experiment","","","","","","","board","plea","sleigh","row","friend","","","","","","","","","","","","","","","","","","","","","","",""
"","","","","","html-keyboard-response","43","887535","0.0-6.0-0.16","A1WH32GYQOHIRQ","2022-05-18T15:31:36.495Z","phon_sim-task_switching-rhyme-same_different","","null","phon_sim","<div style=""display:grid""><h1 id=""word_1"" style=""grid-column:1; grid-row:1"">bough</h1><h1 id=""word_2"" style=""visibility:hidden;grid-column:1; grid-row:1"">through</h1><h1 id=""word_3"" style=""visibility:hidden;grid-column:1; grid-row:1"">dough</h1><h1 id=""word_4"" style=""visibility:hidden;grid-column:1; grid-row:1"">cough</h1><h1 id=""word_5"" style=""visibility:hidden;grid-column:1; grid-row:1"">rough</h1></div>","null","experiment","bough","through","dough","cough","rough","orthoSet","","","","","","","","","","","","","","","","","","","","","","","","","","","",""
"","","","","","survey-text","44","913082","0.0-6.0-1.16","A1WH32GYQOHIRQ","2022-05-18T15:31:36.495Z","phon_sim-task_switching-rhyme-same_different","","25542.200000047684","phon_sim","","{""position_1"":""bough"",""position_2"":""through"",""position_3"":""dough"",""position_4"":""rough"",""position_5"":""cough""}","experiment","","","","","","","bough","through","dough","rough","cough","","","","","","","","","","","","","","","","","","","","","","",""
"","","","","","html-keyboard-response","45","926085","0.0-6.0-0.17","A1WH32GYQOHIRQ","2022-05-18T15:31:36.495Z","phon_sim-task_switching-rhyme-same_different","","null","phon_sim","<div style=""display:grid""><h1 id=""word_1"" style=""grid-column:1; grid-row:1"">rough</h1><h1 id=""word_2"" style=""visibility:hidden;grid-column:1; grid-row:1"">cough</h1><h1 id=""word_3"" style=""visibility:hidden;grid-column:1; grid-row:1"">dough</h1><h1 id=""word_4"" style=""visibility:hidden;grid-column:1; grid-row:1"">through</h1><h1 id=""word_5"" style=""visibility:hidden;grid-column:1; grid-row:1"">bough</h1></div>","null","experiment","rough","cough","dough","through","bough","orthoSet","","","","","","","","","","","","","","","","","","","","","","","","","","","",""
"","","","","","survey-text","46","953233","0.0-6.0-1.17","A1WH32GYQOHIRQ","2022-05-18T15:31:36.495Z","phon_sim-task_switching-rhyme-same_different","","27142.5","phon_sim","","{""position_1"":""rough"",""position_2"":""cough"",""position_3"":""through"",""position_4"":""bough"",""position_5"":""dough""}","experiment","","","","","","","rough","cough","through","bough","dough","","","","","","","","","","","","","","","","","","","","","","",""
"","","","","","html-keyboard-response","47","966240","0.0-6.0-0.18","A1WH32GYQOHIRQ","2022-05-18T15:31:36.495Z","phon_sim-task_switching-rhyme-same_different","","null","phon_sim","<div style=""display:grid""><h1 id=""word_1"" style=""grid-column:1; grid-row:1"">through</h1><h1 id=""word_2"" style=""visibility:hidden;grid-column:1; grid-row:1"">rough</h1><h1 id=""word_3"" style=""visibility:hidden;grid-column:1; grid-row:1"">bough</h1><h1 id=""word_4"" style=""visibility:hidden;grid-column:1; grid-row:1"">cough</h1><h1 id=""word_5"" style=""visibility:hidden;grid-column:1; grid-row:1"">dough</h1></div>","null","experiment","through","rough","bough","cough","dough","orthoSet","","","","","","","","","","","","","","","","","","","","","","","","","","","",""
"","","","","","survey-text","48","976690","0.0-6.0-1.18","A1WH32GYQOHIRQ","2022-05-18T15:31:36.495Z","phon_sim-task_switching-rhyme-same_different","","10445.399999976158","phon_sim","","{""position_1"":""through"",""position_2"":""rough"",""position_3"":""bough"",""position_4"":""cough"",""position_5"":""dough""}","experiment","","","","","","","through","rough","bough","cough","dough","","","","","","","","","","","","","","","","","","","","","","",""
"","","","","","html-keyboard-response","49","989693","0.0-6.0-0.19","A1WH32GYQOHIRQ","2022-05-18T15:31:36.495Z","phon_sim-task_switching-rhyme-same_different","","null","phon_sim","<div style=""display:grid""><h1 id=""word_1"" style=""grid-column:1; grid-row:1"">cough</h1><h1 id=""word_2"" style=""visibility:hidden;grid-column:1; grid-row:1"">dough</h1><h1 id=""word_3"" style=""visibility:hidden;grid-column:1; grid-row:1"">bough</h1><h1 id=""word_4"" style=""visibility:hidden;grid-column:1; grid-row:1"">through</h1><h1 id=""word_5"" style=""visibility:hidden;grid-column:1; grid-row:1"">rough</h1></div>","null","experiment","cough","dough","bough","through","rough","orthoSet","","","","","","","","","","","","","","","","","","","","","","","","","","","",""
"","","","","","survey-text","50","1003090","0.0-6.0-1.19","A1WH32GYQOHIRQ","2022-05-18T15:31:36.495Z","phon_sim-task_switching-rhyme-same_different","","13391.900000095367","phon_sim","","{""position_1"":""cough"",""position_2"":""dough"",""position_3"":""bough"",""position_4"":""through"",""position_5"":""rough""}","experiment","","","","","","","cough","dough","bough","through","rough","","","","","","","","","","","","","","","","","","","","","","",""
"","","","","","html-keyboard-response","51","1016095","0.0-6.0-0.20","A1WH32GYQOHIRQ","2022-05-18T15:31:36.495Z","phon_sim-task_switching-rhyme-same_different","","null","phon_sim","<div style=""display:grid""><h1 id=""word_1"" style=""grid-column:1; grid-row:1"">rough</h1><h1 id=""word_2"" style=""visibility:hidden;grid-column:1; grid-row:1"">dough</h1><h1 id=""word_3"" style=""visibility:hidden;grid-column:1; grid-row:1"">through</h1><h1 id=""word_4"" style=""visibility:hidden;grid-column:1; grid-row:1"">bough</h1><h1 id=""word_5"" style=""visibility:hidden;grid-column:1; grid-row:1"">cough</h1></div>","null","experiment","rough","dough","through","bough","cough","orthoSet","","","","","","","","","","","","","","","","","","","","","","","","","","","",""
"","","","","","survey-text","52","1044435","0.0-6.0-1.20","A1WH32GYQOHIRQ","2022-05-18T15:31:36.495Z","phon_sim-task_switching-rhyme-same_different","","28334.899999976158","phon_sim","","{""position_1"":""rough"",""position_2"":""through"",""position_3"":""bough"",""position_4"":""dough"",""position_5"":""cough""}","experiment","","","","","","","rough","through","bough","dough","cough","","","","","","","","","","","","","","","","","","","","","","",""
"","","","","","html-keyboard-response","53","1057440","0.0-6.0-0.21","A1WH32GYQOHIRQ","2022-05-18T15:31:36.495Z","phon_sim-task_switching-rhyme-same_different","","null","phon_sim","<div style=""display:grid""><h1 id=""word_1"" style=""grid-column:1; grid-row:1"">cough</h1><h1 id=""word_2"" style=""visibility:hidden;grid-column:1; grid-row:1"">bough</h1><h1 id=""word_3"" style=""visibility:hidden;grid-column:1; grid-row:1"">through</h1><h1 id=""word_4"" style=""visibility:hidden;grid-column:1; grid-row:1"">dough</h1><h1 id=""word_5"" style=""visibility:hidden;grid-column:1; grid-row:1"">rough</h1></div>","null","experiment","cough","bough","through","dough","rough","orthoSet","","","","","","","","","","","","","","","","","","","","","","","","","","","",""
"","","","","","survey-text","54","1080241","0.0-6.0-1.21","A1WH32GYQOHIRQ","2022-05-18T15:31:36.495Z","phon_sim-task_switching-rhyme-same_different","","22796.300000071526","phon_sim","","{""position_1"":""cough"",""position_2"":""bough"",""position_3"":""through"",""position_4"":""dough"",""position_5"":""rough""}","experiment","","","","","","","cough","bough","through","dough","rough","","","","","","","","","","","","","","","","","","","","","","",""
"","","","","","html-keyboard-response","55","1093249","0.0-6.0-0.22","A1WH32GYQOHIRQ","2022-05-18T15:31:36.495Z","phon_sim-task_switching-rhyme-same_different","","null","phon_sim","<div style=""display:grid""><h1 id=""word_1"" style=""grid-column:1; grid-row:1"">plea</h1><h1 id=""word_2"" style=""visibility:hidden;grid-column:1; grid-row:1"">sleigh</h1><h1 id=""word_3"" style=""visibility:hidden;grid-column:1; grid-row:1"">row</h1><h1 id=""word_4"" style=""visibility:hidden;grid-column:1; grid-row:1"">board</h1><h1 id=""word_5"" style=""visibility:hidden;grid-column:1; grid-row:1"">friend</h1></div>","null","experiment","plea","sleigh","row","board","friend","controlSet","","","","","","","","","","","","","","","","","","","","","","","","","","","",""
"","","","","","survey-text","56","1111641","0.0-6.0-1.22","A1WH32GYQOHIRQ","2022-05-18T15:31:36.495Z","phon_sim-task_switching-rhyme-same_different","","18387.100000023842","phon_sim","","{""position_1"":""plea"",""position_2"":""sleigh"",""position_3"":""row"",""position_4"":""board"",""position_5"":""friend""}","experiment","","","","","","","plea","sleigh","row","board","friend","","","","","","","","","","","","","","","","","","","","","","",""
"","","","","","html-keyboard-response","57","1124650","0.0-6.0-0.23","A1WH32GYQOHIRQ","2022-05-18T15:31:36.495Z","phon_sim-task_switching-rhyme-same_different","","null","phon_sim","<div style=""display:grid""><h1 id=""word_1"" style=""grid-column:1; grid-row:1"">caught</h1><h1 id=""word_2"" style=""visibility:hidden;grid-column:1; grid-row:1"">sort</h1><h1 id=""word_3"" style=""visibility:hidden;grid-column:1; grid-row:1"">bought</h1><h1 id=""word_4"" style=""visibility:hidden;grid-column:1; grid-row:1"">taut</h1><h1 id=""word_5"" style=""visibility:hidden;grid-column:1; grid-row:1"">wart</h1></div>","null","experiment","caught","sort","bought","taut","wart","phonSet","","","","","","","","","","","","","","","","","","","","","","","","","","","",""
"","","","","","survey-text","58","1157483","0.0-6.0-1.23","A1WH32GYQOHIRQ","2022-05-18T15:31:36.495Z","phon_sim-task_switching-rhyme-same_different","","32828.60000002384","phon_sim","","{""position_1"":""caught"",""position_2"":""sort"",""position_3"":""bought"",""position_4"":""taut"",""position_5"":""wart""}","experiment","","","","","","","caught","sort","bought","taut","wart","","","","","","","","","","","","","","","","","","","","","","",""
"","","","","","survey-multi-choice","59","1160870","0.0-7.0","A1WH32GYQOHIRQ","2022-05-18T15:31:36.495Z","phon_sim-task_switching-rhyme-same_different","","3384","phon_sim","","{""Q0"":""Yes""}","","","","","","","","","","","","","[0]","Yes","","","","","","","","","","","","","","","","","","","","",""
"","","","","","survey-text","60","1210388","0.0-8.0","A1WH32GYQOHIRQ","2022-05-18T15:31:36.495Z","phon_sim-task_switching-rhyme-same_different","","49514.299999952316","phon_sim","","{""Q0"":""I added a silly cadance...I used to do that when my girls were little and I'd read to them. I guess it makes tedious task seem more fun.""}","","","","","","","","","","","","","","","I added a silly cadance...I used to do that when my girls were little and I'd read to them. I guess it makes tedious task seem more fun.","","","","","","","","","","","","","","","","","","","",""
"","","","","","instructions","61","1212477","0.0-9.0","A1WH32GYQOHIRQ","2022-05-18T15:31:36.495Z","phon_sim-task_switching-rhyme-same_different","[{""page_index"":0,""viewing_time"":2087.399999976158}]","2087.7000000476837","phon_sim","","","","","","","","","","","","","","","","","","","","","","","","","","","","","","","","","","","","",""
"","","","","","instructions","62","1224736","0.0-10.0","A1WH32GYQOHIRQ","2022-05-18T15:31:36.495Z","phon_sim-task_switching-rhyme-same_different","[{""page_index"":0,""viewing_time"":12257.399999976158}]","12257.700000047684","task_switching","","","","","","","","","","","","","","","","","","","","","","","","","","","","","","","","","","","","",""
"","","","","","instructions","63","1236988","0.0-11.0","A1WH32GYQOHIRQ","2022-05-18T15:31:36.495Z","phon_sim-task_switching-rhyme-same_different","[{""page_index"":0,""viewing_time"":12250.600000023842}]","12251","task_switching","","","","","","","","","","","","","","","","","","","","","","","","","","","","","","","","","","","","",""
"","","","","","survey-text","64","1241185","0.0-12.0","A1WH32GYQOHIRQ","2022-05-18T15:31:36.495Z","phon_sim-task_switching-rhyme-same_different","","4190.799999952316","task_switching","33","{""subtraction_ans"":""30""}","training","","","","","","","","","","","","","","","subtraction","30","true","subtract","","","","","","","","","","","","","","","",""
"","","","","","html-keyboard-response","65","1242190","0.0-13.0","A1WH32GYQOHIRQ","2022-05-18T15:31:36.495Z","phon_sim-task_switching-rhyme-same_different","","null","task_switching","<div style=""color:darkgreen; font-size:60px"">Well done!</div>","null","training","","","","","","","","","","","","","","","subtraction","","","","","","","","","","","","","","","","","","",""
"","","","","","survey-text","66","1244488","0.0-14.0","A1WH32GYQOHIRQ","2022-05-18T15:31:36.495Z","phon_sim-task_switching-rhyme-same_different","","2294.600000023842","task_switching","55","{""subtraction_ans"":""52""}","training","","","","","","","","","","","","","","","subtraction","52","true","subtract","","","","","","","","","","","","","","","",""
"","","","","","html-keyboard-response","67","1245490","0.0-15.0","A1WH32GYQOHIRQ","2022-05-18T15:31:36.495Z","phon_sim-task_switching-rhyme-same_different","","null","task_switching","<div style=""color:darkgreen; font-size:60px"">Well done!</div>","null","training","","","","","","","","","","","","","","","subtraction","","","","","","","","","","","","","","","","","","",""
"","","","","","survey-text","68","1247088","0.0-16.0","A1WH32GYQOHIRQ","2022-05-18T15:31:36.495Z","phon_sim-task_switching-rhyme-same_different","","1594.7000000476837","task_switching","57","{""subtraction_ans"":""54""}","training","","","","","","","","","","","","","","","subtraction","54","true","subtract","","","","","","","","","","","","","","","",""
"","","","","","html-keyboard-response","69","1248091","0.0-17.0","A1WH32GYQOHIRQ","2022-05-18T15:31:36.495Z","phon_sim-task_switching-rhyme-same_different","","null","task_switching","<div style=""color:darkgreen; font-size:60px"">Well done!</div>","null","training","","","","","","","","","","","","","","","subtraction","","","","","","","","","","","","","","","","","","",""
"","","","","","survey-text","70","1250736","0.0-18.0","A1WH32GYQOHIRQ","2022-05-18T15:31:36.495Z","phon_sim-task_switching-rhyme-same_different","","2641.600000023842","task_switching","31","{""subtraction_ans"":""28""}","training","","","","","","","","","","","","","","","subtraction","28","true","subtract","","","","","","","","","","","","","","","",""
"","","","","","html-keyboard-response","71","1251743","0.0-19.0","A1WH32GYQOHIRQ","2022-05-18T15:31:36.495Z","phon_sim-task_switching-rhyme-same_different","","null","task_switching","<div style=""color:darkgreen; font-size:60px"">Well done!</div>","null","training","","","","","","","","","","","","","","","subtraction","","","","","","","","","","","","","","","","","","",""
"","","","","","survey-text","72","1253624","0.0-20.0","A1WH32GYQOHIRQ","2022-05-18T15:31:36.495Z","phon_sim-task_switching-rhyme-same_different","","1878.2000000476837","task_switching","99","{""subtraction_ans"":""96""}","training","","","","","","","","","","","","","","","subtraction","96","true","subtract","","","","","","","","","","","","","","","",""
"","","","","","html-keyboard-response","73","1254631","0.0-21.0","A1WH32GYQOHIRQ","2022-05-18T15:31:36.495Z","phon_sim-task_switching-rhyme-same_different","","null","task_switching","<div style=""color:darkgreen; font-size:60px"">Well done!</div>","null","training","","","","","","","","","","","","","","","subtraction","","","","","","","","","","","","","","","","","","",""
"","","","","","survey-text","74","1256518","0.0-22.0","A1WH32GYQOHIRQ","2022-05-18T15:31:36.495Z","phon_sim-task_switching-rhyme-same_different","","1884.5999999046326","task_switching","87","{""subtraction_ans"":""84""}","training","","","","","","","","","","","","","","","subtraction","84","true","subtract","","","","","","","","","","","","","","","",""
"","","","","","html-keyboard-response","75","1257525","0.0-23.0","A1WH32GYQOHIRQ","2022-05-18T15:31:36.495Z","phon_sim-task_switching-rhyme-same_different","","null","task_switching","<div style=""color:darkgreen; font-size:60px"">Well done!</div>","null","training","","","","","","","","","","","","","","","subtraction","","","","","","","","","","","","","","","","","","",""
"","","","","","survey-text","76","1259526","0.0-24.0","A1WH32GYQOHIRQ","2022-05-18T15:31:36.495Z","phon_sim-task_switching-rhyme-same_different","","1998.5","task_switching","97","{""subtraction_ans"":""94""}","training","","","","","","","","","","","","","","","subtraction","94","true","subtract","","","","","","","","","","","","","","","",""
"","","","","","html-keyboard-response","77","1260533","0.0-25.0","A1WH32GYQOHIRQ","2022-05-18T15:31:36.495Z","phon_sim-task_switching-rhyme-same_different","","null","task_switching","<div style=""color:darkgreen; font-size:60px"">Well done!</div>","null","training","","","","","","","","","","","","","","","subtraction","","","","","","","","","","","","","","","","","","",""
"","","","","","survey-text","78","1262712","0.0-26.0","A1WH32GYQOHIRQ","2022-05-18T15:31:36.495Z","phon_sim-task_switching-rhyme-same_different","","2175.7999999523163","task_switching","92","{""subtraction_ans"":""89""}","training","","","","","","","","","","","","","","","subtraction","89","true","subtract","","","","","","","","","","","","","","","",""
"","","","","","html-keyboard-response","79","1263718","0.0-27.0","A1WH32GYQOHIRQ","2022-05-18T15:31:36.495Z","phon_sim-task_switching-rhyme-same_different","","null","task_switching","<div style=""color:darkgreen; font-size:60px"">Well done!</div>","null","training","","","","","","","","","","","","","","","subtraction","","","","","","","","","","","","","","","","","","",""
"","","","","","survey-text","80","1265768","0.0-28.0","A1WH32GYQOHIRQ","2022-05-18T15:31:36.495Z","phon_sim-task_switching-rhyme-same_different","","2047.5","task_switching","59","{""subtraction_ans"":""56""}","training","","","","","","","","","","","","","","","subtraction","56","true","subtract","","","","","","","","","","","","","","","",""
"","","","","","html-keyboard-response","81","1266775","0.0-29.0","A1WH32GYQOHIRQ","2022-05-18T15:31:36.495Z","phon_sim-task_switching-rhyme-same_different","","null","task_switching","<div style=""color:darkgreen; font-size:60px"">Well done!</div>","null","training","","","","","","","","","","","","","","","subtraction","","","","","","","","","","","","","","","","","","",""
"","","","","","survey-text","82","1268576","0.0-30.0","A1WH32GYQOHIRQ","2022-05-18T15:31:36.495Z","phon_sim-task_switching-rhyme-same_different","","1797.7000000476837","task_switching","62","{""subtraction_ans"":""59""}","training","","","","","","","","","","","","","","","subtraction","59","true","subtract","","","","","","","","","","","","","","","",""
"","","","","","html-keyboard-response","83","1269581","0.0-31.0","A1WH32GYQOHIRQ","2022-05-18T15:31:36.495Z","phon_sim-task_switching-rhyme-same_different","","null","task_switching","<div style=""color:darkgreen; font-size:60px"">Well done!</div>","null","training","","","","","","","","","","","","","","","subtraction","","","","","","","","","","","","","","","","","","",""
"","","","","","instructions","84","1272404","0.0-32.0","A1WH32GYQOHIRQ","2022-05-18T15:31:36.495Z","phon_sim-task_switching-rhyme-same_different","[{""page_index"":0,""viewing_time"":2822.2999999523163}]","2822.7999999523163","task_switching","","","","","","","","","","","","","","","","","","","","","","","","","","","","","","","","","","","","",""
"","","","","","survey-text","85","1274129","0.0-33.0","A1WH32GYQOHIRQ","2022-05-18T15:31:36.495Z","phon_sim-task_switching-rhyme-same_different","","1720.6000000238419","task_switching","53","{""subtraction_ans"":""50""}","experiment","","","","","","","","","","","","","","","subtraction","50","true","subtract","","","","","","","","","","","","","","","",""
"","","","","","survey-text","86","1276087","0.0-34.0","A1WH32GYQOHIRQ","2022-05-18T15:31:36.495Z","phon_sim-task_switching-rhyme-same_different","","1953.8999999761581","task_switching","46","{""subtraction_ans"":""43""}","experiment","","","","","","","","","","","","","","","subtraction","43","true","subtract","","","","","","","","","","","","","","","",""
"","","","","","survey-text","87","1277792","0.0-35.0","A1WH32GYQOHIRQ","2022-05-18T15:31:36.495Z","phon_sim-task_switching-rhyme-same_different","","1700.9000000953674","task_switching","89","{""subtraction_ans"":""86""}","experiment","","","","","","","","","","","","","","","subtraction","86","true","subtract","","","","","","","","","","","","","","","",""
"","","","","","survey-text","88","1279599","0.0-36.0","A1WH32GYQOHIRQ","2022-05-18T15:31:36.495Z","phon_sim-task_switching-rhyme-same_different","","1803.3999999761581","task_switching","57","{""subtraction_ans"":""51""}","experiment","","","","","","","","","","","","","","","subtraction","51","false","subtract","","","","","","","","","","","","","","","",""
"","","","","","survey-text","89","1281336","0.0-37.0","A1WH32GYQOHIRQ","2022-05-18T15:31:36.495Z","phon_sim-task_switching-rhyme-same_different","","1734","task_switching","36","{""subtraction_ans"":""33""}","experiment","","","","","","","","","","","","","","","subtraction","33","true","subtract","","","","","","","","","","","","","","","",""
"","","","","","survey-text","90","1283000","0.0-38.0","A1WH32GYQOHIRQ","2022-05-18T15:31:36.495Z","phon_sim-task_switching-rhyme-same_different","","1660","task_switching","99","{""subtraction_ans"":""96""}","experiment","","","","","","","","","","","","","","","subtraction","96","true","subtract","","","","","","","","","","","","","","","",""
"","","","","","survey-text","91","1285448","0.0-39.0","A1WH32GYQOHIRQ","2022-05-18T15:31:36.495Z","phon_sim-task_switching-rhyme-same_different","","2444.2999999523163","task_switching","43","{""subtraction_ans"":""40""}","experiment","","","","","","","","","","","","","","","subtraction","40","true","subtract","","","","","","","","","","","","","","","",""
"","","","","","survey-text","92","1287560","0.0-40.0","A1WH32GYQOHIRQ","2022-05-18T15:31:36.495Z","phon_sim-task_switching-rhyme-same_different","","2107.899999976158","task_switching","39","{""subtraction_ans"":""36""}","experiment","","","","","","","","","","","","","","","subtraction","36","true","subtract","","","","","","","","","","","","","","","",""
"","","","","","survey-text","93","1289184","0.0-41.0","A1WH32GYQOHIRQ","2022-05-18T15:31:36.495Z","phon_sim-task_switching-rhyme-same_different","","1620.6999999284744","task_switching","16","{""subtraction_ans"":""13""}","experiment","","","","","","","","","","","","","","","subtraction","13","true","subtract","","","","","","","","","","","","","","","",""
"","","","","","survey-text","94","1291016","0.0-42.0","A1WH32GYQOHIRQ","2022-05-18T15:31:36.495Z","phon_sim-task_switching-rhyme-same_different","","1828.3000000715256","task_switching","79","{""subtraction_ans"":""76""}","experiment","","","","","","","","","","","","","","","subtraction","76","true","subtract","","","","","","","","","","","","","","","",""
"","","","","","survey-text","95","1293568","0.0-43.0","A1WH32GYQOHIRQ","2022-05-18T15:31:36.495Z","phon_sim-task_switching-rhyme-same_different","","2548.399999976158","task_switching","76","{""subtraction_ans"":""73""}","experiment","","","","","","","","","","","","","","","subtraction","73","true","subtract","","","","","","","","","","","","","","","",""
"","","","","","survey-text","96","1295744","0.0-44.0","A1WH32GYQOHIRQ","2022-05-18T15:31:36.495Z","phon_sim-task_switching-rhyme-same_different","","2172.2000000476837","task_switching","32","{""subtraction_ans"":""29""}","experiment","","","","","","","","","","","","","","","subtraction","29","true","subtract","","","","","","","","","","","","","","","",""
"","","","","","survey-text","97","1297480","0.0-45.0","A1WH32GYQOHIRQ","2022-05-18T15:31:36.495Z","phon_sim-task_switching-rhyme-same_different","","1732.4000000953674","task_switching","97","{""subtraction_ans"":""94""}","experiment","","","","","","","","","","","","","","","subtraction","94","true","subtract","","","","","","","","","","","","","","","",""
"","","","","","survey-text","98","1299048","0.0-46.0","A1WH32GYQOHIRQ","2022-05-18T15:31:36.495Z","phon_sim-task_switching-rhyme-same_different","","1564.2000000476837","task_switching","26","{""subtraction_ans"":""23""}","experiment","","","","","","","","","","","","","","","subtraction","23","true","subtract","","","","","","","","","","","","","","","",""
"","","","","","survey-text","99","1301704","0.0-47.0","A1WH32GYQOHIRQ","2022-05-18T15:31:36.495Z","phon_sim-task_switching-rhyme-same_different","","2652.2999999523163","task_switching","42","{""subtraction_ans"":""39""}","experiment","","","","","","","","","","","","","","","subtraction","39","true","subtract","","","","","","","","","","","","","","","",""
"","","","","","survey-text","100","1303840","0.0-48.0","A1WH32GYQOHIRQ","2022-05-18T15:31:36.495Z","phon_sim-task_switching-rhyme-same_different","","2132.600000023842","task_switching","51","{""subtraction_ans"":""48""}","experiment","","","","","","","","","","","","","","","subtraction","48","true","subtract","","","","","","","","","","","","","","","",""
"","","","","","survey-text","101","1306112","0.0-49.0","A1WH32GYQOHIRQ","2022-05-18T15:31:36.495Z","phon_sim-task_switching-rhyme-same_different","","2268.100000023842","task_switching","40","{""subtraction_ans"":""37""}","experiment","","","","","","","","","","","","","","","subtraction","37","true","subtract","","","","","","","","","","","","","","","",""
"","","","","","survey-text","102","1309216","0.0-50.0","A1WH32GYQOHIRQ","2022-05-18T15:31:36.495Z","phon_sim-task_switching-rhyme-same_different","","3100.9000000953674","task_switching","86","{""subtraction_ans"":""83""}","experiment","","","","","","","","","","","","","","","subtraction","83","true","subtract","","","","","","","","","","","","","","","",""
"","","","","","survey-text","103","1313960","0.0-51.0","A1WH32GYQOHIRQ","2022-05-18T15:31:36.495Z","phon_sim-task_switching-rhyme-same_different","","4739.699999928474","task_switching","82","{""subtraction_ans"":""79""}","experiment","","","","","","","","","","","","","","","subtraction","79","true","subtract","","","","","","","","","","","","","","","",""
"","","","","","survey-text","104","1315696","0.0-52.0","A1WH32GYQOHIRQ","2022-05-18T15:31:36.495Z","phon_sim-task_switching-rhyme-same_different","","1731.8999999761581","task_switching","55","{""subtraction_ans"":""52""}","experiment","","","","","","","","","","","","","","","subtraction","52","true","subtract","","","","","","","","","","","","","","","",""
"","","","","","survey-text","105","1317968","0.0-53.0","A1WH32GYQOHIRQ","2022-05-18T15:31:36.495Z","phon_sim-task_switching-rhyme-same_different","","2268.100000023842","task_switching","31","{""subtraction_ans"":""28""}","experiment","","","","","","","","","","","","","","","subtraction","28","true","subtract","","","","","","","","","","","","","","","",""
"","","","","","survey-text","106","1319984","0.0-54.0","A1WH32GYQOHIRQ","2022-05-18T15:31:36.495Z","phon_sim-task_switching-rhyme-same_different","","2012.2999999523163","task_switching","87","{""subtraction_ans"":""84""}","experiment","","","","","","","","","","","","","","","subtraction","84","true","subtract","","","","","","","","","","","","","","","",""
"","","","","","survey-text","107","1321999","0.0-55.0","A1WH32GYQOHIRQ","2022-05-18T15:31:36.495Z","phon_sim-task_switching-rhyme-same_different","","2012","task_switching","37","{""subtraction_ans"":""34""}","experiment","","","","","","","","","","","","","","","subtraction","34","true","subtract","","","","","","","","","","","","","","","",""
"","","","","","survey-text","108","1324856","0.0-56.0","A1WH32GYQOHIRQ","2022-05-18T15:31:36.495Z","phon_sim-task_switching-rhyme-same_different","","2852.600000023842","task_switching","80","{""subtraction_ans"":""77""}","experiment","","","","","","","","","","","","","","","subtraction","77","true","subtract","","","","","","","","","","","","","","","",""
"","","","","","survey-text","109","1326447","0.0-57.0","A1WH32GYQOHIRQ","2022-05-18T15:31:36.495Z","phon_sim-task_switching-rhyme-same_different","","1588","task_switching","19","{""subtraction_ans"":""16""}","experiment","","","","","","","","","","","","","","","subtraction","16","true","subtract","","","","","","","","","","","","","","","",""
"","","","","","survey-text","110","1328088","0.0-58.0","A1WH32GYQOHIRQ","2022-05-18T15:31:36.495Z","phon_sim-task_switching-rhyme-same_different","","1636.8000000715256","task_switching","54","{""subtraction_ans"":""51""}","experiment","","","","","","","","","","","","","","","subtraction","51","true","subtract","","","","","","","","","","","","","","","",""
"","","","","","survey-text","111","1329760","0.0-59.0","A1WH32GYQOHIRQ","2022-05-18T15:31:36.495Z","phon_sim-task_switching-rhyme-same_different","","1668.1000000238419","task_switching","50","{""subtraction_ans"":""47""}","experiment","","","","","","","","","","","","","","","subtraction","47","true","subtract","","","","","","","","","","","","","","","",""
"","","","","","survey-text","112","1331840","0.0-60.0","A1WH32GYQOHIRQ","2022-05-18T15:31:36.495Z","phon_sim-task_switching-rhyme-same_different","","2076","task_switching","92","{""subtraction_ans"":""89""}","experiment","","","","","","","","","","","","","","","subtraction","89","true","subtract","","","","","","","","","","","","","","","",""
"","","","","","survey-text","113","1333472","0.0-61.0","A1WH32GYQOHIRQ","2022-05-18T15:31:36.495Z","phon_sim-task_switching-rhyme-same_different","","1628.5","task_switching","83","{""subtraction_ans"":""80""}","experiment","","","","","","","","","","","","","","","subtraction","80","true","subtract","","","","","","","","","","","","","","","",""
"","","","","","survey-text","114","1335302","0.0-62.0","A1WH32GYQOHIRQ","2022-05-18T15:31:36.495Z","phon_sim-task_switching-rhyme-same_different","","1826.7000000476837","task_switching","59","{""subtraction_ans"":""56""}","experiment","","","","","","","","","","","","","","","subtraction","56","true","subtract","","","","","","","","","","","","","","","",""
"","","","","","instructions","115","1363780","0.0-63.0","A1WH32GYQOHIRQ","2022-05-18T15:31:36.495Z","phon_sim-task_switching-rhyme-same_different","[{""page_index"":0,""viewing_time"":28476.799999952316}]","28477.200000047684","task_switching","","","","","","","","","","","","","","","","","","","","","","","","","","","","","","","","","","","","",""
"","","","","","survey-text","116","1368215","0.0-64.0","A1WH32GYQOHIRQ","2022-05-18T15:31:36.495Z","phon_sim-task_switching-rhyme-same_different","","4431.200000047684","task_switching","41","{""addition_ans"":""44""}","training","","","","","","","","","","","","","","","addition","44","true","add","","","","","","","","","","","","","","","",""
"","","","","","html-keyboard-response","117","1369223","0.0-65.0","A1WH32GYQOHIRQ","2022-05-18T15:31:36.495Z","phon_sim-task_switching-rhyme-same_different","","null","task_switching","<div style=""color:darkgreen; font-size:60px"">Well done!</div>","null","training","","","","","","","","","","","","","","","addition","","","","","","","","","","","","","","","","","","",""
"","","","","","survey-text","118","1370951","0.0-66.0","A1WH32GYQOHIRQ","2022-05-18T15:31:36.495Z","phon_sim-task_switching-rhyme-same_different","","1725.5","task_switching","71","{""addition_ans"":""74""}","training","","","","","","","","","","","","","","","addition","74","true","add","","","","","","","","","","","","","","","",""
"","","","","","html-keyboard-response","119","1371958","0.0-67.0","A1WH32GYQOHIRQ","2022-05-18T15:31:36.495Z","phon_sim-task_switching-rhyme-same_different","","null","task_switching","<div style=""color:darkgreen; font-size:60px"">Well done!</div>","null","training","","","","","","","","","","","","","","","addition","","","","","","","","","","","","","","","","","","",""
"","","","","","survey-text","120","1373943","0.0-68.0","A1WH32GYQOHIRQ","2022-05-18T15:31:36.495Z","phon_sim-task_switching-rhyme-same_different","","1982.2999999523163","task_switching","25","{""addition_ans"":""28""}","training","","","","","","","","","","","","","","","addition","28","true","add","","","","","","","","","","","","","","","",""
"","","","","","html-keyboard-response","121","1374950","0.0-69.0","A1WH32GYQOHIRQ","2022-05-18T15:31:36.495Z","phon_sim-task_switching-rhyme-same_different","","null","task_switching","<div style=""color:darkgreen; font-size:60px"">Well done!</div>","null","training","","","","","","","","","","","","","","","addition","","","","","","","","","","","","","","","","","","",""
"","","","","","survey-text","122","1376759","0.0-70.0","A1WH32GYQOHIRQ","2022-05-18T15:31:36.495Z","phon_sim-task_switching-rhyme-same_different","","1806.2999999523163","task_switching","65","{""addition_ans"":""68""}","training","","","","","","","","","","","","","","","addition","68","true","add","","","","","","","","","","","","","","","",""
"","","","","","html-keyboard-response","123","1377761","0.0-71.0","A1WH32GYQOHIRQ","2022-05-18T15:31:36.495Z","phon_sim-task_switching-rhyme-same_different","","null","task_switching","<div style=""color:darkgreen; font-size:60px"">Well done!</div>","null","training","","","","","","","","","","","","","","","addition","","","","","","","","","","","","","","","","","","",""
"","","","","","survey-text","124","1379775","0.0-72.0","A1WH32GYQOHIRQ","2022-05-18T15:31:36.495Z","phon_sim-task_switching-rhyme-same_different","","2010.6999999284744","task_switching","83","{""addition_ans"":""86""}","training","","","","","","","","","","","","","","","addition","86","true","add","","","","","","","","","","","","","","","",""
"","","","","","html-keyboard-response","125","1380781","0.0-73.0","A1WH32GYQOHIRQ","2022-05-18T15:31:36.495Z","phon_sim-task_switching-rhyme-same_different","","null","task_switching","<div style=""color:darkgreen; font-size:60px"">Well done!</div>","null","training","","","","","","","","","","","","","","","addition","","","","","","","","","","","","","","","","","","",""
"","","","","","survey-text","126","1382719","0.0-74.0","A1WH32GYQOHIRQ","2022-05-18T15:31:36.495Z","phon_sim-task_switching-rhyme-same_different","","1934.6000000238419","task_switching","76","{""addition_ans"":""79""}","training","","","","","","","","","","","","","","","addition","79","true","add","","","","","","","","","","","","","","","",""
"","","","","","html-keyboard-response","127","1383725","0.0-75.0","A1WH32GYQOHIRQ","2022-05-18T15:31:36.495Z","phon_sim-task_switching-rhyme-same_different","","null","task_switching","<div style=""color:darkgreen; font-size:60px"">Well done!</div>","null","training","","","","","","","","","","","","","","","addition","","","","","","","","","","","","","","","","","","",""
"","","","","","survey-text","128","1385423","0.0-76.0","A1WH32GYQOHIRQ","2022-05-18T15:31:36.495Z","phon_sim-task_switching-rhyme-same_different","","1694.5","task_switching","86","{""addition_ans"":""89""}","training","","","","","","","","","","","","","","","addition","89","true","add","","","","","","","","","","","","","","","",""
"","","","","","html-keyboard-response","129","1386430","0.0-77.0","A1WH32GYQOHIRQ","2022-05-18T15:31:36.495Z","phon_sim-task_switching-rhyme-same_different","","null","task_switching","<div style=""color:darkgreen; font-size:60px"">Well done!</div>","null","training","","","","","","","","","","","","","","","addition","","","","","","","","","","","","","","","","","","",""
"","","","","","survey-text","130","1388087","0.0-78.0","A1WH32GYQOHIRQ","2022-05-18T15:31:36.495Z","phon_sim-task_switching-rhyme-same_different","","1654.1000000238419","task_switching","82","{""addition_ans"":""85""}","training","","","","","","","","","","","","","","","addition","85","true","add","","","","","","","","","","","","","","","",""
"","","","","","html-keyboard-response","131","1389090","0.0-79.0","A1WH32GYQOHIRQ","2022-05-18T15:31:36.495Z","phon_sim-task_switching-rhyme-same_different","","null","task_switching","<div style=""color:darkgreen; font-size:60px"">Well done!</div>","null","training","","","","","","","","","","","","","","","addition","","","","","","","","","","","","","","","","","","",""
"","","","","","survey-text","132","1393431","0.0-80.0","A1WH32GYQOHIRQ","2022-05-18T15:31:36.495Z","phon_sim-task_switching-rhyme-same_different","","4337.900000095367","task_switching","58","{""addition_ans"":""61""}","training","","","","","","","","","","","","","","","addition","61","true","add","","","","","","","","","","","","","","","",""
"","","","","","html-keyboard-response","133","1394437","0.0-81.0","A1WH32GYQOHIRQ","2022-05-18T15:31:36.495Z","phon_sim-task_switching-rhyme-same_different","","null","task_switching","<div style=""color:darkgreen; font-size:60px"">Well done!</div>","null","training","","","","","","","","","","","","","","","addition","","","","","","","","","","","","","","","","","","",""
"","","","","","survey-text","134","1396367","0.0-82.0","A1WH32GYQOHIRQ","2022-05-18T15:31:36.495Z","phon_sim-task_switching-rhyme-same_different","","1928","task_switching","37","{""addition_ans"":""40""}","training","","","","","","","","","","","","","","","addition","40","true","add","","","","","","","","","","","","","","","",""
"","","","","","html-keyboard-response","135","1397374","0.0-83.0","A1WH32GYQOHIRQ","2022-05-18T15:31:36.495Z","phon_sim-task_switching-rhyme-same_different","","null","task_switching","<div style=""color:darkgreen; font-size:60px"">Well done!</div>","null","training","","","","","","","","","","","","","","","addition","","","","","","","","","","","","","","","","","","",""
"","","","","","instructions","136","1508563","0.0-84.0","A1WH32GYQOHIRQ","2022-05-18T15:31:36.495Z","phon_sim-task_switching-rhyme-same_different","[{""page_index"":0,""viewing_time"":111191.40000009537}]","111191.70000004768","task_switching","","","","","","","","","","","","","","","","","","","","","","","","","","","","","","","","","","","","",""
"","","","","","survey-text","137","1510315","0.0-85.0","A1WH32GYQOHIRQ","2022-05-18T15:31:36.495Z","phon_sim-task_switching-rhyme-same_different","","1748.2000000476837","task_switching","43","{""addition_ans"":""46""}","experiment","","","","","","","","","","","","","","","addition","46","true","add","","","","","","","","","","","","","","","",""
"","","","","","survey-text","138","1512355","0.0-86.0","A1WH32GYQOHIRQ","2022-05-18T15:31:36.495Z","phon_sim-task_switching-rhyme-same_different","","2037.5","task_switching","66","{""addition_ans"":""69""}","experiment","","","","","","","","","","","","","","","addition","69","true","add","","","","","","","","","","","","","","","",""
"","","","","","survey-text","139","1514187","0.0-87.0","A1WH32GYQOHIRQ","2022-05-18T15:31:36.495Z","phon_sim-task_switching-rhyme-same_different","","1828","task_switching","72","{""addition_ans"":""75""}","experiment","","","","","","","","","","","","","","","addition","75","true","add","","","","","","","","","","","","","","","",""
"","","","","","survey-text","140","1516763","0.0-88.0","A1WH32GYQOHIRQ","2022-05-18T15:31:36.495Z","phon_sim-task_switching-rhyme-same_different","","2572.7999999523163","task_switching","59","{""addition_ans"":""62""}","experiment","","","","","","","","","","","","","","","addition","62","true","add","","","","","","","","","","","","","","","",""
"","","","","","survey-text","141","1518571","0.0-89.0","A1WH32GYQOHIRQ","2022-05-18T15:31:36.495Z","phon_sim-task_switching-rhyme-same_different","","1804.6999999284744","task_switching","13","{""addition_ans"":""16""}","experiment","","","","","","","","","","","","","","","addition","16","true","add","","","","","","","","","","","","","","","",""
"","","","","","survey-text","142","1520528","0.0-90.0","A1WH32GYQOHIRQ","2022-05-18T15:31:36.495Z","phon_sim-task_switching-rhyme-same_different","","1954.2000000476837","task_switching","56","{""addition_ans"":""59""}","experiment","","","","","","","","","","","","","","","addition","59","true","add","","","","","","","","","","","","","","","",""
"","","","","","survey-text","143","1522281","0.0-91.0","A1WH32GYQOHIRQ","2022-05-18T15:31:36.495Z","phon_sim-task_switching-rhyme-same_different","","1750.0999999046326","task_switching","41","{""addition_ans"":""44""}","experiment","","","","","","","","","","","","","","","addition","44","true","add","","","","","","","","","","","","","","","",""
"","","","","","survey-text","144","1524873","0.0-92.0","A1WH32GYQOHIRQ","2022-05-18T15:31:36.495Z","phon_sim-task_switching-rhyme-same_different","","2588.5","task_switching","16","{""addition_ans"":""19""}","experiment","","","","","","","","","","","","","","","addition","19","true","add","","","","","","","","","","","","","","","",""
"","","","","","survey-text","145","1526641","0.0-93.0","A1WH32GYQOHIRQ","2022-05-18T15:31:36.495Z","phon_sim-task_switching-rhyme-same_different","","1764.2000000476837","task_switching","47","{""addition_ans"":""50""}","experiment","","","","","","","","","","","","","","","addition","50","true","add","","","","","","","","","","","","","","","",""
"","","","","","survey-text","146","1529921","0.0-94.0","A1WH32GYQOHIRQ","2022-05-18T15:31:36.495Z","phon_sim-task_switching-rhyme-same_different","","3276.1999999284744","task_switching","81","{""addition_ans"":""84""}","experiment","","","","","","","","","","","","","","","addition","84","true","add","","","","","","","","","","","","","","","",""
"","","","","","survey-text","147","1532713","0.0-95.0","A1WH32GYQOHIRQ","2022-05-18T15:31:36.495Z","phon_sim-task_switching-rhyme-same_different","","2788.1999999284744","task_switching","94","{""addition_ans"":""97""}","experiment","","","","","","","","","","","","","","","addition","97","true","add","","","","","","","","","","","","","","","",""
"","","","","","survey-text","148","1534897","0.0-96.0","A1WH32GYQOHIRQ","2022-05-18T15:31:36.495Z","phon_sim-task_switching-rhyme-same_different","","2180.1999999284744","task_switching","50","{""addition_ans"":""53""}","experiment","","","","","","","","","","","","","","","addition","53","true","add","","","","","","","","","","","","","","","",""
"","","","","","survey-text","149","1536721","0.0-97.0","A1WH32GYQOHIRQ","2022-05-18T15:31:36.495Z","phon_sim-task_switching-rhyme-same_different","","1820.5","task_switching","86","{""addition_ans"":""89""}","experiment","","","","","","","","","","","","","","","addition","89","true","add","","","","","","","","","","","","","","","",""
"","","","","","survey-text","150","1538384","0.0-98.0","A1WH32GYQOHIRQ","2022-05-18T15:31:36.495Z","phon_sim-task_switching-rhyme-same_different","","1660.2999999523163","task_switching","26","{""addition_ans"":""29""}","experiment","","","","","","","","","","","","","","","addition","29","true","add","","","","","","","","","","","","","","","",""
"","","","","","survey-text","151","1540169","0.0-99.0","A1WH32GYQOHIRQ","2022-05-18T15:31:36.495Z","phon_sim-task_switching-rhyme-same_different","","1780.2999999523163","task_switching","71","{""addition_ans"":""74""}","experiment","","","","","","","","","","","","","","","addition","74","true","add","","","","","","","","","","","","","","","",""
"","","","","","survey-text","152","1541648","0.0-100.0","A1WH32GYQOHIRQ","2022-05-18T15:31:36.495Z","phon_sim-task_switching-rhyme-same_different","","1475.6000000238419","task_switching","23","{""addition_ans"":""26""}","experiment","","","","","","","","","","","","","","","addition","26","true","add","","","","","","","","","","","","","","","",""
"","","","","","survey-text","153","1543352","0.0-101.0","A1WH32GYQOHIRQ","2022-05-18T15:31:36.495Z","phon_sim-task_switching-rhyme-same_different","","1701.1999999284744","task_switching","62","{""addition_ans"":""65""}","experiment","","","","","","","","","","","","","","","addition","65","true","add","","","","","","","","","","","","","","","",""
"","","","","","survey-text","154","1549937","0.0-102.0","A1WH32GYQOHIRQ","2022-05-18T15:31:36.495Z","phon_sim-task_switching-rhyme-same_different","","6581.100000023842","task_switching","74","{""addition_ans"":""77""}","experiment","","","","","","","","","","","","","","","addition","77","true","add","","","","","","","","","","","","","","","",""
"","","","","","survey-text","155","1551808","0.0-103.0","A1WH32GYQOHIRQ","2022-05-18T15:31:36.495Z","phon_sim-task_switching-rhyme-same_different","","1867.2999999523163","task_switching","12","{""addition_ans"":""15""}","experiment","","","","","","","","","","","","","","","addition","15","true","add","","","","","","","","","","","","","","","",""
"","","","","","survey-text","156","1554600","0.0-104.0","A1WH32GYQOHIRQ","2022-05-18T15:31:36.495Z","phon_sim-task_switching-rhyme-same_different","","2788.2000000476837","task_switching","78","{""addition_ans"":""81""}","experiment","","","","","","","","","","","","","","","addition","81","true","add","","","","","","","","","","","","","","","",""
"","","","","","survey-text","157","1556768","0.0-105.0","A1WH32GYQOHIRQ","2022-05-18T15:31:36.495Z","phon_sim-task_switching-rhyme-same_different","","2163.0999999046326","task_switching","45","{""addition_ans"":""48""}","experiment","","","","","","","","","","","","","","","addition","48","true","add","","","","","","","","","","","","","","","",""
"","","","","","survey-text","158","1558648","0.0-106.0","A1WH32GYQOHIRQ","2022-05-18T15:31:36.495Z","phon_sim-task_switching-rhyme-same_different","","1876.6000000238419","task_switching","19","{""addition_ans"":""22""}","experiment","","","","","","","","","","","","","","","addition","22","true","add","","","","","","","","","","","","","","","",""
"","","","","","survey-text","159","1560888","0.0-107.0","A1WH32GYQOHIRQ","2022-05-18T15:31:36.495Z","phon_sim-task_switching-rhyme-same_different","","2236.2999999523163","task_switching","79","{""addition_ans"":""82""}","experiment","","","","","","","","","","","","","","","addition","82","true","add","","","","","","","","","","","","","","","",""
"","","","","","survey-text","160","1563424","0.0-108.0","A1WH32GYQOHIRQ","2022-05-18T15:31:36.495Z","phon_sim-task_switching-rhyme-same_different","","2532.1999999284744","task_switching","38","{""addition_ans"":""41""}","experiment","","","","","","","","","","","","","","","addition","41","true","add","","","","","","","","","","","","","","","",""
"","","","","","survey-text","161","1564936","0.0-109.0","A1WH32GYQOHIRQ","2022-05-18T15:31:36.495Z","phon_sim-task_switching-rhyme-same_different","","1508.2999999523163","task_switching","44","{""addition_ans"":""47""}","experiment","","","","","","","","","","","","","","","addition","47","true","add","","","","","","","","","","","","","","","",""
"","","","","","survey-text","162","1566744","0.0-110.0","A1WH32GYQOHIRQ","2022-05-18T15:31:36.495Z","phon_sim-task_switching-rhyme-same_different","","1804.3999999761581","task_switching","93","{""addition_ans"":""96""}","experiment","","","","","","","","","","","","","","","addition","96","true","add","","","","","","","","","","","","","","","",""
"","","","","","survey-text","163","1570032","0.0-111.0","A1WH32GYQOHIRQ","2022-05-18T15:31:36.495Z","phon_sim-task_switching-rhyme-same_different","","3284.100000023842","task_switching","32","{""addition_ans"":""35""}","experiment","","","","","","","","","","","","","","","addition","35","true","add","","","","","","","","","","","","","","","",""
"","","","","","survey-text","164","1571752","0.0-112.0","A1WH32GYQOHIRQ","2022-05-18T15:31:36.495Z","phon_sim-task_switching-rhyme-same_different","","1716.2000000476837","task_switching","15","{""addition_ans"":""18""}","experiment","","","","","","","","","","","","","","","addition","18","true","add","","","","","","","","","","","","","","","",""
"","","","","","survey-text","165","1573360","0.0-113.0","A1WH32GYQOHIRQ","2022-05-18T15:31:36.495Z","phon_sim-task_switching-rhyme-same_different","","1604.2999999523163","task_switching","63","{""addition_ans"":""66""}","experiment","","","","","","","","","","","","","","","addition","66","true","add","","","","","","","","","","","","","","","",""
"","","","","","survey-text","166","1575432","0.0-114.0","A1WH32GYQOHIRQ","2022-05-18T15:31:36.495Z","phon_sim-task_switching-rhyme-same_different","","2068.100000023842","task_switching","28","{""addition_ans"":""31""}","experiment","","","","","","","","","","","","","","","addition","31","true","add","","","","","","","","","","","","","","","",""
"","","","","","instructions","167","1613487","0.0-115.0","A1WH32GYQOHIRQ","2022-05-18T15:31:36.495Z","phon_sim-task_switching-rhyme-same_different","[{""page_index"":0,""viewing_time"":38053.799999952316}]","38054.39999997616","task_switching","","","","","","","","","","","","","","","","","","","","","","","","","","","","","","","","","","","","",""
"","","","","","survey-text","168","1616344","0.0-116.0","A1WH32GYQOHIRQ","2022-05-18T15:31:36.495Z","phon_sim-task_switching-rhyme-same_different","","2852","task_switching","36","{""symbolcue_switch_ans"":""39""}","training","","","","","","","","","","","","","","","symbolcue_switch","39","true","add","+","0","","","","","","","","","","","","","",""
"","","","","","html-keyboard-response","169","1617351","0.0-117.0","A1WH32GYQOHIRQ","2022-05-18T15:31:36.495Z","phon_sim-task_switching-rhyme-same_different","","null","task_switching","<div style=""color:darkgreen; font-size:60px"">Well done!</div>","null","training","","","","","","","","","","","","","","","symbolcue_switch","","","","","","","","","","","","","","","","","","",""
"","","","","","survey-text","170","1619800","0.0-118.0","A1WH32GYQOHIRQ","2022-05-18T15:31:36.495Z","phon_sim-task_switching-rhyme-same_different","","2445.5","task_switching","31","{""symbolcue_switch_ans"":""28""}","training","","","","","","","","","","","","","","","symbolcue_switch","28","true","subtract","-","1","","","","","","","","","","","","","",""
"","","","","","html-keyboard-response","171","1620807","0.0-119.0","A1WH32GYQOHIRQ","2022-05-18T15:31:36.495Z","phon_sim-task_switching-rhyme-same_different","","null","task_switching","<div style=""color:darkgreen; font-size:60px"">Well done!</div>","null","training","","","","","","","","","","","","","","","symbolcue_switch","","","","","","","","","","","","","","","","","","",""
"","","","","","survey-text","172","1622664","0.0-120.0","A1WH32GYQOHIRQ","2022-05-18T15:31:36.495Z","phon_sim-task_switching-rhyme-same_different","","1852.3000000715256","task_switching","53","{""symbolcue_switch_ans"":""56""}","training","","","","","","","","","","","","","","","symbolcue_switch","56","true","add","+","2","","","","","","","","","","","","","",""
"","","","","","html-keyboard-response","173","1623671","0.0-121.0","A1WH32GYQOHIRQ","2022-05-18T15:31:36.495Z","phon_sim-task_switching-rhyme-same_different","","null","task_switching","<div style=""color:darkgreen; font-size:60px"">Well done!</div>","null","training","","","","","","","","","","","","","","","symbolcue_switch","","","","","","","","","","","","","","","","","","",""
"","","","","","survey-text","174","1625984","0.0-122.0","A1WH32GYQOHIRQ","2022-05-18T15:31:36.495Z","phon_sim-task_switching-rhyme-same_different","","2309.600000023842","task_switching","39","{""symbolcue_switch_ans"":""36""}","training","","","","","","","","","","","","","","","symbolcue_switch","36","true","subtract","-","3","","","","","","","","","","","","","",""
"","","","","","html-keyboard-response","175","1626989","0.0-123.0","A1WH32GYQOHIRQ","2022-05-18T15:31:36.495Z","phon_sim-task_switching-rhyme-same_different","","null","task_switching","<div style=""color:darkgreen; font-size:60px"">Well done!</div>","null","training","","","","","","","","","","","","","","","symbolcue_switch","","","","","","","","","","","","","","","","","","",""
"","","","","","survey-text","176","1628766","0.0-124.0","A1WH32GYQOHIRQ","2022-05-18T15:31:36.495Z","phon_sim-task_switching-rhyme-same_different","","1773.7000000476837","task_switching","37","{""symbolcue_switch_ans"":""40""}","training","","","","","","","","","","","","","","","symbolcue_switch","40","true","add","+","4","","","","","","","","","","","","","",""
"","","","","","html-keyboard-response","177","1629773","0.0-125.0","A1WH32GYQOHIRQ","2022-05-18T15:31:36.495Z","phon_sim-task_switching-rhyme-same_different","","null","task_switching","<div style=""color:darkgreen; font-size:60px"">Well done!</div>","null","training","","","","","","","","","","","","","","","symbolcue_switch","","","","","","","","","","","","","","","","","","",""
"","","","","","survey-text","178","1632086","0.0-126.0","A1WH32GYQOHIRQ","2022-05-18T15:31:36.495Z","phon_sim-task_switching-rhyme-same_different","","2309.899999976158","task_switching","52","{""symbolcue_switch_ans"":""49""}","training","","","","","","","","","","","","","","","symbolcue_switch","49","true","subtract","-","5","","","","","","","","","","","","","",""
"","","","","","html-keyboard-response","179","1633092","0.0-127.0","A1WH32GYQOHIRQ","2022-05-18T15:31:36.495Z","phon_sim-task_switching-rhyme-same_different","","null","task_switching","<div style=""color:darkgreen; font-size:60px"">Well done!</div>","null","training","","","","","","","","","","","","","","","symbolcue_switch","","","","","","","","","","","","","","","","","","",""
"","","","","","survey-text","180","1634840","0.0-128.0","A1WH32GYQOHIRQ","2022-05-18T15:31:36.495Z","phon_sim-task_switching-rhyme-same_different","","1744.1999999284744","task_switching","71","{""symbolcue_switch_ans"":""74""}","training","","","","","","","","","","","","","","","symbolcue_switch","74","true","add","+","6","","","","","","","","","","","","","",""
"","","","","","html-keyboard-response","181","1635846","0.0-129.0","A1WH32GYQOHIRQ","2022-05-18T15:31:36.495Z","phon_sim-task_switching-rhyme-same_different","","null","task_switching","<div style=""color:darkgreen; font-size:60px"">Well done!</div>","null","training","","","","","","","","","","","","","","","symbolcue_switch","","","","","","","","","","","","","","","","","","",""
"","","","","","survey-text","182","1637783","0.0-130.0","A1WH32GYQOHIRQ","2022-05-18T15:31:36.495Z","phon_sim-task_switching-rhyme-same_different","","1933.8999999761581","task_switching","59","{""symbolcue_switch_ans"":""62""}","training","","","","","","","","","","","","","","","symbolcue_switch","62","false","subtract","-","7","","","","","","","","","","","","","",""
"","","","","","html-keyboard-response","183","1642787","0.0-131.0","A1WH32GYQOHIRQ","2022-05-18T15:31:36.495Z","phon_sim-task_switching-rhyme-same_different","","null","task_switching","<div style=""color:darkred; font-size:40px"">That was a <b>subtract</b> trial.<p> Correct answer: 56.</p><p> Next trial add 3.</p></div>","null","training","","","","","","","","","","","","","","","symbolcue_switch","","","","","","","","","","","","","","","","","","",""
"","","","","","survey-text","184","1644679","0.0-132.0","A1WH32GYQOHIRQ","2022-05-18T15:31:36.495Z","phon_sim-task_switching-rhyme-same_different","","1888.6999999284744","task_switching","42","{""symbolcue_switch_ans"":""45""}","training","","","","","","","","","","","","","","","symbolcue_switch","45","true","add","+","8","","","","","","","","","","","","","",""
"","","","","","html-keyboard-response","185","1645683","0.0-133.0","A1WH32GYQOHIRQ","2022-05-18T15:31:36.495Z","phon_sim-task_switching-rhyme-same_different","","null","task_switching","<div style=""color:darkgreen; font-size:60px"">Well done!</div>","null","training","","","","","","","","","","","","","","","symbolcue_switch","","","","","","","","","","","","","","","","","","",""
"","","","","","survey-text","186","1647991","0.0-134.0","A1WH32GYQOHIRQ","2022-05-18T15:31:36.495Z","phon_sim-task_switching-rhyme-same_different","","2305.399999976158","task_switching","22","{""symbolcue_switch_ans"":""1""}","training","","","","","","","","","","","","","","","symbolcue_switch","1","false","subtract","-","9","","","","","","","","","","","","","",""
"","","","","","html-keyboard-response","187","1652998","0.0-135.0","A1WH32GYQOHIRQ","2022-05-18T15:31:36.495Z","phon_sim-task_switching-rhyme-same_different","","null","task_switching","<div style=""color:darkred; font-size:40px"">Right direction but be careful with the numbers.<p> Correct answer: 19.</p><p> Next trial add 3.</p></div>","null","training","","","","","","","","","","","","","","","symbolcue_switch","","","","","","","","","","","","","","","","","","",""
"","","","","","instructions","188","1655380","0.0-136.0","A1WH32GYQOHIRQ","2022-05-18T15:31:36.495Z","phon_sim-task_switching-rhyme-same_different","[{""page_index"":0,""viewing_time"":2381.100000023842}]","2381.600000023842","task_switching","","","","","","","","","","","","","","","","","","","","","","","","","","","","","","","","","","","","",""
"","","","","","survey-text","189","1657991","0.0-137.0","A1WH32GYQOHIRQ","2022-05-18T15:31:36.495Z","phon_sim-task_switching-rhyme-same_different","","2607.6999999284744","task_switching","91","{""symbolcue_switch_ans"":""94""}","experiment","","","","","","","","","","","","","","","symbolcue_switch","94","true","add","+","0","","","","","","","","","","","","","",""
"","","","","","survey-text","190","1660287","0.0-138.0","A1WH32GYQOHIRQ","2022-05-18T15:31:36.495Z","phon_sim-task_switching-rhyme-same_different","","2292","task_switching","79","{""symbolcue_switch_ans"":""76""}","experiment","","","","","","","","","","","","","","","symbolcue_switch","76","true","subtract","-","1","","","","","","","","","","","","","",""
"","","","","","survey-text","191","1662879","0.0-139.0","A1WH32GYQOHIRQ","2022-05-18T15:31:36.495Z","phon_sim-task_switching-rhyme-same_different","","2588.5","task_switching","88","{""symbolcue_switch_ans"":""91""}","experiment","","","","","","","","","","","","","","","symbolcue_switch","91","true","add","+","2","","","","","","","","","","","","","",""
"","","","","","survey-text","192","1665550","0.0-140.0","A1WH32GYQOHIRQ","2022-05-18T15:31:36.495Z","phon_sim-task_switching-rhyme-same_different","","2666.899999976158","task_switching","70","{""symbolcue_switch_ans"":""67""}","experiment","","","","","","","","","","","","","","","symbolcue_switch","67","true","subtract","-","3","","","","","","","","","","","","","",""
"","","","","","survey-text","193","1667936","0.0-141.0","A1WH32GYQOHIRQ","2022-05-18T15:31:36.495Z","phon_sim-task_switching-rhyme-same_different","","2383","task_switching","82","{""symbolcue_switch_ans"":""85""}","experiment","","","","","","","","","","","","","","","symbolcue_switch","85","true","add","+","4","","","","","","","","","","","","","",""
"","","","","","survey-text","194","1672399","0.0-142.0","A1WH32GYQOHIRQ","2022-05-18T15:31:36.495Z","phon_sim-task_switching-rhyme-same_different","","4459.399999976158","task_switching","21","{""symbolcue_switch_ans"":""18""}","experiment","","","","","","","","","","","","","","","symbolcue_switch","18","true","subtract","-","5","","","","","","","","","","","","","",""
"","","","","","survey-text","195","1674575","0.0-143.0","A1WH32GYQOHIRQ","2022-05-18T15:31:36.495Z","phon_sim-task_switching-rhyme-same_different","","2171.7999999523163","task_switching","19","{""symbolcue_switch_ans"":""22""}","experiment","","","","","","","","","","","","","","","symbolcue_switch","22","true","add","+","6","","","","","","","","","","","","","",""
"","","","","","survey-text","196","1677119","0.0-144.0","A1WH32GYQOHIRQ","2022-05-18T15:31:36.495Z","phon_sim-task_switching-rhyme-same_different","","2540.2999999523163","task_switching","73","{""symbolcue_switch_ans"":""70""}","experiment","","","","","","","","","","","","","","","symbolcue_switch","70","true","subtract","-","7","","","","","","","","","","","","","",""
"","","","","","survey-text","197","1679167","0.0-145.0","A1WH32GYQOHIRQ","2022-05-18T15:31:36.495Z","phon_sim-task_switching-rhyme-same_different","","2044.1000000238419","task_switching","59","{""symbolcue_switch_ans"":""62""}","experiment","","","","","","","","","","","","","","","symbolcue_switch","62","true","add","+","8","","","","","","","","","","","","","",""
"","","","","","survey-text","198","1682335","0.0-146.0","A1WH32GYQOHIRQ","2022-05-18T15:31:36.495Z","phon_sim-task_switching-rhyme-same_different","","3164.2999999523163","task_switching","72","{""symbolcue_switch_ans"":""69""}","experiment","","","","","","","","","","","","","","","symbolcue_switch","69","true","subtract","-","9","","","","","","","","","","","","","",""
"","","","","","survey-text","199","1684559","0.0-147.0","A1WH32GYQOHIRQ","2022-05-18T15:31:36.495Z","phon_sim-task_switching-rhyme-same_different","","2219.899999976158","task_switching","30","{""symbolcue_switch_ans"":""33""}","experiment","","","","","","","","","","","","","","","symbolcue_switch","33","true","add","+","10","","","","","","","","","","","","","",""
"","","","","","survey-text","200","1687079","0.0-148.0","A1WH32GYQOHIRQ","2022-05-18T15:31:36.495Z","phon_sim-task_switching-rhyme-same_different","","2516.600000023842","task_switching","83","{""symbolcue_switch_ans"":""80""}","experiment","","","","","","","","","","","","","","","symbolcue_switch","80","true","subtract","-","11","","","","","","","","","","","","","",""
"","","","","","survey-text","201","1689007","0.0-149.0","A1WH32GYQOHIRQ","2022-05-18T15:31:36.495Z","phon_sim-task_switching-rhyme-same_different","","1924.5","task_switching","84","{""symbolcue_switch_ans"":""87""}","experiment","","","","","","","","","","","","","","","symbolcue_switch","87","true","add","+","12","","","","","","","","","","","","","",""
"","","","","","survey-text","202","1691335","0.0-150.0","A1WH32GYQOHIRQ","2022-05-18T15:31:36.495Z","phon_sim-task_switching-rhyme-same_different","","2324.1999999284744","task_switching","27","{""symbolcue_switch_ans"":""24""}","experiment","","","","","","","","","","","","","","","symbolcue_switch","24","true","subtract","-","13","","","","","","","","","","","","","",""
"","","","","","survey-text","203","1693968","0.0-151.0","A1WH32GYQOHIRQ","2022-05-18T15:31:36.495Z","phon_sim-task_switching-rhyme-same_different","","2629.100000023842","task_switching","46","{""symbolcue_switch_ans"":""49""}","experiment","","","","","","","","","","","","","","","symbolcue_switch","49","true","add","+","14","","","","","","","","","","","","","",""
"","","","","","survey-text","204","1696271","0.0-152.0","A1WH32GYQOHIRQ","2022-05-18T15:31:36.495Z","phon_sim-task_switching-rhyme-same_different","","2299.2999999523163","task_switching","67","{""symbolcue_switch_ans"":""64""}","experiment","","","","","","","","","","","","","","","symbolcue_switch","64","true","subtract","-","15","","","","","","","","","","","","","",""
"","","","","","survey-text","205","1698359","0.0-153.0","A1WH32GYQOHIRQ","2022-05-18T15:31:36.495Z","phon_sim-task_switching-rhyme-same_different","","2084.600000023842","task_switching","61","{""symbolcue_switch_ans"":""64""}","experiment","","","","","","","","","","","","","","","symbolcue_switch","64","true","add","+","16","","","","","","","","","","","","","",""
"","","","","","survey-text","206","1701127","0.0-154.0","A1WH32GYQOHIRQ","2022-05-18T15:31:36.495Z","phon_sim-task_switching-rhyme-same_different","","2764.1999999284744","task_switching","76","{""symbolcue_switch_ans"":""73""}","experiment","","","","","","","","","","","","","","","symbolcue_switch","73","true","subtract","-","17","","","","","","","","","","","","","",""
"","","","","","survey-text","207","1703695","0.0-155.0","A1WH32GYQOHIRQ","2022-05-18T15:31:36.495Z","phon_sim-task_switching-rhyme-same_different","","2564.399999976158","task_switching","31","{""symbolcue_switch_ans"":""34""}","experiment","","","","","","","","","","","","","","","symbolcue_switch","34","true","add","+","18","","","","","","","","","","","","","",""
"","","","","","survey-text","208","1706087","0.0-156.0","A1WH32GYQOHIRQ","2022-05-18T15:31:36.495Z","phon_sim-task_switching-rhyme-same_different","","2387.7999999523163","task_switching","93","{""symbolcue_switch_ans"":""90""}","experiment","","","","","","","","","","","","","","","symbolcue_switch","90","true","subtract","-","19","","","","","","","","","","","","","",""
"","","","","","survey-text","209","1708799","0.0-157.0","A1WH32GYQOHIRQ","2022-05-18T15:31:36.495Z","phon_sim-task_switching-rhyme-same_different","","2708.2999999523163","task_switching","32","{""symbolcue_switch_ans"":""35""}","experiment","","","","","","","","","","","","","","","symbolcue_switch","35","true","add","+","20","","","","","","","","","","","","","",""
"","","","","","survey-text","210","1711055","0.0-158.0","A1WH32GYQOHIRQ","2022-05-18T15:31:36.495Z","phon_sim-task_switching-rhyme-same_different","","2252.2999999523163","task_switching","29","{""symbolcue_switch_ans"":""26""}","experiment","","","","","","","","","","","","","","","symbolcue_switch","26","true","subtract","-","21","","","","","","","","","","","","","",""
"","","","","","survey-text","211","1713071","0.0-159.0","A1WH32GYQOHIRQ","2022-05-18T15:31:36.495Z","phon_sim-task_switching-rhyme-same_different","","2012.6000000238419","task_switching","33","{""symbolcue_switch_ans"":""36""}","experiment","","","","","","","","","","","","","","","symbolcue_switch","36","true","add","+","22","","","","","","","","","","","","","",""
"","","","","","survey-text","212","1715663","0.0-160.0","A1WH32GYQOHIRQ","2022-05-18T15:31:36.495Z","phon_sim-task_switching-rhyme-same_different","","2588.600000023842","task_switching","17","{""symbolcue_switch_ans"":""14""}","experiment","","","","","","","","","","","","","","","symbolcue_switch","14","true","subtract","-","23","","","","","","","","","","","","","",""
"","","","","","survey-text","213","1717775","0.0-161.0","A1WH32GYQOHIRQ","2022-05-18T15:31:36.495Z","phon_sim-task_switching-rhyme-same_different","","2107.7000000476837","task_switching","53","{""symbolcue_switch_ans"":""56""}","experiment","","","","","","","","","","","","","","","symbolcue_switch","56","true","add","+","24","","","","","","","","","","","","","",""
"","","","","","survey-text","214","1721480","0.0-162.0","A1WH32GYQOHIRQ","2022-05-18T15:31:36.495Z","phon_sim-task_switching-rhyme-same_different","","3701.0999999046326","task_switching","74","{""symbolcue_switch_ans"":""71""}","experiment","","","","","","","","","","","","","","","symbolcue_switch","71","true","subtract","-","25","","","","","","","","","","","","","",""
"","","","","","survey-text","215","1723822","0.0-163.0","A1WH32GYQOHIRQ","2022-05-18T15:31:36.495Z","phon_sim-task_switching-rhyme-same_different","","2338.2000000476837","task_switching","22","{""symbolcue_switch_ans"":""25""}","experiment","","","","","","","","","","","","","","","symbolcue_switch","25","true","add","+","26","","","","","","","","","","","","","",""
"","","","","","survey-text","216","1726990","0.0-164.0","A1WH32GYQOHIRQ","2022-05-18T15:31:36.495Z","phon_sim-task_switching-rhyme-same_different","","3165","task_switching","92","{""symbolcue_switch_ans"":""89""}","experiment","","","","","","","","","","","","","","","symbolcue_switch","89","true","subtract","-","27","","","","","","","","","","","","","",""
"","","","","","survey-text","217","1728710","0.0-165.0","A1WH32GYQOHIRQ","2022-05-18T15:31:36.495Z","phon_sim-task_switching-rhyme-same_different","","1716.3999999761581","task_switching","45","{""symbolcue_switch_ans"":""48""}","experiment","","","","","","","","","","","","","","","symbolcue_switch","48","true","add","+","28","","","","","","","","","","","","","",""
"","","","","","survey-text","218","1730342","0.0-166.0","A1WH32GYQOHIRQ","2022-05-18T15:31:36.495Z","phon_sim-task_switching-rhyme-same_different","","1628.1999999284744","task_switching","14","{""symbolcue_switch_ans"":""17""}","experiment","","","","","","","","","","","","","","","symbolcue_switch","17","false","subtract","-","29","","","","","","","","","","","","","",""
"","","","","","instructions","219","1756202","0.0-167.0","A1WH32GYQOHIRQ","2022-05-18T15:31:36.495Z","phon_sim-task_switching-rhyme-same_different","[{""page_index"":0,""viewing_time"":25858.899999976158}]","25859.399999976158","task_switching","","","","","","","","","","","","","","","","","","","","","","","","","","","","","","","","","","","","",""
"","","","","","survey-text","220","1758294","0.0-168.0","A1WH32GYQOHIRQ","2022-05-18T15:31:36.495Z","phon_sim-task_switching-rhyme-same_different","","2088.5","task_switching","21","{""colorcue_switch_ans"":""24""}","training","","","","","","","","","","","","","","","colorcue_switch","24","true","add","","0","red","","","","","","","","","","","","",""
"","","","","","html-keyboard-response","221","1759296","0.0-169.0","A1WH32GYQOHIRQ","2022-05-18T15:31:36.495Z","phon_sim-task_switching-rhyme-same_different","","null","task_switching","<div style=""color:darkgreen; font-size:60px"">Well done!</div>","null","training","","","","","","","","","","","","","","","colorcue_switch","","","","","","","","","","","","","","","","","","",""
"","","","","","survey-text","222","1761006","0.0-170.0","A1WH32GYQOHIRQ","2022-05-18T15:31:36.495Z","phon_sim-task_switching-rhyme-same_different","","1707.3999999761581","task_switching","58","{""colorcue_switch_ans"":""55""}","training","","","","","","","","","","","","","","","colorcue_switch","55","true","subtract","","1","blue","","","","","","","","","","","","",""
"","","","","","html-keyboard-response","223","1762013","0.0-171.0","A1WH32GYQOHIRQ","2022-05-18T15:31:36.495Z","phon_sim-task_switching-rhyme-same_different","","null","task_switching","<div style=""color:darkgreen; font-size:60px"">Well done!</div>","null","training","","","","","","","","","","","","","","","colorcue_switch","","","","","","","","","","","","","","","","","","",""
"","","","","","survey-text","224","1764478","0.0-172.0","A1WH32GYQOHIRQ","2022-05-18T15:31:36.495Z","phon_sim-task_switching-rhyme-same_different","","2461.3000000715256","task_switching","78","{""colorcue_switch_ans"":""81""}","training","","","","","","","","","","","","","","","colorcue_switch","81","true","add","","2","red","","","","","","","","","","","","",""
"","","","","","html-keyboard-response","225","1765483","0.0-173.0","A1WH32GYQOHIRQ","2022-05-18T15:31:36.495Z","phon_sim-task_switching-rhyme-same_different","","null","task_switching","<div style=""color:darkgreen; font-size:60px"">Well done!</div>","null","training","","","","","","","","","","","","","","","colorcue_switch","","","","","","","","","","","","","","","","","","",""
"","","","","","survey-text","226","1767462","0.0-174.0","A1WH32GYQOHIRQ","2022-05-18T15:31:36.495Z","phon_sim-task_switching-rhyme-same_different","","1975.6000000238419","task_switching","81","{""colorcue_switch_ans"":""79""}","training","","","","","","","","","","","","","","","colorcue_switch","79","false","subtract","","3","blue","","","","","","","","","","","","",""
"","","","","","html-keyboard-response","227","1772469","0.0-175.0","A1WH32GYQOHIRQ","2022-05-18T15:31:36.495Z","phon_sim-task_switching-rhyme-same_different","","null","task_switching","<div style=""color:darkred; font-size:40px"">Right direction but be careful with the numbers.<p> Correct answer: 78.</p><p> Next trial add 3.</p></div>","null","training","","","","","","","","","","","","","","","colorcue_switch","","","","","","","","","","","","","","","","","","",""
"","","","","","survey-text","228","1774830","0.0-176.0","A1WH32GYQOHIRQ","2022-05-18T15:31:36.495Z","phon_sim-task_switching-rhyme-same_different","","2357.600000023842","task_switching","66","{""colorcue_switch_ans"":""69""}","training","","","","","","","","","","","","","","","colorcue_switch","69","true","add","","4","red","","","","","","","","","","","","",""
"","","","","","html-keyboard-response","229","1775837","0.0-177.0","A1WH32GYQOHIRQ","2022-05-18T15:31:36.495Z","phon_sim-task_switching-rhyme-same_different","","null","task_switching","<div style=""color:darkgreen; font-size:60px"">Well done!</div>","null","training","","","","","","","","","","","","","","","colorcue_switch","","","","","","","","","","","","","","","","","","",""
"","","","","","survey-text","230","1778694","0.0-178.0","A1WH32GYQOHIRQ","2022-05-18T15:31:36.495Z","phon_sim-task_switching-rhyme-same_different","","2853.899999976158","task_switching","37","{""colorcue_switch_ans"":""34""}","training","","","","","","","","","","","","","","","colorcue_switch","34","true","subtract","","5","blue","","","","","","","","","","","","",""
"","","","","","html-keyboard-response","231","1779698","0.0-179.0","A1WH32GYQOHIRQ","2022-05-18T15:31:36.495Z","phon_sim-task_switching-rhyme-same_different","","null","task_switching","<div style=""color:darkgreen; font-size:60px"">Well done!</div>","null","training","","","","","","","","","","","","","","","colorcue_switch","","","","","","","","","","","","","","","","","","",""
"","","","","","survey-text","232","1782838","0.0-180.0","A1WH32GYQOHIRQ","2022-05-18T15:31:36.495Z","phon_sim-task_switching-rhyme-same_different","","3136.600000023842","task_switching","69","{""colorcue_switch_ans"":""72""}","training","","","","","","","","","","","","","","","colorcue_switch","72","true","add","","6","red","","","","","","","","","","","","",""
"","","","","","html-keyboard-response","233","1783845","0.0-181.0","A1WH32GYQOHIRQ","2022-05-18T15:31:36.495Z","phon_sim-task_switching-rhyme-same_different","","null","task_switching","<div style=""color:darkgreen; font-size:60px"">Well done!</div>","null","training","","","","","","","","","","","","","","","colorcue_switch","","","","","","","","","","","","","","","","","","",""
"","","","","","survey-text","234","1786822","0.0-182.0","A1WH32GYQOHIRQ","2022-05-18T15:31:36.495Z","phon_sim-task_switching-rhyme-same_different","","2973","task_switching","92","{""colorcue_switch_ans"":""89""}","training","","","","","","","","","","","","","","","colorcue_switch","89","true","subtract","","7","blue","","","","","","","","","","","","",""
"","","","","","html-keyboard-response","235","1787829","0.0-183.0","A1WH32GYQOHIRQ","2022-05-18T15:31:36.495Z","phon_sim-task_switching-rhyme-same_different","","null","task_switching","<div style=""color:darkgreen; font-size:60px"">Well done!</div>","null","training","","","","","","","","","","","","","","","colorcue_switch","","","","","","","","","","","","","","","","","","",""
