"success","timeout","failed_images","failed_audio","failed_video","trial_type","trial_index","time_elapsed","internal_node_id","worker_id","start_time","experiment_order","view_history","rt","experiment","stimulus","response","phase","word_1","word_2","word_3","word_4","word_5","original_word_set","response_1","response_2","response_3","response_4","response_5","question_order","talk_out_loud","strategy_free_ans","wait_time","correct","image_1","image_2","cor_key","type","condition","answer","operation","symbol_cue","trial_no","color_cue","judgment_type","stim_1","stim_2","inverted","true_pos","true_neg","false_pos","false_neg"
"true","false","[]","[]","[]","preload","0","2744","0.0-0.0","A3KVKK1XLBTSN3","2022-05-19T01:59:00.331Z","phon_sim-rhyme-task_switching-same_different","","","","","","","","","","","","","","","","","","","","","","","","","","","","","","","","","","","","","","","",""
"","","","","","instructions","1","9259","0.0-1.0","A3KVKK1XLBTSN3","2022-05-19T01:59:00.331Z","phon_sim-rhyme-task_switching-same_different","[{""page_index"":0,""viewing_time"":6514.299999952316}]","6514.600000023842","","","","","","","","","","","","","","","","","","","","","","","","","","","","","","","","","","","","","",""
"true","","","","","fullscreen","2","11957","0.0-2.0","A3KVKK1XLBTSN3","2022-05-19T01:59:00.331Z","phon_sim-rhyme-task_switching-same_different","","","","","","","","","","","","","","","","","","","","","","","","","","","","","","","","","","","","","","","",""
"","","","","","instructions","3","36067","0.0-3.0","A3KVKK1XLBTSN3","2022-05-19T01:59:00.331Z","phon_sim-rhyme-task_switching-same_different","[{""page_index"":0,""viewing_time"":24109.200000047684}]","24109.299999952316","phon_sim","","","","","","","","","","","","","","","","","","","","","","","","","","","","","","","","","","","","",""
"","","","","","html-keyboard-response","4","49075","0.0-4.0-0.0","A3KVKK1XLBTSN3","2022-05-19T01:59:00.331Z","phon_sim-rhyme-task_switching-same_different","","null","phon_sim","<div style=""display:grid""><h1 id=""word_1"" style=""grid-column:1; grid-row:1"">pen</h1><h1 id=""word_2"" style=""visibility:hidden;grid-column:1; grid-row:1"">rig</h1><h1 id=""word_3"" style=""visibility:hidden;grid-column:1; grid-row:1"">day</h1><h1 id=""word_4"" style=""visibility:hidden;grid-column:1; grid-row:1"">bar</h1><h1 id=""word_5"" style=""visibility:hidden;grid-column:1; grid-row:1"">cow</h1></div>","null","training","pen","rig","day","bar","cow","training","","","","","","","","","","","","","","","","","","","","","","","","","","","",""
"","","","","","survey-text","5","63764","0.0-4.0-1.0","A3KVKK1XLBTSN3","2022-05-19T01:59:00.331Z","phon_sim-rhyme-task_switching-same_different","","14681.700000047684","phon_sim","","{""position_1"":""pen"",""position_2"":""rig"",""position_3"":""day"",""position_4"":""bar"",""position_5"":""cow""}","training","","","","","","","pen","rig","day","bar","cow","","","","","","","","","","","","","","","","","","","","","","",""
"","","","","","html-keyboard-response","6","68775","0.0-4.0-2.0","A3KVKK1XLBTSN3","2022-05-19T01:59:00.331Z","phon_sim-rhyme-task_switching-same_different","","null","phon_sim","<h1 id=""word_1"">pen</h1><h1 id=""word_2"">rig</h1><h1 id=""word_3"">day</h1><h1 id=""word_4"">bar</h1><h1 id=""word_5"">cow</h1>","null","","","","","","","","","","","","","","","","","","","","","","","","","","","","","","","","","","",""
"","","","","","html-keyboard-response","7","81780","0.0-4.0-0.1","A3KVKK1XLBTSN3","2022-05-19T01:59:00.331Z","phon_sim-rhyme-task_switching-same_different","","null","phon_sim","<div style=""display:grid""><h1 id=""word_1"" style=""grid-column:1; grid-row:1"">mad</h1><h1 id=""word_2"" style=""visibility:hidden;grid-column:1; grid-row:1"">man</h1><h1 id=""word_3"" style=""visibility:hidden;grid-column:1; grid-row:1"">map</h1><h1 id=""word_4"" style=""visibility:hidden;grid-column:1; grid-row:1"">mat</h1><h1 id=""word_5"" style=""visibility:hidden;grid-column:1; grid-row:1"">max</h1></div>","null","training","mad","man","map","mat","max","training","","","","","","","","","","","","","","","","","","","","","","","","","","","",""
"","","","","","survey-text","8","91680","0.0-4.0-1.1","A3KVKK1XLBTSN3","2022-05-19T01:59:00.331Z","phon_sim-rhyme-task_switching-same_different","","9894.5","phon_sim","","{""position_1"":""man"",""position_2"":""mad"",""position_3"":""map"",""position_4"":"""",""position_5"":""""}","training","","","","","","","man","mad","map","","","","","","","","","","","","","","","","","","","","","","","","",""
"","","","","","html-keyboard-response","9","96684","0.0-4.0-2.1","A3KVKK1XLBTSN3","2022-05-19T01:59:00.331Z","phon_sim-rhyme-task_switching-same_different","","null","phon_sim","<h1 id=""word_1"">mad</h1><h1 id=""word_2"">man</h1><h1 id=""word_3"">map</h1><h1 id=""word_4"">mat</h1><h1 id=""word_5"">max</h1>","null","","","","","","","","","","","","","","","","","","","","","","","","","","","","","","","","","","",""
"","","","","","instructions","10","98396","0.0-5.0","A3KVKK1XLBTSN3","2022-05-19T01:59:00.331Z","phon_sim-rhyme-task_switching-same_different","[{""page_index"":0,""viewing_time"":1712}]","1712.2999999523163","","","","","","","","","","","","","","","","","","","","","","","","","","","","","","","","","","","","","",""
"","","","","","html-keyboard-response","11","111404","0.0-6.0-0.0","A3KVKK1XLBTSN3","2022-05-19T01:59:00.331Z","phon_sim-rhyme-task_switching-same_different","","null","phon_sim","<div style=""display:grid""><h1 id=""word_1"" style=""grid-column:1; grid-row:1"">sort</h1><h1 id=""word_2"" style=""visibility:hidden;grid-column:1; grid-row:1"">wart</h1><h1 id=""word_3"" style=""visibility:hidden;grid-column:1; grid-row:1"">caught</h1><h1 id=""word_4"" style=""visibility:hidden;grid-column:1; grid-row:1"">bought</h1><h1 id=""word_5"" style=""visibility:hidden;grid-column:1; grid-row:1"">taut</h1></div>","null","experiment","sort","wart","caught","bought","taut","phonSet","","","","","","","","","","","","","","","","","","","","","","","","","","","",""
"","","","","","survey-text","12","144150","0.0-6.0-1.0","A3KVKK1XLBTSN3","2022-05-19T01:59:00.331Z","phon_sim-rhyme-task_switching-same_different","","32740.399999976158","phon_sim","","{""position_1"":""sort"",""position_2"":""wart"",""position_3"":""caught"",""position_4"":""bought"",""position_5"":""taut""}","experiment","","","","","","","sort","wart","caught","bought","taut","","","","","","","","","","","","","","","","","","","","","","",""
"","","","","","html-keyboard-response","13","157164","0.0-6.0-0.1","A3KVKK1XLBTSN3","2022-05-19T01:59:00.331Z","phon_sim-rhyme-task_switching-same_different","","null","phon_sim","<div style=""display:grid""><h1 id=""word_1"" style=""grid-column:1; grid-row:1"">through</h1><h1 id=""word_2"" style=""visibility:hidden;grid-column:1; grid-row:1"">rough</h1><h1 id=""word_3"" style=""visibility:hidden;grid-column:1; grid-row:1"">dough</h1><h1 id=""word_4"" style=""visibility:hidden;grid-column:1; grid-row:1"">cough</h1><h1 id=""word_5"" style=""visibility:hidden;grid-column:1; grid-row:1"">bough</h1></div>","null","experiment","through","rough","dough","cough","bough","orthoSet","","","","","","","","","","","","","","","","","","","","","","","","","","","",""
"","","","","","survey-text","14","177773","0.0-6.0-1.1","A3KVKK1XLBTSN3","2022-05-19T01:59:00.331Z","phon_sim-rhyme-task_switching-same_different","","20603.600000023842","phon_sim","","{""position_1"":""through "",""position_2"":""rough"",""position_3"":""dough"",""position_4"":""cough"",""position_5"":""baight""}","experiment","","","","","","","through ","rough","dough","cough","baight","","","","","","","","","","","","","","","","","","","","","","",""
"","","","","","html-keyboard-response","15","190784","0.0-6.0-0.2","A3KVKK1XLBTSN3","2022-05-19T01:59:00.331Z","phon_sim-rhyme-task_switching-same_different","","null","phon_sim","<div style=""display:grid""><h1 id=""word_1"" style=""grid-column:1; grid-row:1"">plea</h1><h1 id=""word_2"" style=""visibility:hidden;grid-column:1; grid-row:1"">sleigh</h1><h1 id=""word_3"" style=""visibility:hidden;grid-column:1; grid-row:1"">row</h1><h1 id=""word_4"" style=""visibility:hidden;grid-column:1; grid-row:1"">board</h1><h1 id=""word_5"" style=""visibility:hidden;grid-column:1; grid-row:1"">friend</h1></div>","null","experiment","plea","sleigh","row","board","friend","controlSet","","","","","","","","","","","","","","","","","","","","","","","","","","","",""
"","","","","","survey-text","16","207975","0.0-6.0-1.2","A3KVKK1XLBTSN3","2022-05-19T01:59:00.331Z","phon_sim-rhyme-task_switching-same_different","","17187.099999904633","phon_sim","","{""position_1"":""plea"",""position_2"":"""",""position_3"":""row"",""position_4"":""board"",""position_5"":""friend""}","experiment","","","","","","","plea","","row","board","friend","","","","","","","","","","","","","","","","","","","","","","",""
"","","","","","html-keyboard-response","17","220992","0.0-6.0-0.3","A3KVKK1XLBTSN3","2022-05-19T01:59:00.331Z","phon_sim-rhyme-task_switching-same_different","","null","phon_sim","<div style=""display:grid""><h1 id=""word_1"" style=""grid-column:1; grid-row:1"">rough</h1><h1 id=""word_2"" style=""visibility:hidden;grid-column:1; grid-row:1"">bough</h1><h1 id=""word_3"" style=""visibility:hidden;grid-column:1; grid-row:1"">cough</h1><h1 id=""word_4"" style=""visibility:hidden;grid-column:1; grid-row:1"">dough</h1><h1 id=""word_5"" style=""visibility:hidden;grid-column:1; grid-row:1"">through</h1></div>","null","experiment","rough","bough","cough","dough","through","orthoSet","","","","","","","","","","","","","","","","","","","","","","","","","","","",""
"","","","","","survey-text","18","249917","0.0-6.0-1.3","A3KVKK1XLBTSN3","2022-05-19T01:59:00.331Z","phon_sim-rhyme-task_switching-same_different","","28920.100000023842","phon_sim","","{""position_1"":""rough"",""position_2"":""bought"",""position_3"":""cough"",""position_4"":""dough"",""position_5"":""though""}","experiment","","","","","","","rough","bought","cough","dough","though","","","","","","","","","","","","","","","","","","","","","","",""
"","","","","","html-keyboard-response","19","262921","0.0-6.0-0.4","A3KVKK1XLBTSN3","2022-05-19T01:59:00.331Z","phon_sim-rhyme-task_switching-same_different","","null","phon_sim","<div style=""display:grid""><h1 id=""word_1"" style=""grid-column:1; grid-row:1"">bought</h1><h1 id=""word_2"" style=""visibility:hidden;grid-column:1; grid-row:1"">caught</h1><h1 id=""word_3"" style=""visibility:hidden;grid-column:1; grid-row:1"">sort</h1><h1 id=""word_4"" style=""visibility:hidden;grid-column:1; grid-row:1"">taut</h1><h1 id=""word_5"" style=""visibility:hidden;grid-column:1; grid-row:1"">wart</h1></div>","null","experiment","bought","caught","sort","taut","wart","phonSet","","","","","","","","","","","","","","","","","","","","","","","","","","","",""
"","","","","","survey-text","20","297459","0.0-6.0-1.4","A3KVKK1XLBTSN3","2022-05-19T01:59:00.331Z","phon_sim-rhyme-task_switching-same_different","","34541.89999997616","phon_sim","","{""position_1"":""bought"",""position_2"":""caught"",""position_3"":""sort"",""position_4"":""taught"",""position_5"":""wart""}","experiment","","","","","","","bought","caught","sort","taught","wart","","","","","","","","","","","","","","","","","","","","","","",""
"","","","","","html-keyboard-response","21","310467","0.0-6.0-0.5","A3KVKK1XLBTSN3","2022-05-19T01:59:00.331Z","phon_sim-rhyme-task_switching-same_different","","null","phon_sim","<div style=""display:grid""><h1 id=""word_1"" style=""grid-column:1; grid-row:1"">bough</h1><h1 id=""word_2"" style=""visibility:hidden;grid-column:1; grid-row:1"">rough</h1><h1 id=""word_3"" style=""visibility:hidden;grid-column:1; grid-row:1"">dough</h1><h1 id=""word_4"" style=""visibility:hidden;grid-column:1; grid-row:1"">through</h1><h1 id=""word_5"" style=""visibility:hidden;grid-column:1; grid-row:1"">cough</h1></div>","null","experiment","bough","rough","dough","through","cough","orthoSet","","","","","","","","","","","","","","","","","","","","","","","","","","","",""
"","","","","","survey-text","22","339903","0.0-6.0-1.5","A3KVKK1XLBTSN3","2022-05-19T01:59:00.331Z","phon_sim-rhyme-task_switching-same_different","","29431","phon_sim","","{""position_1"":""bough"",""position_2"":""rough"",""position_3"":""fight"",""position_4"":""through"",""position_5"":""deep Discontinion""}","experiment","","","","","","","bough","rough","fight","through","deep Discontinion","","","","","","","","","","","","","","","","","","","","","","",""
"","","","","","html-keyboard-response","23","352927","0.0-6.0-0.6","A3KVKK1XLBTSN3","2022-05-19T01:59:00.331Z","phon_sim-rhyme-task_switching-same_different","","null","phon_sim","<div style=""display:grid""><h1 id=""word_1"" style=""grid-column:1; grid-row:1"">sort</h1><h1 id=""word_2"" style=""visibility:hidden;grid-column:1; grid-row:1"">caught</h1><h1 id=""word_3"" style=""visibility:hidden;grid-column:1; grid-row:1"">taut</h1><h1 id=""word_4"" style=""visibility:hidden;grid-column:1; grid-row:1"">wart</h1><h1 id=""word_5"" style=""visibility:hidden;grid-column:1; grid-row:1"">bought</h1></div>","null","experiment","sort","caught","taut","wart","bought","phonSet","","","","","","","","","","","","","","","","","","","","","","","","","","","",""
"","","","","","survey-text","24","451513","0.0-6.0-1.6","A3KVKK1XLBTSN3","2022-05-19T01:59:00.331Z","phon_sim-rhyme-task_switching-same_different","","98581.5","phon_sim","","{""position_1"":""sort"",""position_2"":""caught"",""position_3"":""taught"",""position_4"":""wart"",""position_5"":""bought""}","experiment","","","","","","","sort","caught","taught","wart","bought","","","","","","","","","","","","","","","","","","","","","","",""
"","","","","","html-keyboard-response","25","464529","0.0-6.0-0.7","A3KVKK1XLBTSN3","2022-05-19T01:59:00.331Z","phon_sim-rhyme-task_switching-same_different","","null","phon_sim","<div style=""display:grid""><h1 id=""word_1"" style=""grid-column:1; grid-row:1"">row</h1><h1 id=""word_2"" style=""visibility:hidden;grid-column:1; grid-row:1"">friend</h1><h1 id=""word_3"" style=""visibility:hidden;grid-column:1; grid-row:1"">plea</h1><h1 id=""word_4"" style=""visibility:hidden;grid-column:1; grid-row:1"">board</h1><h1 id=""word_5"" style=""visibility:hidden;grid-column:1; grid-row:1"">sleigh</h1></div>","null","experiment","row","friend","plea","board","sleigh","controlSet","","","","","","","","","","","","","","","","","","","","","","","","","","","",""
"","","","","","survey-text","26","476097","0.0-6.0-1.7","A3KVKK1XLBTSN3","2022-05-19T01:59:00.331Z","phon_sim-rhyme-task_switching-same_different","","11562.600000023842","phon_sim","","{""position_1"":""row"",""position_2"":""friend"",""position_3"":""plea"",""position_4"":""board"",""position_5"":""""}","experiment","","","","","","","row","friend","plea","board","","","","","","","","","","","","","","","","","","","","","","","",""
"","","","","","html-keyboard-response","27","489108","0.0-6.0-0.8","A3KVKK1XLBTSN3","2022-05-19T01:59:00.331Z","phon_sim-rhyme-task_switching-same_different","","null","phon_sim","<div style=""display:grid""><h1 id=""word_1"" style=""grid-column:1; grid-row:1"">through</h1><h1 id=""word_2"" style=""visibility:hidden;grid-column:1; grid-row:1"">dough</h1><h1 id=""word_3"" style=""visibility:hidden;grid-column:1; grid-row:1"">bough</h1><h1 id=""word_4"" style=""visibility:hidden;grid-column:1; grid-row:1"">rough</h1><h1 id=""word_5"" style=""visibility:hidden;grid-column:1; grid-row:1"">cough</h1></div>","null","experiment","through","dough","bough","rough","cough","orthoSet","","","","","","","","","","","","","","","","","","","","","","","","","","","",""
"","","","","","survey-text","28","510809","0.0-6.0-1.8","A3KVKK1XLBTSN3","2022-05-19T01:59:00.331Z","phon_sim-rhyme-task_switching-same_different","","21696.799999952316","phon_sim","","{""position_1"":""through"",""position_2"":""dough"",""position_3"":"""",""position_4"":""rough"",""position_5"":""cough""}","experiment","","","","","","","through","dough","","rough","cough","","","","","","","","","","","","","","","","","","","","","","",""
"","","","","","html-keyboard-response","29","523827","0.0-6.0-0.9","A3KVKK1XLBTSN3","2022-05-19T01:59:00.331Z","phon_sim-rhyme-task_switching-same_different","","null","phon_sim","<div style=""display:grid""><h1 id=""word_1"" style=""grid-column:1; grid-row:1"">board</h1><h1 id=""word_2"" style=""visibility:hidden;grid-column:1; grid-row:1"">friend</h1><h1 id=""word_3"" style=""visibility:hidden;grid-column:1; grid-row:1"">row</h1><h1 id=""word_4"" style=""visibility:hidden;grid-column:1; grid-row:1"">plea</h1><h1 id=""word_5"" style=""visibility:hidden;grid-column:1; grid-row:1"">sleigh</h1></div>","null","experiment","board","friend","row","plea","sleigh","controlSet","","","","","","","","","","","","","","","","","","","","","","","","","","","",""
"","","","","","survey-text","30","544221","0.0-6.0-1.9","A3KVKK1XLBTSN3","2022-05-19T01:59:00.331Z","phon_sim-rhyme-task_switching-same_different","","20389.400000095367","phon_sim","","{""position_1"":""board"",""position_2"":""friend"",""position_3"":""row"",""position_4"":""plea"",""position_5"":""""}","experiment","","","","","","","board","friend","row","plea","","","","","","","","","","","","","","","","","","","","","","","",""
"","","","","","html-keyboard-response","31","557231","0.0-6.0-0.10","A3KVKK1XLBTSN3","2022-05-19T01:59:00.331Z","phon_sim-rhyme-task_switching-same_different","","null","phon_sim","<div style=""display:grid""><h1 id=""word_1"" style=""grid-column:1; grid-row:1"">wart</h1><h1 id=""word_2"" style=""visibility:hidden;grid-column:1; grid-row:1"">taut</h1><h1 id=""word_3"" style=""visibility:hidden;grid-column:1; grid-row:1"">sort</h1><h1 id=""word_4"" style=""visibility:hidden;grid-column:1; grid-row:1"">caught</h1><h1 id=""word_5"" style=""visibility:hidden;grid-column:1; grid-row:1"">bought</h1></div>","null","experiment","wart","taut","sort","caught","bought","phonSet","","","","","","","","","","","","","","","","","","","","","","","","","","","",""
"","","","","","survey-text","32","598336","0.0-6.0-1.10","A3KVKK1XLBTSN3","2022-05-19T01:59:00.331Z","phon_sim-rhyme-task_switching-same_different","","41100.299999952316","phon_sim","","{""position_1"":""wart"",""position_2"":""taught"",""position_3"":""bought"",""position_4"":""caught"",""position_5"":""""}","experiment","","","","","","","wart","taught","bought","caught","","","","","","","","","","","","","","","","","","","","","","","",""
"","","","","","html-keyboard-response","33","611351","0.0-6.0-0.11","A3KVKK1XLBTSN3","2022-05-19T01:59:00.331Z","phon_sim-rhyme-task_switching-same_different","","null","phon_sim","<div style=""display:grid""><h1 id=""word_1"" style=""grid-column:1; grid-row:1"">sort</h1><h1 id=""word_2"" style=""visibility:hidden;grid-column:1; grid-row:1"">taut</h1><h1 id=""word_3"" style=""visibility:hidden;grid-column:1; grid-row:1"">caught</h1><h1 id=""word_4"" style=""visibility:hidden;grid-column:1; grid-row:1"">wart</h1><h1 id=""word_5"" style=""visibility:hidden;grid-column:1; grid-row:1"">bought</h1></div>","null","experiment","sort","taut","caught","wart","bought","phonSet","","","","","","","","","","","","","","","","","","","","","","","","","","","",""
"","","","","","survey-text","34","628435","0.0-6.0-1.11","A3KVKK1XLBTSN3","2022-05-19T01:59:00.331Z","phon_sim-rhyme-task_switching-same_different","","17078.399999976158","phon_sim","","{""position_1"":""taught"",""position_2"":""short"",""position_3"":""taut"",""position_4"":""wart"",""position_5"":""""}","experiment","","","","","","","taught","short","taut","wart","","","","","","","","","","","","","","","","","","","","","","","",""
"","","","","","html-keyboard-response","35","641441","0.0-6.0-0.12","A3KVKK1XLBTSN3","2022-05-19T01:59:00.331Z","phon_sim-rhyme-task_switching-same_different","","null","phon_sim","<div style=""display:grid""><h1 id=""word_1"" style=""grid-column:1; grid-row:1"">plea</h1><h1 id=""word_2"" style=""visibility:hidden;grid-column:1; grid-row:1"">sleigh</h1><h1 id=""word_3"" style=""visibility:hidden;grid-column:1; grid-row:1"">board</h1><h1 id=""word_4"" style=""visibility:hidden;grid-column:1; grid-row:1"">row</h1><h1 id=""word_5"" style=""visibility:hidden;grid-column:1; grid-row:1"">friend</h1></div>","null","experiment","plea","sleigh","board","row","friend","controlSet","","","","","","","","","","","","","","","","","","","","","","","","","","","",""
"","","","","","survey-text","36","651218","0.0-6.0-1.12","A3KVKK1XLBTSN3","2022-05-19T01:59:00.331Z","phon_sim-rhyme-task_switching-same_different","","9782.799999952316","phon_sim","","{""position_1"":""plea"",""position_2"":""board"",""position_3"":""row"",""position_4"":"""",""position_5"":""""}","experiment","","","","","","","plea","board","row","","","","","","","","","","","","","","","","","","","","","","","","",""
"","","","","","html-keyboard-response","37","664225","0.0-6.0-0.13","A3KVKK1XLBTSN3","2022-05-19T01:59:00.331Z","phon_sim-rhyme-task_switching-same_different","","null","phon_sim","<div style=""display:grid""><h1 id=""word_1"" style=""grid-column:1; grid-row:1"">dough</h1><h1 id=""word_2"" style=""visibility:hidden;grid-column:1; grid-row:1"">cough</h1><h1 id=""word_3"" style=""visibility:hidden;grid-column:1; grid-row:1"">rough</h1><h1 id=""word_4"" style=""visibility:hidden;grid-column:1; grid-row:1"">through</h1><h1 id=""word_5"" style=""visibility:hidden;grid-column:1; grid-row:1"">bough</h1></div>","null","experiment","dough","cough","rough","through","bough","orthoSet","","","","","","","","","","","","","","","","","","","","","","","","","","","",""
"","","","","","survey-text","38","716422","0.0-6.0-1.13","A3KVKK1XLBTSN3","2022-05-19T01:59:00.331Z","phon_sim-rhyme-task_switching-same_different","","52178.60000002384","phon_sim","","{""position_1"":""dough"",""position_2"":""cough"",""position_3"":""rough"",""position_4"":""broughn"",""position_5"":""""}","experiment","","","","","","","dough","cough","rough","broughn","","","","","","","","","","","","","","","","","","","","","","","",""
"","","","","","html-keyboard-response","39","729431","0.0-6.0-0.14","A3KVKK1XLBTSN3","2022-05-19T01:59:00.331Z","phon_sim-rhyme-task_switching-same_different","","null","phon_sim","<div style=""display:grid""><h1 id=""word_1"" style=""grid-column:1; grid-row:1"">sleigh</h1><h1 id=""word_2"" style=""visibility:hidden;grid-column:1; grid-row:1"">board</h1><h1 id=""word_3"" style=""visibility:hidden;grid-column:1; grid-row:1"">plea</h1><h1 id=""word_4"" style=""visibility:hidden;grid-column:1; grid-row:1"">friend</h1><h1 id=""word_5"" style=""visibility:hidden;grid-column:1; grid-row:1"">row</h1></div>","null","experiment","sleigh","board","plea","friend","row","controlSet","","","","","","","","","","","","","","","","","","","","","","","","","","","",""
"","","","","","survey-text","40","748930","0.0-6.0-1.14","A3KVKK1XLBTSN3","2022-05-19T01:59:00.331Z","phon_sim-rhyme-task_switching-same_different","","19493.700000047684","phon_sim","","{""position_1"":""sleigh"",""position_2"":""board"",""position_3"":""play"",""position_4"":""child"",""position_5"":""""}","experiment","","","","","","","sleigh","board","play","child","","","","","","","","","","","","","","","","","","","","","","","",""
"","","","","","html-keyboard-response","41","761936","0.0-6.0-0.15","A3KVKK1XLBTSN3","2022-05-19T01:59:00.331Z","phon_sim-rhyme-task_switching-same_different","","null","phon_sim","<div style=""display:grid""><h1 id=""word_1"" style=""grid-column:1; grid-row:1"">board</h1><h1 id=""word_2"" style=""visibility:hidden;grid-column:1; grid-row:1"">friend</h1><h1 id=""word_3"" style=""visibility:hidden;grid-column:1; grid-row:1"">plea</h1><h1 id=""word_4"" style=""visibility:hidden;grid-column:1; grid-row:1"">sleigh</h1><h1 id=""word_5"" style=""visibility:hidden;grid-column:1; grid-row:1"">row</h1></div>","null","experiment","board","friend","plea","sleigh","row","controlSet","","","","","","","","","","","","","","","","","","","","","","","","","","","",""
"","","","","","survey-text","42","773238","0.0-6.0-1.15","A3KVKK1XLBTSN3","2022-05-19T01:59:00.331Z","phon_sim-rhyme-task_switching-same_different","","11296.600000023842","phon_sim","","{""position_1"":""board"",""position_2"":""land"",""position_3"":""sight"",""position_4"":"""",""position_5"":""""}","experiment","","","","","","","board","land","sight","","","","","","","","","","","","","","","","","","","","","","","","",""
"","","","","","html-keyboard-response","43","786242","0.0-6.0-0.16","A3KVKK1XLBTSN3","2022-05-19T01:59:00.331Z","phon_sim-rhyme-task_switching-same_different","","null","phon_sim","<div style=""display:grid""><h1 id=""word_1"" style=""grid-column:1; grid-row:1"">board</h1><h1 id=""word_2"" style=""visibility:hidden;grid-column:1; grid-row:1"">friend</h1><h1 id=""word_3"" style=""visibility:hidden;grid-column:1; grid-row:1"">sleigh</h1><h1 id=""word_4"" style=""visibility:hidden;grid-column:1; grid-row:1"">row</h1><h1 id=""word_5"" style=""visibility:hidden;grid-column:1; grid-row:1"">plea</h1></div>","null","experiment","board","friend","sleigh","row","plea","controlSet","","","","","","","","","","","","","","","","","","","","","","","","","","","",""
"","","","","","survey-text","44","846151","0.0-6.0-1.16","A3KVKK1XLBTSN3","2022-05-19T01:59:00.331Z","phon_sim-rhyme-task_switching-same_different","","59904.299999952316","phon_sim","","{""position_1"":""Through"",""position_2"":""dough"",""position_3"":""cough"",""position_4"":""bought"",""position_5"":""""}","experiment","","","","","","","Through","dough","cough","bought","","","","","","","","","","","","","","","","","","","","","","","",""
"","","","","","html-keyboard-response","45","859157","0.0-6.0-0.17","A3KVKK1XLBTSN3","2022-05-19T01:59:00.331Z","phon_sim-rhyme-task_switching-same_different","","null","phon_sim","<div style=""display:grid""><h1 id=""word_1"" style=""grid-column:1; grid-row:1"">wart</h1><h1 id=""word_2"" style=""visibility:hidden;grid-column:1; grid-row:1"">sort</h1><h1 id=""word_3"" style=""visibility:hidden;grid-column:1; grid-row:1"">bought</h1><h1 id=""word_4"" style=""visibility:hidden;grid-column:1; grid-row:1"">caught</h1><h1 id=""word_5"" style=""visibility:hidden;grid-column:1; grid-row:1"">taut</h1></div>","null","experiment","wart","sort","bought","caught","taut","phonSet","","","","","","","","","","","","","","","","","","","","","","","","","","","",""
"","","","","","survey-text","46","896161","0.0-6.0-1.17","A3KVKK1XLBTSN3","2022-05-19T01:59:00.331Z","phon_sim-rhyme-task_switching-same_different","","36999.300000071526","phon_sim","","{""position_1"":""wart"",""position_2"":""bought"",""position_3"":""caught"",""position_4"":"""",""position_5"":""""}","experiment","","","","","","","wart","bought","caught","","","","","","","","","","","","","","","","","","","","","","","","",""
"","","","","","html-keyboard-response","47","909174","0.0-6.0-0.18","A3KVKK1XLBTSN3","2022-05-19T01:59:00.331Z","phon_sim-rhyme-task_switching-same_different","","null","phon_sim","<div style=""display:grid""><h1 id=""word_1"" style=""grid-column:1; grid-row:1"">taut</h1><h1 id=""word_2"" style=""visibility:hidden;grid-column:1; grid-row:1"">caught</h1><h1 id=""word_3"" style=""visibility:hidden;grid-column:1; grid-row:1"">wart</h1><h1 id=""word_4"" style=""visibility:hidden;grid-column:1; grid-row:1"">sort</h1><h1 id=""word_5"" style=""visibility:hidden;grid-column:1; grid-row:1"">bought</h1></div>","null","experiment","taut","caught","wart","sort","bought","phonSet","","","","","","","","","","","","","","","","","","","","","","","","","","","",""
"","","","","","survey-text","48","929820","0.0-6.0-1.18","A3KVKK1XLBTSN3","2022-05-19T01:59:00.331Z","phon_sim-rhyme-task_switching-same_different","","20644.300000071526","phon_sim","","{""position_1"":""taut"",""position_2"":""caught"",""position_3"":""wart"",""position_4"":"""",""position_5"":""""}","experiment","","","","","","","taut","caught","wart","","","","","","","","","","","","","","","","","","","","","","","","",""
"","","","","","html-keyboard-response","49","942828","0.0-6.0-0.19","A3KVKK1XLBTSN3","2022-05-19T01:59:00.331Z","phon_sim-rhyme-task_switching-same_different","","null","phon_sim","<div style=""display:grid""><h1 id=""word_1"" style=""grid-column:1; grid-row:1"">dough</h1><h1 id=""word_2"" style=""visibility:hidden;grid-column:1; grid-row:1"">through</h1><h1 id=""word_3"" style=""visibility:hidden;grid-column:1; grid-row:1"">cough</h1><h1 id=""word_4"" style=""visibility:hidden;grid-column:1; grid-row:1"">bough</h1><h1 id=""word_5"" style=""visibility:hidden;grid-column:1; grid-row:1"">rough</h1></div>","null","experiment","dough","through","cough","bough","rough","orthoSet","","","","","","","","","","","","","","","","","","","","","","","","","","","",""
"","","","","","survey-text","50","995824","0.0-6.0-1.19","A3KVKK1XLBTSN3","2022-05-19T01:59:00.331Z","phon_sim-rhyme-task_switching-same_different","","52990.199999928474","phon_sim","","{""position_1"":""dough"",""position_2"":""through"",""position_3"":""flight"",""position_4"":""bought"",""position_5"":""right""}","experiment","","","","","","","dough","through","flight","bought","right","","","","","","","","","","","","","","","","","","","","","","",""
"","","","","","html-keyboard-response","51","1008837","0.0-6.0-0.20","A3KVKK1XLBTSN3","2022-05-19T01:59:00.331Z","phon_sim-rhyme-task_switching-same_different","","null","phon_sim","<div style=""display:grid""><h1 id=""word_1"" style=""grid-column:1; grid-row:1"">sort</h1><h1 id=""word_2"" style=""visibility:hidden;grid-column:1; grid-row:1"">caught</h1><h1 id=""word_3"" style=""visibility:hidden;grid-column:1; grid-row:1"">taut</h1><h1 id=""word_4"" style=""visibility:hidden;grid-column:1; grid-row:1"">wart</h1><h1 id=""word_5"" style=""visibility:hidden;grid-column:1; grid-row:1"">bought</h1></div>","null","experiment","sort","caught","taut","wart","bought","phonSet","","","","","","","","","","","","","","","","","","","","","","","","","","","",""
"","","","","","survey-text","52","1040581","0.0-6.0-1.20","A3KVKK1XLBTSN3","2022-05-19T01:59:00.331Z","phon_sim-rhyme-task_switching-same_different","","31737.800000071526","phon_sim","","{""position_1"":""sort "",""position_2"":""taut"",""position_3"":""wart"",""position_4"":"""",""position_5"":""""}","experiment","","","","","","","sort ","taut","wart","","","","","","","","","","","","","","","","","","","","","","","","",""
"","","","","","html-keyboard-response","53","1053599","0.0-6.0-0.21","A3KVKK1XLBTSN3","2022-05-19T01:59:00.331Z","phon_sim-rhyme-task_switching-same_different","","null","phon_sim","<div style=""display:grid""><h1 id=""word_1"" style=""grid-column:1; grid-row:1"">bough</h1><h1 id=""word_2"" style=""visibility:hidden;grid-column:1; grid-row:1"">rough</h1><h1 id=""word_3"" style=""visibility:hidden;grid-column:1; grid-row:1"">through</h1><h1 id=""word_4"" style=""visibility:hidden;grid-column:1; grid-row:1"">cough</h1><h1 id=""word_5"" style=""visibility:hidden;grid-column:1; grid-row:1"">dough</h1></div>","null","experiment","bough","rough","through","cough","dough","orthoSet","","","","","","","","","","","","","","","","","","","","","","","","","","","",""
"","","","","","survey-text","54","1058986","0.0-6.0-1.21","A3KVKK1XLBTSN3","2022-05-19T01:59:00.331Z","phon_sim-rhyme-task_switching-same_different","","5382.700000047684","phon_sim","","{""position_1"":""bough"",""position_2"":""through"",""position_3"":""cough"",""position_4"":"""",""position_5"":""""}","experiment","","","","","","","bough","through","cough","","","","","","","","","","","","","","","","","","","","","","","","",""
"","","","","","html-keyboard-response","55","1071999","0.0-6.0-0.22","A3KVKK1XLBTSN3","2022-05-19T01:59:00.331Z","phon_sim-rhyme-task_switching-same_different","","null","phon_sim","<div style=""display:grid""><h1 id=""word_1"" style=""grid-column:1; grid-row:1"">rough</h1><h1 id=""word_2"" style=""visibility:hidden;grid-column:1; grid-row:1"">bough</h1><h1 id=""word_3"" style=""visibility:hidden;grid-column:1; grid-row:1"">through</h1><h1 id=""word_4"" style=""visibility:hidden;grid-column:1; grid-row:1"">dough</h1><h1 id=""word_5"" style=""visibility:hidden;grid-column:1; grid-row:1"">cough</h1></div>","null","experiment","rough","bough","through","dough","cough","orthoSet","","","","","","","","","","","","","","","","","","","","","","","","","","","",""
"","","","","","survey-text","56","1079974","0.0-6.0-1.22","A3KVKK1XLBTSN3","2022-05-19T01:59:00.331Z","phon_sim-rhyme-task_switching-same_different","","7979.399999976158","phon_sim","","{""position_1"":""rough"",""position_2"":""bough"",""position_3"":""through"",""position_4"":""cough"",""position_5"":""""}","experiment","","","","","","","rough","bough","through","cough","","","","","","","","","","","","","","","","","","","","","","","",""
"","","","","","html-keyboard-response","57","1092989","0.0-6.0-0.23","A3KVKK1XLBTSN3","2022-05-19T01:59:00.331Z","phon_sim-rhyme-task_switching-same_different","","null","phon_sim","<div style=""display:grid""><h1 id=""word_1"" style=""grid-column:1; grid-row:1"">board</h1><h1 id=""word_2"" style=""visibility:hidden;grid-column:1; grid-row:1"">friend</h1><h1 id=""word_3"" style=""visibility:hidden;grid-column:1; grid-row:1"">plea</h1><h1 id=""word_4"" style=""visibility:hidden;grid-column:1; grid-row:1"">sleigh</h1><h1 id=""word_5"" style=""visibility:hidden;grid-column:1; grid-row:1"">row</h1></div>","null","experiment","board","friend","plea","sleigh","row","controlSet","","","","","","","","","","","","","","","","","","","","","","","","","","","",""
"","","","","","survey-text","58","1100290","0.0-6.0-1.23","A3KVKK1XLBTSN3","2022-05-19T01:59:00.331Z","phon_sim-rhyme-task_switching-same_different","","7296.600000023842","phon_sim","","{""position_1"":""plea"",""position_2"":""friend"",""position_3"":"""",""position_4"":"""",""position_5"":""""}","experiment","","","","","","","plea","friend","","","","","","","","","","","","","","","","","","","","","","","","","",""
"","","","","","survey-multi-choice","59","1102473","0.0-7.0","A3KVKK1XLBTSN3","2022-05-19T01:59:00.331Z","phon_sim-rhyme-task_switching-same_different","","2181.399999976158","phon_sim","","{""Q0"":""Yes""}","","","","","","","","","","","","","[0]","Yes","","","","","","","","","","","","","","","","","","","","",""
"","","","","","survey-text","60","1113606","0.0-8.0","A3KVKK1XLBTSN3","2022-05-19T01:59:00.331Z","phon_sim-rhyme-task_switching-same_different","","11129.600000023842","phon_sim","","{""Q0"":""This was terrible to try to remember""}","","","","","","","","","","","","","","","This was terrible to try to remember","","","","","","","","","","","","","","","","","","","",""
"","","","","","instructions","61","1114698","0.0-9.0","A3KVKK1XLBTSN3","2022-05-19T01:59:00.331Z","phon_sim-rhyme-task_switching-same_different","[{""page_index"":0,""viewing_time"":1091.3000000715256}]","1091.7000000476837","phon_sim","","","","","","","","","","","","","","","","","","","","","","","","","","","","","","","","","","","","",""
"","","","","","instructions","62","1124891","0.0-10.0","A3KVKK1XLBTSN3","2022-05-19T01:59:00.331Z","phon_sim-rhyme-task_switching-same_different","[{""page_index"":0,""viewing_time"":10191.899999976158}]","10192.099999904633","rhyme","","","","","","","","","","","","","","","","","","","","","","","","","","","","","","","","","","","","",""
"","","","","","html-keyboard-response","63","1125643","0.0-11.0-0.0","A3KVKK1XLBTSN3","2022-05-19T01:59:00.331Z","phon_sim-rhyme-task_switching-same_different","","null","rhyme","<div style=""font-size:60px;"">+</div>","null","","","","","","","","","","","","","","","","750","","","","","","","","","","","","","","","","","","",""
"","","","","","html-keyboard-response","64","1126160","0.0-11.0-1.0","A3KVKK1XLBTSN3","2022-05-19T01:59:00.331Z","phon_sim-rhyme-task_switching-same_different","","null","rhyme","<img src=""square.png"" width=""306"" height=""306"" style=""position: fixed;left:14%;top:30%""><img src=""square.png"" width=""306"" height=""306"" style=""position: fixed;left:64%;top:30%"">","null","","","","","","","","","","","","","","","","","","","","","","","","","","","","","","","","","","",""
"","","","","","categorize-html","65","1128774","0.0-11.0-2.0","A3KVKK1XLBTSN3","2022-05-19T01:59:00.331Z","phon_sim-rhyme-task_switching-same_different","","1601.5999999046326","rhyme","<div style=""border: 3px solid #000000; position: fixed;left:14%;top:30%""><img src=""visual/dress.png"" width=""300""></div><div style=""border: 3px solid #000000; position: fixed;left:64%;top:30%""><img src=""visual/chess.png"" width=""300""></div>","arrowup","training","","","","","","","","","","","","","","","","true","visual/dress.png","visual/chess.png","ArrowUp","NA","","","","","","","","","","","","","",""
"","","","","","html-keyboard-response","66","1129540","0.0-11.0-0.1","A3KVKK1XLBTSN3","2022-05-19T01:59:00.331Z","phon_sim-rhyme-task_switching-same_different","","null","rhyme","<div style=""font-size:60px;"">+</div>","null","","","","","","","","","","","","","","","","750","","","","","","","","","","","","","","","","","","",""
"","","","","","html-keyboard-response","67","1130056","0.0-11.0-1.1","A3KVKK1XLBTSN3","2022-05-19T01:59:00.331Z","phon_sim-rhyme-task_switching-same_different","","null","rhyme","<img src=""square.png"" width=""306"" height=""306"" style=""position: fixed;left:14%;top:30%""><img src=""square.png"" width=""306"" height=""306"" style=""position: fixed;left:64%;top:30%"">","null","","","","","","","","","","","","","","","","","","","","","","","","","","","","","","","","","","",""
"","","","","","categorize-html","68","1132171","0.0-11.0-2.1","A3KVKK1XLBTSN3","2022-05-19T01:59:00.331Z","phon_sim-rhyme-task_switching-same_different","","1108.5","rhyme","<div style=""border: 3px solid #000000; position: fixed;left:14%;top:30%""><img src=""visual/mouse.png"" width=""300""></div><div style=""border: 3px solid #000000; position: fixed;left:64%;top:30%""><img src=""visual/dress.png"" width=""300""></div>","arrowdown","training","","","","","","","","","","","","","","","","true","visual/mouse.png","visual/dress.png","ArrowDown","NA","","","","","","","","","","","","","",""
"","","","","","html-keyboard-response","69","1132937","0.0-11.0-0.2","A3KVKK1XLBTSN3","2022-05-19T01:59:00.331Z","phon_sim-rhyme-task_switching-same_different","","null","rhyme","<div style=""font-size:60px;"">+</div>","null","","","","","","","","","","","","","","","","750","","","","","","","","","","","","","","","","","","",""
"","","","","","html-keyboard-response","70","1133454","0.0-11.0-1.2","A3KVKK1XLBTSN3","2022-05-19T01:59:00.331Z","phon_sim-rhyme-task_switching-same_different","","null","rhyme","<img src=""square.png"" width=""306"" height=""306"" style=""position: fixed;left:14%;top:30%""><img src=""square.png"" width=""306"" height=""306"" style=""position: fixed;left:64%;top:30%"">","null","","","","","","","","","","","","","","","","","","","","","","","","","","","","","","","","","","",""
"","","","","","categorize-html","71","1135602","0.0-11.0-2.2","A3KVKK1XLBTSN3","2022-05-19T01:59:00.331Z","phon_sim-rhyme-task_switching-same_different","","1133.5","rhyme","<div style=""border: 3px solid #000000; position: fixed;left:14%;top:30%""><img src=""visual/house.png"" width=""300""></div><div style=""border: 3px solid #000000; position: fixed;left:64%;top:30%""><img src=""visual/mouse.png"" width=""300""></div>","arrowdown","training","","","","","","","","","","","","","","","","false","visual/house.png","visual/mouse.png","ArrowUp","NA","","","","","","","","","","","","","",""
"","","","","","html-keyboard-response","72","1135868","0.0-11.0-0.3","A3KVKK1XLBTSN3","2022-05-19T01:59:00.331Z","phon_sim-rhyme-task_switching-same_different","","null","rhyme","<div style=""font-size:60px;"">+</div>","null","","","","","","","","","","","","","","","","250","","","","","","","","","","","","","","","","","","",""
"","","","","","html-keyboard-response","73","1136384","0.0-11.0-1.3","A3KVKK1XLBTSN3","2022-05-19T01:59:00.331Z","phon_sim-rhyme-task_switching-same_different","","null","rhyme","<img src=""square.png"" width=""306"" height=""306"" style=""position: fixed;left:14%;top:30%""><img src=""square.png"" width=""306"" height=""306"" style=""position: fixed;left:64%;top:30%"">","null","","","","","","","","","","","","","","","","","","","","","","","","","","","","","","","","","","",""
"","","","","","categorize-html","74","1138741","0.0-11.0-2.3","A3KVKK1XLBTSN3","2022-05-19T01:59:00.331Z","phon_sim-rhyme-task_switching-same_different","","1333.8000000715256","rhyme","<div style=""border: 3px solid #000000; position: fixed;left:14%;top:30%""><img src=""visual/chess.png"" width=""300""></div><div style=""border: 3px solid #000000; position: fixed;left:64%;top:30%""><img src=""visual/suit.png"" width=""300""></div>","arrowdown","training","","","","","","","","","","","","","","","","true","visual/chess.png","visual/suit.png","ArrowDown","NA","","","","","","","","","","","","","",""
"","","","","","instructions","75","1140355","0.0-12.0","A3KVKK1XLBTSN3","2022-05-19T01:59:00.331Z","phon_sim-rhyme-task_switching-same_different","[{""page_index"":0,""viewing_time"":1613.3000000715256}]","1613.5","","","","","","","","","","","","","","","","","","","","","","","","","","","","","","","","","","","","","",""
"","","","","","html-keyboard-response","76","1141122","0.0-13.0-0.0","A3KVKK1XLBTSN3","2022-05-19T01:59:00.331Z","phon_sim-rhyme-task_switching-same_different","","null","rhyme","<div style=""font-size:60px;"">+</div>","null","","","","","","","","","","","","","","","","750","","","","","","","","","","","","","","","","","","",""
"","","","","","html-keyboard-response","77","1141638","0.0-13.0-1.0","A3KVKK1XLBTSN3","2022-05-19T01:59:00.331Z","phon_sim-rhyme-task_switching-same_different","","null","rhyme","<img src=""square.png"" width=""306"" height=""306"" style=""position: fixed;left:14%;top:30%""><img src=""square.png"" width=""306"" height=""306"" style=""position: fixed;left:64%;top:30%"">","null","","","","","","","","","","","","","","","","","","","","","","","","","","","","","","","","","","",""
"","","","","","html-keyboard-response","78","1142848","0.0-13.0-2.0","A3KVKK1XLBTSN3","2022-05-19T01:59:00.331Z","phon_sim-rhyme-task_switching-same_different","","1207.6000000238419","rhyme","<div style=""border: 3px solid #000000; position: fixed;left:14%;top:30%""><img src=""visual/soap.png"" width=""300""></div><div style=""border: 3px solid #000000; position: fixed;left:64%;top:30%""><img src=""visual/shoe.png"" width=""300""></div>","arrowdown","experiment","","","","","","","","","","","","","","","","true","visual/soap.png","visual/shoe.png","ArrowDown","NR","","","","","","","","","","","","","",""
"","","","","","html-keyboard-response","79","1143853","0.0-13.0-0.1","A3KVKK1XLBTSN3","2022-05-19T01:59:00.331Z","phon_sim-rhyme-task_switching-same_different","","null","rhyme","<div style=""font-size:60px;"">+</div>","null","","","","","","","","","","","","","","","","1000","","","","","","","","","","","","","","","","","","",""
"","","","","","html-keyboard-response","80","1144369","0.0-13.0-1.1","A3KVKK1XLBTSN3","2022-05-19T01:59:00.331Z","phon_sim-rhyme-task_switching-same_different","","null","rhyme","<img src=""square.png"" width=""306"" height=""306"" style=""position: fixed;left:14%;top:30%""><img src=""square.png"" width=""306"" height=""306"" style=""position: fixed;left:64%;top:30%"">","null","","","","","","","","","","","","","","","","","","","","","","","","","","","","","","","","","","",""
"","","","","","html-keyboard-response","81","1145567","0.0-13.0-2.1","A3KVKK1XLBTSN3","2022-05-19T01:59:00.331Z","phon_sim-rhyme-task_switching-same_different","","1196.2999999523163","rhyme","<div style=""border: 3px solid #000000; position: fixed;left:14%;top:30%""><img src=""visual/shark.png"" width=""300""></div><div style=""border: 3px solid #000000; position: fixed;left:64%;top:30%""><img src=""visual/moon.png"" width=""300""></div>","arrowdown","experiment","","","","","","","","","","","","","","","","true","visual/shark.png","visual/moon.png","ArrowDown","NR","","","","","","","","","","","","","",""
"","","","","","html-keyboard-response","82","1145822","0.0-13.0-0.2","A3KVKK1XLBTSN3","2022-05-19T01:59:00.331Z","phon_sim-rhyme-task_switching-same_different","","null","rhyme","<div style=""font-size:60px;"">+</div>","null","","","","","","","","","","","","","","","","250","","","","","","","","","","","","","","","","","","",""
"","","","","","html-keyboard-response","83","1146334","0.0-13.0-1.2","A3KVKK1XLBTSN3","2022-05-19T01:59:00.331Z","phon_sim-rhyme-task_switching-same_different","","null","rhyme","<img src=""square.png"" width=""306"" height=""306"" style=""position: fixed;left:14%;top:30%""><img src=""square.png"" width=""306"" height=""306"" style=""position: fixed;left:64%;top:30%"">","null","","","","","","","","","","","","","","","","","","","","","","","","","","","","","","","","","","",""
"","","","","","html-keyboard-response","84","1147927","0.0-13.0-2.2","A3KVKK1XLBTSN3","2022-05-19T01:59:00.331Z","phon_sim-rhyme-task_switching-same_different","","1591.6000000238419","rhyme","<div style=""border: 3px solid #000000; position: fixed;left:14%;top:30%""><img src=""visual/jar.png"" width=""300""></div><div style=""border: 3px solid #000000; position: fixed;left:64%;top:30%""><img src=""visual/whale.png"" width=""300""></div>","arrowdown","experiment","","","","","","","","","","","","","","","","true","visual/jar.png","visual/whale.png","ArrowDown","NR","","","","","","","","","","","","","",""
"","","","","","html-keyboard-response","85","1148182","0.0-13.0-0.3","A3KVKK1XLBTSN3","2022-05-19T01:59:00.331Z","phon_sim-rhyme-task_switching-same_different","","null","rhyme","<div style=""font-size:60px;"">+</div>","null","","","","","","","","","","","","","","","","250","","","","","","","","","","","","","","","","","","",""
"","","","","","html-keyboard-response","86","1148698","0.0-13.0-1.3","A3KVKK1XLBTSN3","2022-05-19T01:59:00.331Z","phon_sim-rhyme-task_switching-same_different","","null","rhyme","<img src=""square.png"" width=""306"" height=""306"" style=""position: fixed;left:14%;top:30%""><img src=""square.png"" width=""306"" height=""306"" style=""position: fixed;left:64%;top:30%"">","null","","","","","","","","","","","","","","","","","","","","","","","","","","","","","","","","","","",""
"","","","","","html-keyboard-response","87","1150086","0.0-13.0-2.3","A3KVKK1XLBTSN3","2022-05-19T01:59:00.331Z","phon_sim-rhyme-task_switching-same_different","","1385.8000000715256","rhyme","<div style=""border: 3px solid #000000; position: fixed;left:14%;top:30%""><img src=""visual/snail.png"" width=""300""></div><div style=""border: 3px solid #000000; position: fixed;left:64%;top:30%""><img src=""visual/whale.png"" width=""300""></div>","arrowup","experiment","","","","","","","","","","","","","","","","true","visual/snail.png","visual/whale.png","ArrowUp","non-ortho","","","","","","","","","","","","","",""
"","","","","","html-keyboard-response","88","1151097","0.0-13.0-0.4","A3KVKK1XLBTSN3","2022-05-19T01:59:00.331Z","phon_sim-rhyme-task_switching-same_different","","null","rhyme","<div style=""font-size:60px;"">+</div>","null","","","","","","","","","","","","","","","","1000","","","","","","","","","","","","","","","","","","",""
"","","","","","html-keyboard-response","89","1151612","0.0-13.0-1.4","A3KVKK1XLBTSN3","2022-05-19T01:59:00.331Z","phon_sim-rhyme-task_switching-same_different","","null","rhyme","<img src=""square.png"" width=""306"" height=""306"" style=""position: fixed;left:14%;top:30%""><img src=""square.png"" width=""306"" height=""306"" style=""position: fixed;left:64%;top:30%"">","null","","","","","","","","","","","","","","","","","","","","","","","","","","","","","","","","","","",""
"","","","","","html-keyboard-response","90","1152880","0.0-13.0-2.4","A3KVKK1XLBTSN3","2022-05-19T01:59:00.331Z","phon_sim-rhyme-task_switching-same_different","","1265.6000000238419","rhyme","<div style=""border: 3px solid #000000; position: fixed;left:14%;top:30%""><img src=""visual/chair.png"" width=""300""></div><div style=""border: 3px solid #000000; position: fixed;left:64%;top:30%""><img src=""visual/pear.png"" width=""300""></div>","arrowdown","experiment","","","","","","","","","","","","","","","","false","visual/chair.png","visual/pear.png","ArrowUp","non-ortho","","","","","","","","","","","","","",""
"","","","","","html-keyboard-response","91","1153644","0.0-13.0-0.5","A3KVKK1XLBTSN3","2022-05-19T01:59:00.331Z","phon_sim-rhyme-task_switching-same_different","","null","rhyme","<div style=""font-size:60px;"">+</div>","null","","","","","","","","","","","","","","","","750","","","","","","","","","","","","","","","","","","",""
"","","","","","html-keyboard-response","92","1154160","0.0-13.0-1.5","A3KVKK1XLBTSN3","2022-05-19T01:59:00.331Z","phon_sim-rhyme-task_switching-same_different","","null","rhyme","<img src=""square.png"" width=""306"" height=""306"" style=""position: fixed;left:14%;top:30%""><img src=""square.png"" width=""306"" height=""306"" style=""position: fixed;left:64%;top:30%"">","null","","","","","","","","","","","","","","","","","","","","","","","","","","","","","","","","","","",""
"","","","","","html-keyboard-response","93","1156423","0.0-13.0-2.5","A3KVKK1XLBTSN3","2022-05-19T01:59:00.331Z","phon_sim-rhyme-task_switching-same_different","","2259.399999976158","rhyme","<div style=""border: 3px solid #000000; position: fixed;left:14%;top:30%""><img src=""visual/bear.png"" width=""300""></div><div style=""border: 3px solid #000000; position: fixed;left:64%;top:30%""><img src=""visual/square_rhyme.png"" width=""300""></div>","arrowdown","experiment","","","","","","","","","","","","","","","","false","visual/bear.png","visual/square_rhyme.png","ArrowUp","non-ortho","","","","","","","","","","","","","",""
"","","","","","html-keyboard-response","94","1156925","0.0-13.0-0.6","A3KVKK1XLBTSN3","2022-05-19T01:59:00.331Z","phon_sim-rhyme-task_switching-same_different","","null","rhyme","<div style=""font-size:60px;"">+</div>","null","","","","","","","","","","","","","","","","500","","","","","","","","","","","","","","","","","","",""
"","","","","","html-keyboard-response","95","1157441","0.0-13.0-1.6","A3KVKK1XLBTSN3","2022-05-19T01:59:00.331Z","phon_sim-rhyme-task_switching-same_different","","null","rhyme","<img src=""square.png"" width=""306"" height=""306"" style=""position: fixed;left:14%;top:30%""><img src=""square.png"" width=""306"" height=""306"" style=""position: fixed;left:64%;top:30%"">","null","","","","","","","","","","","","","","","","","","","","","","","","","","","","","","","","","","",""
"","","","","","html-keyboard-response","96","1159571","0.0-13.0-2.6","A3KVKK1XLBTSN3","2022-05-19T01:59:00.331Z","phon_sim-rhyme-task_switching-same_different","","2128.5","rhyme","<div style=""border: 3px solid #000000; position: fixed;left:14%;top:30%""><img src=""visual/rake.png"" width=""300""></div><div style=""border: 3px solid #000000; position: fixed;left:64%;top:30%""><img src=""visual/park.png"" width=""300""></div>","arrowdown","experiment","","","","","","","","","","","","","","","","true","visual/rake.png","visual/park.png","ArrowDown","NR","","","","","","","","","","","","","",""
"","","","","","html-keyboard-response","97","1160088","0.0-13.0-0.7","A3KVKK1XLBTSN3","2022-05-19T01:59:00.331Z","phon_sim-rhyme-task_switching-same_different","","null","rhyme","<div style=""font-size:60px;"">+</div>","null","","","","","","","","","","","","","","","","500","","","","","","","","","","","","","","","","","","",""
"","","","","","html-keyboard-response","98","1160605","0.0-13.0-1.7","A3KVKK1XLBTSN3","2022-05-19T01:59:00.331Z","phon_sim-rhyme-task_switching-same_different","","null","rhyme","<img src=""square.png"" width=""306"" height=""306"" style=""position: fixed;left:14%;top:30%""><img src=""square.png"" width=""306"" height=""306"" style=""position: fixed;left:64%;top:30%"">","null","","","","","","","","","","","","","","","","","","","","","","","","","","","","","","","","","","",""
"","","","","","html-keyboard-response","99","1162354","0.0-13.0-2.7","A3KVKK1XLBTSN3","2022-05-19T01:59:00.331Z","phon_sim-rhyme-task_switching-same_different","","1747.1999999284744","rhyme","<div style=""border: 3px solid #000000; position: fixed;left:14%;top:30%""><img src=""visual/pear.png"" width=""300""></div><div style=""border: 3px solid #000000; position: fixed;left:64%;top:30%""><img src=""visual/rope.png"" width=""300""></div>","arrowdown","experiment","","","","","","","","","","","","","","","","true","visual/pear.png","visual/rope.png","ArrowDown","NR","","","","","","","","","","","","","",""
"","","","","","html-keyboard-response","100","1163119","0.0-13.0-0.8","A3KVKK1XLBTSN3","2022-05-19T01:59:00.331Z","phon_sim-rhyme-task_switching-same_different","","null","rhyme","<div style=""font-size:60px;"">+</div>","null","","","","","","","","","","","","","","","","750","","","","","","","","","","","","","","","","","","",""
"","","","","","html-keyboard-response","101","1163635","0.0-13.0-1.8","A3KVKK1XLBTSN3","2022-05-19T01:59:00.331Z","phon_sim-rhyme-task_switching-same_different","","null","rhyme","<img src=""square.png"" width=""306"" height=""306"" style=""position: fixed;left:14%;top:30%""><img src=""square.png"" width=""306"" height=""306"" style=""position: fixed;left:64%;top:30%"">","null","","","","","","","","","","","","","","","","","","","","","","","","","","","","","","","","","","",""
"","","","","","html-keyboard-response","102","1165801","0.0-13.0-2.8","A3KVKK1XLBTSN3","2022-05-19T01:59:00.331Z","phon_sim-rhyme-task_switching-same_different","","2163.899999976158","rhyme","<div style=""border: 3px solid #000000; position: fixed;left:14%;top:30%""><img src=""visual/soap.png"" width=""300""></div><div style=""border: 3px solid #000000; position: fixed;left:64%;top:30%""><img src=""visual/rope.png"" width=""300""></div>","arrowup","experiment","","","","","","","","","","","","","","","","true","visual/soap.png","visual/rope.png","ArrowUp","non-ortho","","","","","","","","","","","","","",""
"","","","","","html-keyboard-response","103","1166566","0.0-13.0-0.9","A3KVKK1XLBTSN3","2022-05-19T01:59:00.331Z","phon_sim-rhyme-task_switching-same_different","","null","rhyme","<div style=""font-size:60px;"">+</div>","null","","","","","","","","","","","","","","","","750","","","","","","","","","","","","","","","","","","",""
"","","","","","html-keyboard-response","104","1167083","0.0-13.0-1.9","A3KVKK1XLBTSN3","2022-05-19T01:59:00.331Z","phon_sim-rhyme-task_switching-same_different","","null","rhyme","<img src=""square.png"" width=""306"" height=""306"" style=""position: fixed;left:14%;top:30%""><img src=""square.png"" width=""306"" height=""306"" style=""position: fixed;left:64%;top:30%"">","null","","","","","","","","","","","","","","","","","","","","","","","","","","","","","","","","","","",""
"","","","","","html-keyboard-response","105","1168999","0.0-13.0-2.9","A3KVKK1XLBTSN3","2022-05-19T01:59:00.331Z","phon_sim-rhyme-task_switching-same_different","","1914.1999999284744","rhyme","<div style=""border: 3px solid #000000; position: fixed;left:14%;top:30%""><img src=""visual/bone.png"" width=""300""></div><div style=""border: 3px solid #000000; position: fixed;left:64%;top:30%""><img src=""visual/cone.png"" width=""300""></div>","arrowup","experiment","","","","","","","","","","","","","","","","true","visual/bone.png","visual/cone.png","ArrowUp","ortho","","","","","","","","","","","","","",""
"","","","","","html-keyboard-response","106","1169503","0.0-13.0-0.10","A3KVKK1XLBTSN3","2022-05-19T01:59:00.331Z","phon_sim-rhyme-task_switching-same_different","","null","rhyme","<div style=""font-size:60px;"">+</div>","null","","","","","","","","","","","","","","","","500","","","","","","","","","","","","","","","","","","",""
"","","","","","html-keyboard-response","107","1170012","0.0-13.0-1.10","A3KVKK1XLBTSN3","2022-05-19T01:59:00.331Z","phon_sim-rhyme-task_switching-same_different","","null","rhyme","<img src=""square.png"" width=""306"" height=""306"" style=""position: fixed;left:14%;top:30%""><img src=""square.png"" width=""306"" height=""306"" style=""position: fixed;left:64%;top:30%"">","null","","","","","","","","","","","","","","","","","","","","","","","","","","","","","","","","","","",""
"","","","","","html-keyboard-response","108","1173049","0.0-13.0-2.10","A3KVKK1XLBTSN3","2022-05-19T01:59:00.331Z","phon_sim-rhyme-task_switching-same_different","","3033.5","rhyme","<div style=""border: 3px solid #000000; position: fixed;left:14%;top:30%""><img src=""visual/cake.png"" width=""300""></div><div style=""border: 3px solid #000000; position: fixed;left:64%;top:30%""><img src=""visual/rake.png"" width=""300""></div>","arrowdown","experiment","","","","","","","","","","","","","","","","false","visual/cake.png","visual/rake.png","ArrowUp","ortho","","","","","","","","","","","","","",""
"","","","","","html-keyboard-response","109","1174061","0.0-13.0-0.11","A3KVKK1XLBTSN3","2022-05-19T01:59:00.331Z","phon_sim-rhyme-task_switching-same_different","","null","rhyme","<div style=""font-size:60px;"">+</div>","null","","","","","","","","","","","","","","","","1000","","","","","","","","","","","","","","","","","","",""
"","","","","","html-keyboard-response","110","1174578","0.0-13.0-1.11","A3KVKK1XLBTSN3","2022-05-19T01:59:00.331Z","phon_sim-rhyme-task_switching-same_different","","null","rhyme","<img src=""square.png"" width=""306"" height=""306"" style=""position: fixed;left:14%;top:30%""><img src=""square.png"" width=""306"" height=""306"" style=""position: fixed;left:64%;top:30%"">","null","","","","","","","","","","","","","","","","","","","","","","","","","","","","","","","","","","",""
"","","","","","html-keyboard-response","111","1175972","0.0-13.0-2.11","A3KVKK1XLBTSN3","2022-05-19T01:59:00.331Z","phon_sim-rhyme-task_switching-same_different","","1391.2999999523163","rhyme","<div style=""border: 3px solid #000000; position: fixed;left:14%;top:30%""><img src=""visual/screw.png"" width=""300""></div><div style=""border: 3px solid #000000; position: fixed;left:64%;top:30%""><img src=""visual/shoe.png"" width=""300""></div>","arrowup","experiment","","","","","","","","","","","","","","","","true","visual/screw.png","visual/shoe.png","ArrowUp","non-ortho","","","","","","","","","","","","","",""
"","","","","","html-keyboard-response","112","1176987","0.0-13.0-0.12","A3KVKK1XLBTSN3","2022-05-19T01:59:00.331Z","phon_sim-rhyme-task_switching-same_different","","null","rhyme","<div style=""font-size:60px;"">+</div>","null","","","","","","","","","","","","","","","","1000","","","","","","","","","","","","","","","","","","",""
"","","","","","html-keyboard-response","113","1177492","0.0-13.0-1.12","A3KVKK1XLBTSN3","2022-05-19T01:59:00.331Z","phon_sim-rhyme-task_switching-same_different","","null","rhyme","<img src=""square.png"" width=""306"" height=""306"" style=""position: fixed;left:14%;top:30%""><img src=""square.png"" width=""306"" height=""306"" style=""position: fixed;left:64%;top:30%"">","null","","","","","","","","","","","","","","","","","","","","","","","","","","","","","","","","","","",""
"","","","","","html-keyboard-response","114","1179597","0.0-13.0-2.12","A3KVKK1XLBTSN3","2022-05-19T01:59:00.331Z","phon_sim-rhyme-task_switching-same_different","","2101.899999976158","rhyme","<div style=""border: 3px solid #000000; position: fixed;left:14%;top:30%""><img src=""visual/plane.png"" width=""300""></div><div style=""border: 3px solid #000000; position: fixed;left:64%;top:30%""><img src=""visual/train.png"" width=""300""></div>","arrowup","experiment","","","","","","","","","","","","","","","","true","visual/plane.png","visual/train.png","ArrowUp","non-ortho","","","","","","","","","","","","","",""
"","","","","","html-keyboard-response","115","1180104","0.0-13.0-0.13","A3KVKK1XLBTSN3","2022-05-19T01:59:00.331Z","phon_sim-rhyme-task_switching-same_different","","null","rhyme","<div style=""font-size:60px;"">+</div>","null","","","","","","","","","","","","","","","","500","","","","","","","","","","","","","","","","","","",""
"","","","","","html-keyboard-response","116","1180621","0.0-13.0-1.13","A3KVKK1XLBTSN3","2022-05-19T01:59:00.331Z","phon_sim-rhyme-task_switching-same_different","","null","rhyme","<img src=""square.png"" width=""306"" height=""306"" style=""position: fixed;left:14%;top:30%""><img src=""square.png"" width=""306"" height=""306"" style=""position: fixed;left:64%;top:30%"">","null","","","","","","","","","","","","","","","","","","","","","","","","","","","","","","","","","","",""
"","","","","","html-keyboard-response","117","1182700","0.0-13.0-2.13","A3KVKK1XLBTSN3","2022-05-19T01:59:00.331Z","phon_sim-rhyme-task_switching-same_different","","2078.2999999523163","rhyme","<div style=""border: 3px solid #000000; position: fixed;left:14%;top:30%""><img src=""visual/flag.png"" width=""300""></div><div style=""border: 3px solid #000000; position: fixed;left:64%;top:30%""><img src=""visual/bag.png"" width=""300""></div>","arrowup","experiment","","","","","","","","","","","","","","","","true","visual/flag.png","visual/bag.png","ArrowUp","ortho","","","","","","","","","","","","","",""
"","","","","","html-keyboard-response","118","1183702","0.0-13.0-0.14","A3KVKK1XLBTSN3","2022-05-19T01:59:00.331Z","phon_sim-rhyme-task_switching-same_different","","null","rhyme","<div style=""font-size:60px;"">+</div>","null","","","","","","","","","","","","","","","","1000","","","","","","","","","","","","","","","","","","",""
"","","","","","html-keyboard-response","119","1184217","0.0-13.0-1.14","A3KVKK1XLBTSN3","2022-05-19T01:59:00.331Z","phon_sim-rhyme-task_switching-same_different","","null","rhyme","<img src=""square.png"" width=""306"" height=""306"" style=""position: fixed;left:14%;top:30%""><img src=""square.png"" width=""306"" height=""306"" style=""position: fixed;left:64%;top:30%"">","null","","","","","","","","","","","","","","","","","","","","","","","","","","","","","","","","","","",""
"","","","","","html-keyboard-response","120","1185955","0.0-13.0-2.14","A3KVKK1XLBTSN3","2022-05-19T01:59:00.331Z","phon_sim-rhyme-task_switching-same_different","","1735.6000000238419","rhyme","<div style=""border: 3px solid #000000; position: fixed;left:14%;top:30%""><img src=""visual/saw.png"" width=""300""></div><div style=""border: 3px solid #000000; position: fixed;left:64%;top:30%""><img src=""visual/claw.png"" width=""300""></div>","arrowup","experiment","","","","","","","","","","","","","","","","true","visual/saw.png","visual/claw.png","ArrowUp","ortho","","","","","","","","","","","","","",""
"","","","","","html-keyboard-response","121","1186465","0.0-13.0-0.15","A3KVKK1XLBTSN3","2022-05-19T01:59:00.331Z","phon_sim-rhyme-task_switching-same_different","","null","rhyme","<div style=""font-size:60px;"">+</div>","null","","","","","","","","","","","","","","","","500","","","","","","","","","","","","","","","","","","",""
"","","","","","html-keyboard-response","122","1186982","0.0-13.0-1.15","A3KVKK1XLBTSN3","2022-05-19T01:59:00.331Z","phon_sim-rhyme-task_switching-same_different","","null","rhyme","<img src=""square.png"" width=""306"" height=""306"" style=""position: fixed;left:14%;top:30%""><img src=""square.png"" width=""306"" height=""306"" style=""position: fixed;left:64%;top:30%"">","null","","","","","","","","","","","","","","","","","","","","","","","","","","","","","","","","","","",""
"","","","","","html-keyboard-response","123","1188560","0.0-13.0-2.15","A3KVKK1XLBTSN3","2022-05-19T01:59:00.331Z","phon_sim-rhyme-task_switching-same_different","","1577.2999999523163","rhyme","<div style=""border: 3px solid #000000; position: fixed;left:14%;top:30%""><img src=""visual/tie.png"" width=""300""></div><div style=""border: 3px solid #000000; position: fixed;left:64%;top:30%""><img src=""visual/fly.png"" width=""300""></div>","arrowup","experiment","","","","","","","","","","","","","","","","true","visual/tie.png","visual/fly.png","ArrowUp","non-ortho","","","","","","","","","","","","","",""
"","","","","","html-keyboard-response","124","1189313","0.0-13.0-0.16","A3KVKK1XLBTSN3","2022-05-19T01:59:00.331Z","phon_sim-rhyme-task_switching-same_different","","null","rhyme","<div style=""font-size:60px;"">+</div>","null","","","","","","","","","","","","","","","","750","","","","","","","","","","","","","","","","","","",""
"","","","","","html-keyboard-response","125","1189829","0.0-13.0-1.16","A3KVKK1XLBTSN3","2022-05-19T01:59:00.331Z","phon_sim-rhyme-task_switching-same_different","","null","rhyme","<img src=""square.png"" width=""306"" height=""306"" style=""position: fixed;left:14%;top:30%""><img src=""square.png"" width=""306"" height=""306"" style=""position: fixed;left:64%;top:30%"">","null","","","","","","","","","","","","","","","","","","","","","","","","","","","","","","","","","","",""
"","","","","","html-keyboard-response","126","1193207","0.0-13.0-2.16","A3KVKK1XLBTSN3","2022-05-19T01:59:00.331Z","phon_sim-rhyme-task_switching-same_different","","3376.399999976158","rhyme","<div style=""border: 3px solid #000000; position: fixed;left:14%;top:30%""><img src=""visual/well.png"" width=""300""></div><div style=""border: 3px solid #000000; position: fixed;left:64%;top:30%""><img src=""visual/rose.png"" width=""300""></div>","arrowdown","experiment","","","","","","","","","","","","","","","","true","visual/well.png","visual/rose.png","ArrowDown","NR","","","","","","","","","","","","","",""
"","","","","","html-keyboard-response","127","1193709","0.0-13.0-0.17","A3KVKK1XLBTSN3","2022-05-19T01:59:00.331Z","phon_sim-rhyme-task_switching-same_different","","null","rhyme","<div style=""font-size:60px;"">+</div>","null","","","","","","","","","","","","","","","","500","","","","","","","","","","","","","","","","","","",""
"","","","","","html-keyboard-response","128","1194225","0.0-13.0-1.17","A3KVKK1XLBTSN3","2022-05-19T01:59:00.331Z","phon_sim-rhyme-task_switching-same_different","","null","rhyme","<img src=""square.png"" width=""306"" height=""306"" style=""position: fixed;left:14%;top:30%""><img src=""square.png"" width=""306"" height=""306"" style=""position: fixed;left:64%;top:30%"">","null","","","","","","","","","","","","","","","","","","","","","","","","","","","","","","","","","","",""
"","","","","","html-keyboard-response","129","1195955","0.0-13.0-2.17","A3KVKK1XLBTSN3","2022-05-19T01:59:00.331Z","phon_sim-rhyme-task_switching-same_different","","1727.3000000715256","rhyme","<div style=""border: 3px solid #000000; position: fixed;left:14%;top:30%""><img src=""visual/dart.png"" width=""300""></div><div style=""border: 3px solid #000000; position: fixed;left:64%;top:30%""><img src=""visual/heart.png"" width=""300""></div>","arrowup","experiment","","","","","","","","","","","","","","","","true","visual/dart.png","visual/heart.png","ArrowUp","non-ortho","","","","","","","","","","","","","",""
"","","","","","html-keyboard-response","130","1196207","0.0-13.0-0.18","A3KVKK1XLBTSN3","2022-05-19T01:59:00.331Z","phon_sim-rhyme-task_switching-same_different","","null","rhyme","<div style=""font-size:60px;"">+</div>","null","","","","","","","","","","","","","","","","250","","","","","","","","","","","","","","","","","","",""
"","","","","","html-keyboard-response","131","1196723","0.0-13.0-1.18","A3KVKK1XLBTSN3","2022-05-19T01:59:00.331Z","phon_sim-rhyme-task_switching-same_different","","null","rhyme","<img src=""square.png"" width=""306"" height=""306"" style=""position: fixed;left:14%;top:30%""><img src=""square.png"" width=""306"" height=""306"" style=""position: fixed;left:64%;top:30%"">","null","","","","","","","","","","","","","","","","","","","","","","","","","","","","","","","","","","",""
"","","","","","html-keyboard-response","132","1198823","0.0-13.0-2.18","A3KVKK1XLBTSN3","2022-05-19T01:59:00.331Z","phon_sim-rhyme-task_switching-same_different","","2111.1999999284744","rhyme","<div style=""border: 3px solid #000000; position: fixed;left:14%;top:30%""><img src=""visual/drawer.png"" width=""300""></div><div style=""border: 3px solid #000000; position: fixed;left:64%;top:30%""><img src=""visual/chair.png"" width=""300""></div>","arrowdown","experiment","","","","","","","","","","","","","","","","true","visual/drawer.png","visual/chair.png","ArrowDown","NR","","","","","","","","","","","","","",""
"","","","","","html-keyboard-response","133","1199574","0.0-13.0-0.19","A3KVKK1XLBTSN3","2022-05-19T01:59:00.331Z","phon_sim-rhyme-task_switching-same_different","","null","rhyme","<div style=""font-size:60px;"">+</div>","null","","","","","","","","","","","","","","","","750","","","","","","","","","","","","","","","","","","",""
"","","","","","html-keyboard-response","134","1200090","0.0-13.0-1.19","A3KVKK1XLBTSN3","2022-05-19T01:59:00.331Z","phon_sim-rhyme-task_switching-same_different","","null","rhyme","<img src=""square.png"" width=""306"" height=""306"" style=""position: fixed;left:14%;top:30%""><img src=""square.png"" width=""306"" height=""306"" style=""position: fixed;left:64%;top:30%"">","null","","","","","","","","","","","","","","","","","","","","","","","","","","","","","","","","","","",""
"","","","","","html-keyboard-response","135","1202067","0.0-13.0-2.19","A3KVKK1XLBTSN3","2022-05-19T01:59:00.331Z","phon_sim-rhyme-task_switching-same_different","","1974.3999999761581","rhyme","<div style=""border: 3px solid #000000; position: fixed;left:14%;top:30%""><img src=""visual/cab.png"" width=""300""></div><div style=""border: 3px solid #000000; position: fixed;left:64%;top:30%""><img src=""visual/crab.png"" width=""300""></div>","arrowdown","experiment","","","","","","","","","","","","","","","","false","visual/cab.png","visual/crab.png","ArrowUp","ortho","","","","","","","","","","","","","",""
"","","","","","html-keyboard-response","136","1202821","0.0-13.0-0.20","A3KVKK1XLBTSN3","2022-05-19T01:59:00.331Z","phon_sim-rhyme-task_switching-same_different","","null","rhyme","<div style=""font-size:60px;"">+</div>","null","","","","","","","","","","","","","","","","750","","","","","","","","","","","","","","","","","","",""
"","","","","","html-keyboard-response","137","1203337","0.0-13.0-1.20","A3KVKK1XLBTSN3","2022-05-19T01:59:00.331Z","phon_sim-rhyme-task_switching-same_different","","null","rhyme","<img src=""square.png"" width=""306"" height=""306"" style=""position: fixed;left:14%;top:30%""><img src=""square.png"" width=""306"" height=""306"" style=""position: fixed;left:64%;top:30%"">","null","","","","","","","","","","","","","","","","","","","","","","","","","","","","","","","","","","",""
"","","","","","html-keyboard-response","138","1206017","0.0-13.0-2.20","A3KVKK1XLBTSN3","2022-05-19T01:59:00.331Z","phon_sim-rhyme-task_switching-same_different","","2678.2999999523163","rhyme","<div style=""border: 3px solid #000000; position: fixed;left:14%;top:30%""><img src=""visual/bin.png"" width=""300""></div><div style=""border: 3px solid #000000; position: fixed;left:64%;top:30%""><img src=""visual/chin.png"" width=""300""></div>","arrowdown","experiment","","","","","","","","","","","","","","","","false","visual/bin.png","visual/chin.png","ArrowUp","ortho","","","","","","","","","","","","","",""
"","","","","","html-keyboard-response","139","1206534","0.0-13.0-0.21","A3KVKK1XLBTSN3","2022-05-19T01:59:00.331Z","phon_sim-rhyme-task_switching-same_different","","null","rhyme","<div style=""font-size:60px;"">+</div>","null","","","","","","","","","","","","","","","","500","","","","","","","","","","","","","","","","","","",""
"","","","","","html-keyboard-response","140","1207051","0.0-13.0-1.21","A3KVKK1XLBTSN3","2022-05-19T01:59:00.331Z","phon_sim-rhyme-task_switching-same_different","","null","rhyme","<img src=""square.png"" width=""306"" height=""306"" style=""position: fixed;left:14%;top:30%""><img src=""square.png"" width=""306"" height=""306"" style=""position: fixed;left:64%;top:30%"">","null","","","","","","","","","","","","","","","","","","","","","","","","","","","","","","","","","","",""
"","","","","","html-keyboard-response","141","1209515","0.0-13.0-2.21","A3KVKK1XLBTSN3","2022-05-19T01:59:00.331Z","phon_sim-rhyme-task_switching-same_different","","2461.4000000953674","rhyme","<div style=""border: 3px solid #000000; position: fixed;left:14%;top:30%""><img src=""visual/box.png"" width=""300""></div><div style=""border: 3px solid #000000; position: fixed;left:64%;top:30%""><img src=""visual/fox.png"" width=""300""></div>","arrowup","experiment","","","","","","","","","","","","","","","","true","visual/box.png","visual/fox.png","ArrowUp","ortho","","","","","","","","","","","","","",""
"","","","","","html-keyboard-response","142","1209782","0.0-13.0-0.22","A3KVKK1XLBTSN3","2022-05-19T01:59:00.331Z","phon_sim-rhyme-task_switching-same_different","","null","rhyme","<div style=""font-size:60px;"">+</div>","null","","","","","","","","","","","","","","","","250","","","","","","","","","","","","","","","","","","",""
"","","","","","html-keyboard-response","143","1210298","0.0-13.0-1.22","A3KVKK1XLBTSN3","2022-05-19T01:59:00.331Z","phon_sim-rhyme-task_switching-same_different","","null","rhyme","<img src=""square.png"" width=""306"" height=""306"" style=""position: fixed;left:14%;top:30%""><img src=""square.png"" width=""306"" height=""306"" style=""position: fixed;left:64%;top:30%"">","null","","","","","","","","","","","","","","","","","","","","","","","","","","","","","","","","","","",""
"","","","","","html-keyboard-response","144","1212058","0.0-13.0-2.22","A3KVKK1XLBTSN3","2022-05-19T01:59:00.331Z","phon_sim-rhyme-task_switching-same_different","","1757.3999999761581","rhyme","<div style=""border: 3px solid #000000; position: fixed;left:14%;top:30%""><img src=""visual/well.png"" width=""300""></div><div style=""border: 3px solid #000000; position: fixed;left:64%;top:30%""><img src=""visual/bell.png"" width=""300""></div>","arrowup","experiment","","","","","","","","","","","","","","","","true","visual/well.png","visual/bell.png","ArrowUp","ortho","","","","","","","","","","","","","",""
"","","","","","html-keyboard-response","145","1212563","0.0-13.0-0.23","A3KVKK1XLBTSN3","2022-05-19T01:59:00.331Z","phon_sim-rhyme-task_switching-same_different","","null","rhyme","<div style=""font-size:60px;"">+</div>","null","","","","","","","","","","","","","","","","500","","","","","","","","","","","","","","","","","","",""
"","","","","","html-keyboard-response","146","1213077","0.0-13.0-1.23","A3KVKK1XLBTSN3","2022-05-19T01:59:00.331Z","phon_sim-rhyme-task_switching-same_different","","null","rhyme","<img src=""square.png"" width=""306"" height=""306"" style=""position: fixed;left:14%;top:30%""><img src=""square.png"" width=""306"" height=""306"" style=""position: fixed;left:64%;top:30%"">","null","","","","","","","","","","","","","","","","","","","","","","","","","","","","","","","","","","",""
"","","","","","html-keyboard-response","147","1214519","0.0-13.0-2.23","A3KVKK1XLBTSN3","2022-05-19T01:59:00.331Z","phon_sim-rhyme-task_switching-same_different","","1439.6000000238419","rhyme","<div style=""border: 3px solid #000000; position: fixed;left:14%;top:30%""><img src=""visual/spoon.png"" width=""300""></div><div style=""border: 3px solid #000000; position: fixed;left:64%;top:30%""><img src=""visual/moon.png"" width=""300""></div>","arrowup","experiment","","","","","","","","","","","","","","","","true","visual/spoon.png","visual/moon.png","ArrowUp","ortho","","","","","","","","","","","","","",""
"","","","","","html-keyboard-response","148","1215020","0.0-13.0-0.24","A3KVKK1XLBTSN3","2022-05-19T01:59:00.331Z","phon_sim-rhyme-task_switching-same_different","","null","rhyme","<div style=""font-size:60px;"">+</div>","null","","","","","","","","","","","","","","","","500","","","","","","","","","","","","","","","","","","",""
"","","","","","html-keyboard-response","149","1215527","0.0-13.0-1.24","A3KVKK1XLBTSN3","2022-05-19T01:59:00.331Z","phon_sim-rhyme-task_switching-same_different","","null","rhyme","<img src=""square.png"" width=""306"" height=""306"" style=""position: fixed;left:14%;top:30%""><img src=""square.png"" width=""306"" height=""306"" style=""position: fixed;left:64%;top:30%"">","null","","","","","","","","","","","","","","","","","","","","","","","","","","","","","","","","","","",""
"","","","","","html-keyboard-response","150","1216961","0.0-13.0-2.24","A3KVKK1XLBTSN3","2022-05-19T01:59:00.331Z","phon_sim-rhyme-task_switching-same_different","","1432.1000000238419","rhyme","<div style=""border: 3px solid #000000; position: fixed;left:14%;top:30%""><img src=""visual/nail.png"" width=""300""></div><div style=""border: 3px solid #000000; position: fixed;left:64%;top:30%""><img src=""visual/whale.png"" width=""300""></div>","arrowup","experiment","","","","","","","","","","","","","","","","true","visual/nail.png","visual/whale.png","ArrowUp","non-ortho","","","","","","","","","","","","","",""
"","","","","","html-keyboard-response","151","1217475","0.0-13.0-0.25","A3KVKK1XLBTSN3","2022-05-19T01:59:00.331Z","phon_sim-rhyme-task_switching-same_different","","null","rhyme","<div style=""font-size:60px;"">+</div>","null","","","","","","","","","","","","","","","","500","","","","","","","","","","","","","","","","","","",""
"","","","","","html-keyboard-response","152","1217991","0.0-13.0-1.25","A3KVKK1XLBTSN3","2022-05-19T01:59:00.331Z","phon_sim-rhyme-task_switching-same_different","","null","rhyme","<img src=""square.png"" width=""306"" height=""306"" style=""position: fixed;left:14%;top:30%""><img src=""square.png"" width=""306"" height=""306"" style=""position: fixed;left:64%;top:30%"">","null","","","","","","","","","","","","","","","","","","","","","","","","","","","","","","","","","","",""
"","","","","","html-keyboard-response","153","1219192","0.0-13.0-2.25","A3KVKK1XLBTSN3","2022-05-19T01:59:00.331Z","phon_sim-rhyme-task_switching-same_different","","1198.8999999761581","rhyme","<div style=""border: 3px solid #000000; position: fixed;left:14%;top:30%""><img src=""visual/deer.png"" width=""300""></div><div style=""border: 3px solid #000000; position: fixed;left:64%;top:30%""><img src=""visual/beer.png"" width=""300""></div>","arrowup","experiment","","","","","","","","","","","","","","","","true","visual/deer.png","visual/beer.png","ArrowUp","ortho","","","","","","","","","","","","","",""
"","","","","","html-keyboard-response","154","1220206","0.0-13.0-0.26","A3KVKK1XLBTSN3","2022-05-19T01:59:00.331Z","phon_sim-rhyme-task_switching-same_different","","null","rhyme","<div style=""font-size:60px;"">+</div>","null","","","","","","","","","","","","","","","","1000","","","","","","","","","","","","","","","","","","",""
"","","","","","html-keyboard-response","155","1220722","0.0-13.0-1.26","A3KVKK1XLBTSN3","2022-05-19T01:59:00.331Z","phon_sim-rhyme-task_switching-same_different","","null","rhyme","<img src=""square.png"" width=""306"" height=""306"" style=""position: fixed;left:14%;top:30%""><img src=""square.png"" width=""306"" height=""306"" style=""position: fixed;left:64%;top:30%"">","null","","","","","","","","","","","","","","","","","","","","","","","","","","","","","","","","","","",""
"","","","","","html-keyboard-response","156","1225735","0.0-13.0-2.26","A3KVKK1XLBTSN3","2022-05-19T01:59:00.331Z","phon_sim-rhyme-task_switching-same_different","","null","rhyme","<div style=""border: 3px solid #000000; position: fixed;left:14%;top:30%""><img src=""visual/fly.png"" width=""300""></div><div style=""border: 3px solid #000000; position: fixed;left:64%;top:30%""><img src=""visual/plane.png"" width=""300""></div>","null","experiment","","","","","","","","","","","","","","","","false","visual/fly.png","visual/plane.png","ArrowDown","NR","","","","","","","","","","","","","",""
"","","","","","html-keyboard-response","157","1226501","0.0-13.0-0.27","A3KVKK1XLBTSN3","2022-05-19T01:59:00.331Z","phon_sim-rhyme-task_switching-same_different","","null","rhyme","<div style=""font-size:60px;"">+</div>","null","","","","","","","","","","","","","","","","750","","","","","","","","","","","","","","","","","","",""
"","","","","","html-keyboard-response","158","1227017","0.0-13.0-1.27","A3KVKK1XLBTSN3","2022-05-19T01:59:00.331Z","phon_sim-rhyme-task_switching-same_different","","null","rhyme","<img src=""square.png"" width=""306"" height=""306"" style=""position: fixed;left:14%;top:30%""><img src=""square.png"" width=""306"" height=""306"" style=""position: fixed;left:64%;top:30%"">","null","","","","","","","","","","","","","","","","","","","","","","","","","","","","","","","","","","",""
"","","","","","html-keyboard-response","159","1232029","0.0-13.0-2.27","A3KVKK1XLBTSN3","2022-05-19T01:59:00.331Z","phon_sim-rhyme-task_switching-same_different","","null","rhyme","<div style=""border: 3px solid #000000; position: fixed;left:14%;top:30%""><img src=""visual/star.png"" width=""300""></div><div style=""border: 3px solid #000000; position: fixed;left:64%;top:30%""><img src=""visual/jar.png"" width=""300""></div>","null","experiment","","","","","","","","","","","","","","","","false","visual/star.png","visual/jar.png","ArrowUp","ortho","","","","","","","","","","","","","",""
"","","","","","html-keyboard-response","160","1232795","0.0-13.0-0.28","A3KVKK1XLBTSN3","2022-05-19T01:59:00.331Z","phon_sim-rhyme-task_switching-same_different","","null","rhyme","<div style=""font-size:60px;"">+</div>","null","","","","","","","","","","","","","","","","750","","","","","","","","","","","","","","","","","","",""
"","","","","","html-keyboard-response","161","1233312","0.0-13.0-1.28","A3KVKK1XLBTSN3","2022-05-19T01:59:00.331Z","phon_sim-rhyme-task_switching-same_different","","null","rhyme","<img src=""square.png"" width=""306"" height=""306"" style=""position: fixed;left:14%;top:30%""><img src=""square.png"" width=""306"" height=""306"" style=""position: fixed;left:64%;top:30%"">","null","","","","","","","","","","","","","","","","","","","","","","","","","","","","","","","","","","",""
"","","","","","html-keyboard-response","162","1237971","0.0-13.0-2.28","A3KVKK1XLBTSN3","2022-05-19T01:59:00.331Z","phon_sim-rhyme-task_switching-same_different","","4657","rhyme","<div style=""border: 3px solid #000000; position: fixed;left:14%;top:30%""><img src=""visual/train.png"" width=""300""></div><div style=""border: 3px solid #000000; position: fixed;left:64%;top:30%""><img src=""visual/screw.png"" width=""300""></div>","arrowdown","experiment","","","","","","","","","","","","","","","","true","visual/train.png","visual/screw.png","ArrowDown","NR","","","","","","","","","","","","","",""
"","","","","","html-keyboard-response","163","1238474","0.0-13.0-0.29","A3KVKK1XLBTSN3","2022-05-19T01:59:00.331Z","phon_sim-rhyme-task_switching-same_different","","null","rhyme","<div style=""font-size:60px;"">+</div>","null","","","","","","","","","","","","","","","","500","","","","","","","","","","","","","","","","","","",""
"","","","","","html-keyboard-response","164","1238990","0.0-13.0-1.29","A3KVKK1XLBTSN3","2022-05-19T01:59:00.331Z","phon_sim-rhyme-task_switching-same_different","","null","rhyme","<img src=""square.png"" width=""306"" height=""306"" style=""position: fixed;left:14%;top:30%""><img src=""square.png"" width=""306"" height=""306"" style=""position: fixed;left:64%;top:30%"">","null","","","","","","","","","","","","","","","","","","","","","","","","","","","","","","","","","","",""
"","","","","","html-keyboard-response","165","1242657","0.0-13.0-2.29","A3KVKK1XLBTSN3","2022-05-19T01:59:00.331Z","phon_sim-rhyme-task_switching-same_different","","3664.4000000953674","rhyme","<div style=""border: 3px solid #000000; position: fixed;left:14%;top:30%""><img src=""visual/cat.png"" width=""300""></div><div style=""border: 3px solid #000000; position: fixed;left:64%;top:30%""><img src=""visual/sock.png"" width=""300""></div>","arrowdown","experiment","","","","","","","","","","","","","","","","true","visual/cat.png","visual/sock.png","ArrowDown","NR","","","","","","","","","","","","","",""
"","","","","","html-keyboard-response","166","1243419","0.0-13.0-0.30","A3KVKK1XLBTSN3","2022-05-19T01:59:00.331Z","phon_sim-rhyme-task_switching-same_different","","null","rhyme","<div style=""font-size:60px;"">+</div>","null","","","","","","","","","","","","","","","","750","","","","","","","","","","","","","","","","","","",""
"","","","","","html-keyboard-response","167","1243936","0.0-13.0-1.30","A3KVKK1XLBTSN3","2022-05-19T01:59:00.331Z","phon_sim-rhyme-task_switching-same_different","","null","rhyme","<img src=""square.png"" width=""306"" height=""306"" style=""position: fixed;left:14%;top:30%""><img src=""square.png"" width=""306"" height=""306"" style=""position: fixed;left:64%;top:30%"">","null","","","","","","","","","","","","","","","","","","","","","","","","","","","","","","","","","","",""
"","","","","","html-keyboard-response","168","1245517","0.0-13.0-2.30","A3KVKK1XLBTSN3","2022-05-19T01:59:00.331Z","phon_sim-rhyme-task_switching-same_different","","1579.1999999284744","rhyme","<div style=""border: 3px solid #000000; position: fixed;left:14%;top:30%""><img src=""visual/key.png"" width=""300""></div><div style=""border: 3px solid #000000; position: fixed;left:64%;top:30%""><img src=""visual/snail.png"" width=""300""></div>","arrowdown","experiment","","","","","","","","","","","","","","","","true","visual/key.png","visual/snail.png","ArrowDown","NR","","","","","","","","","","","","","",""
"","","","","","html-keyboard-response","169","1246533","0.0-13.0-0.31","A3KVKK1XLBTSN3","2022-05-19T01:59:00.331Z","phon_sim-rhyme-task_switching-same_different","","null","rhyme","<div style=""font-size:60px;"">+</div>","null","","","","","","","","","","","","","","","","1000","","","","","","","","","","","","","","","","","","",""
"","","","","","html-keyboard-response","170","1247050","0.0-13.0-1.31","A3KVKK1XLBTSN3","2022-05-19T01:59:00.331Z","phon_sim-rhyme-task_switching-same_different","","null","rhyme","<img src=""square.png"" width=""306"" height=""306"" style=""position: fixed;left:14%;top:30%""><img src=""square.png"" width=""306"" height=""306"" style=""position: fixed;left:64%;top:30%"">","null","","","","","","","","","","","","","","","","","","","","","","","","","","","","","","","","","","",""
"","","","","","html-keyboard-response","171","1249065","0.0-13.0-2.31","A3KVKK1XLBTSN3","2022-05-19T01:59:00.331Z","phon_sim-rhyme-task_switching-same_different","","2013.4000000953674","rhyme","<div style=""border: 3px solid #000000; position: fixed;left:14%;top:30%""><img src=""visual/dart.png"" width=""300""></div><div style=""border: 3px solid #000000; position: fixed;left:64%;top:30%""><img src=""visual/tie.png"" width=""300""></div>","arrowdown","experiment","","","","","","","","","","","","","","","","true","visual/dart.png","visual/tie.png","ArrowDown","NR","","","","","","","","","","","","","",""
"","","","","","html-keyboard-response","172","1249580","0.0-13.0-0.32","A3KVKK1XLBTSN3","2022-05-19T01:59:00.331Z","phon_sim-rhyme-task_switching-same_different","","null","rhyme","<div style=""font-size:60px;"">+</div>","null","","","","","","","","","","","","","","","","500","","","","","","","","","","","","","","","","","","",""
"","","","","","html-keyboard-response","173","1250097","0.0-13.0-1.32","A3KVKK1XLBTSN3","2022-05-19T01:59:00.331Z","phon_sim-rhyme-task_switching-same_different","","null","rhyme","<img src=""square.png"" width=""306"" height=""306"" style=""position: fixed;left:14%;top:30%""><img src=""square.png"" width=""306"" height=""306"" style=""position: fixed;left:64%;top:30%"">","null","","","","","","","","","","","","","","","","","","","","","","","","","","","","","","","","","","",""
"","","","","","html-keyboard-response","174","1252273","0.0-13.0-2.32","A3KVKK1XLBTSN3","2022-05-19T01:59:00.331Z","phon_sim-rhyme-task_switching-same_different","","2174","rhyme","<div style=""border: 3px solid #000000; position: fixed;left:14%;top:30%""><img src=""visual/king.png"" width=""300""></div><div style=""border: 3px solid #000000; position: fixed;left:64%;top:30%""><img src=""visual/cab.png"" width=""300""></div>","arrowdown","experiment","","","","","","","","","","","","","","","","true","visual/king.png","visual/cab.png","ArrowDown","NR","","","","","","","","","","","","","",""
"","","","","","html-keyboard-response","175","1253277","0.0-13.0-0.33","A3KVKK1XLBTSN3","2022-05-19T01:59:00.331Z","phon_sim-rhyme-task_switching-same_different","","null","rhyme","<div style=""font-size:60px;"">+</div>","null","","","","","","","","","","","","","","","","1000","","","","","","","","","","","","","","","","","","",""
"","","","","","html-keyboard-response","176","1253793","0.0-13.0-1.33","A3KVKK1XLBTSN3","2022-05-19T01:59:00.331Z","phon_sim-rhyme-task_switching-same_different","","null","rhyme","<img src=""square.png"" width=""306"" height=""306"" style=""position: fixed;left:14%;top:30%""><img src=""square.png"" width=""306"" height=""306"" style=""position: fixed;left:64%;top:30%"">","null","","","","","","","","","","","","","","","","","","","","","","","","","","","","","","","","","","",""
"","","","","","html-keyboard-response","177","1255091","0.0-13.0-2.33","A3KVKK1XLBTSN3","2022-05-19T01:59:00.331Z","phon_sim-rhyme-task_switching-same_different","","1296","rhyme","<div style=""border: 3px solid #000000; position: fixed;left:14%;top:30%""><img src=""visual/king.png"" width=""300""></div><div style=""border: 3px solid #000000; position: fixed;left:64%;top:30%""><img src=""visual/ring.png"" width=""300""></div>","arrowup","experiment","","","","","","","","","","","","","","","","true","visual/king.png","visual/ring.png","ArrowUp","ortho","","","","","","","","","","","","","",""
"","","","","","html-keyboard-response","178","1256108","0.0-13.0-0.34","A3KVKK1XLBTSN3","2022-05-19T01:59:00.331Z","phon_sim-rhyme-task_switching-same_different","","null","rhyme","<div style=""font-size:60px;"">+</div>","null","","","","","","","","","","","","","","","","1000","","","","","","","","","","","","","","","","","","",""
"","","","","","html-keyboard-response","179","1256624","0.0-13.0-1.34","A3KVKK1XLBTSN3","2022-05-19T01:59:00.331Z","phon_sim-rhyme-task_switching-same_different","","null","rhyme","<img src=""square.png"" width=""306"" height=""306"" style=""position: fixed;left:14%;top:30%""><img src=""square.png"" width=""306"" height=""306"" style=""position: fixed;left:64%;top:30%"">","null","","","","","","","","","","","","","","","","","","","","","","","","","","","","","","","","","","",""
"","","","","","html-keyboard-response","180","1258904","0.0-13.0-2.34","A3KVKK1XLBTSN3","2022-05-19T01:59:00.331Z","phon_sim-rhyme-task_switching-same_different","","2266.2000000476837","rhyme","<div style=""border: 3px solid #000000; position: fixed;left:14%;top:30%""><img src=""visual/brain.png"" width=""300""></div><div style=""border: 3px solid #000000; position: fixed;left:64%;top:30%""><img src=""visual/clock.png"" width=""300""></div>","arrowup","experiment","","","","","","","","","","","","","","","","false","visual/brain.png","visual/clock.png","ArrowDown","NR","","","","","","","","","","","","","",""
"","","","","","html-keyboard-response","181","1259167","0.0-13.0-0.35","A3KVKK1XLBTSN3","2022-05-19T01:59:00.331Z","phon_sim-rhyme-task_switching-same_different","","null","rhyme","<div style=""font-size:60px;"">+</div>","null","","","","","","","","","","","","","","","","250","","","","","","","","","","","","","","","","","","",""
"","","","","","html-keyboard-response","182","1259683","0.0-13.0-1.35","A3KVKK1XLBTSN3","2022-05-19T01:59:00.331Z","phon_sim-rhyme-task_switching-same_different","","null","rhyme","<img src=""square.png"" width=""306"" height=""306"" style=""position: fixed;left:14%;top:30%""><img src=""square.png"" width=""306"" height=""306"" style=""position: fixed;left:64%;top:30%"">","null","","","","","","","","","","","","","","","","","","","","","","","","","","","","","","","","","","",""
"","","","","","html-keyboard-response","183","1264696","0.0-13.0-2.35","A3KVKK1XLBTSN3","2022-05-19T01:59:00.331Z","phon_sim-rhyme-task_switching-same_different","","null","rhyme","<div style=""border: 3px solid #000000; position: fixed;left:14%;top:30%""><img src=""visual/nose.png"" width=""300""></div><div style=""border: 3px solid #000000; position: fixed;left:64%;top:30%""><img src=""visual/bell.png"" width=""300""></div>","null","experiment","","","","","","","","","","","","","","","","false","visual/nose.png","visual/bell.png","ArrowDown","NR","","","","","","","","","","","","","",""
"","","","","","html-keyboard-response","184","1265461","0.0-13.0-0.36","A3KVKK1XLBTSN3","2022-05-19T01:59:00.331Z","phon_sim-rhyme-task_switching-same_different","","null","rhyme","<div style=""font-size:60px;"">+</div>","null","","","","","","","","","","","","","","","","750","","","","","","","","","","","","","","","","","","",""
"","","","","","html-keyboard-response","185","1265978","0.0-13.0-1.36","A3KVKK1XLBTSN3","2022-05-19T01:59:00.331Z","phon_sim-rhyme-task_switching-same_different","","null","rhyme","<img src=""square.png"" width=""306"" height=""306"" style=""position: fixed;left:14%;top:30%""><img src=""square.png"" width=""306"" height=""306"" style=""position: fixed;left:64%;top:30%"">","null","","","","","","","","","","","","","","","","","","","","","","","","","","","","","","","","","","",""
"","","","","","html-keyboard-response","186","1270990","0.0-13.0-2.36","A3KVKK1XLBTSN3","2022-05-19T01:59:00.331Z","phon_sim-rhyme-task_switching-same_different","","null","rhyme","<div style=""border: 3px solid #000000; position: fixed;left:14%;top:30%""><img src=""visual/drum.png"" width=""300""></div><div style=""border: 3px solid #000000; position: fixed;left:64%;top:30%""><img src=""visual/thumb.png"" width=""300""></div>","null","experiment","","","","","","","","","","","","","","","","false","visual/drum.png","visual/thumb.png","ArrowUp","non-ortho","","","","","","","","","","","","","",""
"","","","","","html-keyboard-response","187","1271506","0.0-13.0-0.37","A3KVKK1XLBTSN3","2022-05-19T01:59:00.331Z","phon_sim-rhyme-task_switching-same_different","","null","rhyme","<div style=""font-size:60px;"">+</div>","null","","","","","","","","","","","","","","","","500","","","","","","","","","","","","","","","","","","",""
"","","","","","html-keyboard-response","188","1272022","0.0-13.0-1.37","A3KVKK1XLBTSN3","2022-05-19T01:59:00.331Z","phon_sim-rhyme-task_switching-same_different","","null","rhyme","<img src=""square.png"" width=""306"" height=""306"" style=""position: fixed;left:14%;top:30%""><img src=""square.png"" width=""306"" height=""306"" style=""position: fixed;left:64%;top:30%"">","null","","","","","","","","","","","","","","","","","","","","","","","","","","","","","","","","","","",""
"","","","","","html-keyboard-response","189","1277036","0.0-13.0-2.37","A3KVKK1XLBTSN3","2022-05-19T01:59:00.331Z","phon_sim-rhyme-task_switching-same_different","","null","rhyme","<div style=""border: 3px solid #000000; position: fixed;left:14%;top:30%""><img src=""visual/drawer.png"" width=""300""></div><div style=""border: 3px solid #000000; position: fixed;left:64%;top:30%""><img src=""visual/door.png"" width=""300""></div>","null","experiment","","","","","","","","","","","","","","","","false","visual/drawer.png","visual/door.png","ArrowUp","non-ortho","","","","","","","","","","","","","",""
"","","","","","html-keyboard-response","190","1278051","0.0-13.0-0.38","A3KVKK1XLBTSN3","2022-05-19T01:59:00.331Z","phon_sim-rhyme-task_switching-same_different","","null","rhyme","<div style=""font-size:60px;"">+</div>","null","","","","","","","","","","","","","","","","1000","","","","","","","","","","","","","","","","","","",""
"","","","","","html-keyboard-response","191","1278567","0.0-13.0-1.38","A3KVKK1XLBTSN3","2022-05-19T01:59:00.331Z","phon_sim-rhyme-task_switching-same_different","","null","rhyme","<img src=""square.png"" width=""306"" height=""306"" style=""position: fixed;left:14%;top:30%""><img src=""square.png"" width=""306"" height=""306"" style=""position: fixed;left:64%;top:30%"">","null","","","","","","","","","","","","","","","","","","","","","","","","","","","","","","","","","","",""
"","","","","","html-keyboard-response","192","1280668","0.0-13.0-2.38","A3KVKK1XLBTSN3","2022-05-19T01:59:00.331Z","phon_sim-rhyme-task_switching-same_different","","2099.2999999523163","rhyme","<div style=""border: 3px solid #000000; position: fixed;left:14%;top:30%""><img src=""visual/socks.png"" width=""300""></div><div style=""border: 3px solid #000000; position: fixed;left:64%;top:30%""><img src=""visual/fox.png"" width=""300""></div>","arrowdown","experiment","","","","","","","","","","","","","","","","false","visual/socks.png","visual/fox.png","ArrowUp","non-ortho","","","","","","","","","","","","","",""
"","","","","","html-keyboard-response","193","1281428","0.0-13.0-0.39","A3KVKK1XLBTSN3","2022-05-19T01:59:00.331Z","phon_sim-rhyme-task_switching-same_different","","null","rhyme","<div style=""font-size:60px;"">+</div>","null","","","","","","","","","","","","","","","","750","","","","","","","","","","","","","","","","","","",""
"","","","","","html-keyboard-response","194","1281932","0.0-13.0-1.39","A3KVKK1XLBTSN3","2022-05-19T01:59:00.331Z","phon_sim-rhyme-task_switching-same_different","","null","rhyme","<img src=""square.png"" width=""306"" height=""306"" style=""position: fixed;left:14%;top:30%""><img src=""square.png"" width=""306"" height=""306"" style=""position: fixed;left:64%;top:30%"">","null","","","","","","","","","","","","","","","","","","","","","","","","","","","","","","","","","","",""
"","","","","","html-keyboard-response","195","1283492","0.0-13.0-2.39","A3KVKK1XLBTSN3","2022-05-19T01:59:00.331Z","phon_sim-rhyme-task_switching-same_different","","1558.6000000238419","rhyme","<div style=""border: 3px solid #000000; position: fixed;left:14%;top:30%""><img src=""visual/chain.png"" width=""300""></div><div style=""border: 3px solid #000000; position: fixed;left:64%;top:30%""><img src=""visual/brain.png"" width=""300""></div>","arrowup","experiment","","","","","","","","","","","","","","","","true","visual/chain.png","visual/brain.png","ArrowUp","ortho","","","","","","","","","","","","","",""
"","","","","","html-keyboard-response","196","1283995","0.0-13.0-0.40","A3KVKK1XLBTSN3","2022-05-19T01:59:00.331Z","phon_sim-rhyme-task_switching-same_different","","null","rhyme","<div style=""font-size:60px;"">+</div>","null","","","","","","","","","","","","","","","","500","","","","","","","","","","","","","","","","","","",""
