"success","timeout","failed_images","failed_audio","failed_video","trial_type","trial_index","time_elapsed","internal_node_id","worker_id","start_time","experiment_order","view_history","rt","experiment","response","phase","stimulus","condition","answer","correct","operation","trial_no","symbol_cue","color_cue","question_order","talk_out_loud","strategy_free_ans","wait_time","image_1","image_2","cor_key","type","judgment_type","stim_1","stim_2","inverted","true_neg","true_pos","false_pos","false_neg","word_1","word_2","word_3","word_4","word_5","original_word_set","response_1","response_2","response_3","response_4","response_5"
"true","false","[]","[]","[]","preload","0","2314","0.0-0.0","A9LSEP71DNP4O","2022-05-23T17:52:01.309Z","task_switching-rhyme-same_different-phon_sim","","","","","","","","","","","","","","","","","","","","","","","","","","","","","","","","","","","","","","","",""
"","","","","","instructions","1","14269","0.0-1.0","A9LSEP71DNP4O","2022-05-23T17:52:01.309Z","task_switching-rhyme-same_different-phon_sim","[{""page_index"":0,""viewing_time"":11954.300000000745}]","11954.39999999851","","","","","","","","","","","","","","","","","","","","","","","","","","","","","","","","","","","","","",""
"true","","","","","fullscreen","2","21826","0.0-2.0","A9LSEP71DNP4O","2022-05-23T17:52:01.309Z","task_switching-rhyme-same_different-phon_sim","","","","","","","","","","","","","","","","","","","","","","","","","","","","","","","","","","","","","","","",""
"","","","","","instructions","3","48407","0.0-3.0","A9LSEP71DNP4O","2022-05-23T17:52:01.309Z","task_switching-rhyme-same_different-phon_sim","[{""page_index"":0,""viewing_time"":26580.400000002235}]","26580.5","task_switching","","","","","","","","","","","","","","","","","","","","","","","","","","","","","","","","","","","","",""
"","","","","","instructions","4","54037","0.0-4.0","A9LSEP71DNP4O","2022-05-23T17:52:01.309Z","task_switching-rhyme-same_different-phon_sim","[{""page_index"":0,""viewing_time"":5629.10000000149}]","5629.20000000298","task_switching","","","","","","","","","","","","","","","","","","","","","","","","","","","","","","","","","","","","",""
"","","","","","survey-text","5","56958","0.0-5.0","A9LSEP71DNP4O","2022-05-23T17:52:01.309Z","task_switching-rhyme-same_different-phon_sim","","2912.60000000149","task_switching","{""subtraction_ans"":""60""}","training","63","subtraction","60","true","subtract","","","","","","","","","","","","","","","","","","","","","","","","","","","","","",""
"","","","","","html-keyboard-response","6","57961","0.0-6.0","A9LSEP71DNP4O","2022-05-23T17:52:01.309Z","task_switching-rhyme-same_different-phon_sim","","null","task_switching","null","training","<div style=""color:darkgreen; font-size:60px"">Well done!</div>","subtraction","","","","","","","","","","","","","","","","","","","","","","","","","","","","","","","","",""
"","","","","","survey-text","7","60182","0.0-7.0","A9LSEP71DNP4O","2022-05-23T17:52:01.309Z","task_switching-rhyme-same_different-phon_sim","","2220.300000000745","task_switching","{""subtraction_ans"":""79""}","training","82","subtraction","79","true","subtract","","","","","","","","","","","","","","","","","","","","","","","","","","","","","",""
"","","","","","html-keyboard-response","8","61184","0.0-8.0","A9LSEP71DNP4O","2022-05-23T17:52:01.309Z","task_switching-rhyme-same_different-phon_sim","","null","task_switching","null","training","<div style=""color:darkgreen; font-size:60px"">Well done!</div>","subtraction","","","","","","","","","","","","","","","","","","","","","","","","","","","","","","","","",""
"","","","","","survey-text","9","63606","0.0-9.0","A9LSEP71DNP4O","2022-05-23T17:52:01.309Z","task_switching-rhyme-same_different-phon_sim","","2419.699999999255","task_switching","{""subtraction_ans"":""88""}","training","91","subtraction","88","true","subtract","","","","","","","","","","","","","","","","","","","","","","","","","","","","","",""
"","","","","","html-keyboard-response","10","64606","0.0-10.0","A9LSEP71DNP4O","2022-05-23T17:52:01.309Z","task_switching-rhyme-same_different-phon_sim","","null","task_switching","null","training","<div style=""color:darkgreen; font-size:60px"">Well done!</div>","subtraction","","","","","","","","","","","","","","","","","","","","","","","","","","","","","","","","",""
"","","","","","survey-text","11","66412","0.0-11.0","A9LSEP71DNP4O","2022-05-23T17:52:01.309Z","task_switching-rhyme-same_different-phon_sim","","1804.300000000745","task_switching","{""subtraction_ans"":""85""}","training","88","subtraction","85","true","subtract","","","","","","","","","","","","","","","","","","","","","","","","","","","","","",""
"","","","","","html-keyboard-response","12","67412","0.0-12.0","A9LSEP71DNP4O","2022-05-23T17:52:01.309Z","task_switching-rhyme-same_different-phon_sim","","null","task_switching","null","training","<div style=""color:darkgreen; font-size:60px"">Well done!</div>","subtraction","","","","","","","","","","","","","","","","","","","","","","","","","","","","","","","","",""
"","","","","","survey-text","13","69372","0.0-13.0","A9LSEP71DNP4O","2022-05-23T17:52:01.309Z","task_switching-rhyme-same_different-phon_sim","","1958.800000000745","task_switching","{""subtraction_ans"":""96""}","training","99","subtraction","96","true","subtract","","","","","","","","","","","","","","","","","","","","","","","","","","","","","",""
"","","","","","html-keyboard-response","14","70374","0.0-14.0","A9LSEP71DNP4O","2022-05-23T17:52:01.309Z","task_switching-rhyme-same_different-phon_sim","","null","task_switching","null","training","<div style=""color:darkgreen; font-size:60px"">Well done!</div>","subtraction","","","","","","","","","","","","","","","","","","","","","","","","","","","","","","","","",""
"","","","","","survey-text","15","72218","0.0-15.0","A9LSEP71DNP4O","2022-05-23T17:52:01.309Z","task_switching-rhyme-same_different-phon_sim","","1843.2000000029802","task_switching","{""subtraction_ans"":""61""}","training","64","subtraction","61","true","subtract","","","","","","","","","","","","","","","","","","","","","","","","","","","","","",""
"","","","","","html-keyboard-response","16","73220","0.0-16.0","A9LSEP71DNP4O","2022-05-23T17:52:01.309Z","task_switching-rhyme-same_different-phon_sim","","null","task_switching","null","training","<div style=""color:darkgreen; font-size:60px"">Well done!</div>","subtraction","","","","","","","","","","","","","","","","","","","","","","","","","","","","","","","","",""
"","","","","","survey-text","17","74675","0.0-17.0","A9LSEP71DNP4O","2022-05-23T17:52:01.309Z","task_switching-rhyme-same_different-phon_sim","","1453.0999999977648","task_switching","{""subtraction_ans"":""21""}","training","24","subtraction","21","true","subtract","","","","","","","","","","","","","","","","","","","","","","","","","","","","","",""
"","","","","","html-keyboard-response","18","75676","0.0-18.0","A9LSEP71DNP4O","2022-05-23T17:52:01.309Z","task_switching-rhyme-same_different-phon_sim","","null","task_switching","null","training","<div style=""color:darkgreen; font-size:60px"">Well done!</div>","subtraction","","","","","","","","","","","","","","","","","","","","","","","","","","","","","","","","",""
"","","","","","survey-text","19","77871","0.0-19.0","A9LSEP71DNP4O","2022-05-23T17:52:01.309Z","task_switching-rhyme-same_different-phon_sim","","2194.10000000149","task_switching","{""subtraction_ans"":""37""}","training","40","subtraction","37","true","subtract","","","","","","","","","","","","","","","","","","","","","","","","","","","","","",""
"","","","","","html-keyboard-response","20","78872","0.0-20.0","A9LSEP71DNP4O","2022-05-23T17:52:01.309Z","task_switching-rhyme-same_different-phon_sim","","null","task_switching","null","training","<div style=""color:darkgreen; font-size:60px"">Well done!</div>","subtraction","","","","","","","","","","","","","","","","","","","","","","","","","","","","","","","","",""
"","","","","","survey-text","21","81290","0.0-21.0","A9LSEP71DNP4O","2022-05-23T17:52:01.309Z","task_switching-rhyme-same_different-phon_sim","","2417.7000000029802","task_switching","{""subtraction_ans"":""41""}","training","44","subtraction","41","true","subtract","","","","","","","","","","","","","","","","","","","","","","","","","","","","","",""
"","","","","","html-keyboard-response","22","82292","0.0-22.0","A9LSEP71DNP4O","2022-05-23T17:52:01.309Z","task_switching-rhyme-same_different-phon_sim","","null","task_switching","null","training","<div style=""color:darkgreen; font-size:60px"">Well done!</div>","subtraction","","","","","","","","","","","","","","","","","","","","","","","","","","","","","","","","",""
"","","","","","survey-text","23","85829","0.0-23.0","A9LSEP71DNP4O","2022-05-23T17:52:01.309Z","task_switching-rhyme-same_different-phon_sim","","3535.199999999255","task_switching","{""subtraction_ans"":""48""}","training","51","subtraction","48","true","subtract","","","","","","","","","","","","","","","","","","","","","","","","","","","","","",""
"","","","","","html-keyboard-response","24","86830","0.0-24.0","A9LSEP71DNP4O","2022-05-23T17:52:01.309Z","task_switching-rhyme-same_different-phon_sim","","null","task_switching","null","training","<div style=""color:darkgreen; font-size:60px"">Well done!</div>","subtraction","","","","","","","","","","","","","","","","","","","","","","","","","","","","","","","","",""
"","","","","","instructions","25","90404","0.0-25.0","A9LSEP71DNP4O","2022-05-23T17:52:01.309Z","task_switching-rhyme-same_different-phon_sim","[{""page_index"":0,""viewing_time"":3574.199999999255}]","3574.39999999851","task_switching","","","","","","","","","","","","","","","","","","","","","","","","","","","","","","","","","","","","",""
"","","","","","survey-text","26","92320","0.0-26.0","A9LSEP71DNP4O","2022-05-23T17:52:01.309Z","task_switching-rhyme-same_different-phon_sim","","1914.0999999977648","task_switching","{""subtraction_ans"":""48""}","experiment","51","subtraction","48","true","subtract","","","","","","","","","","","","","","","","","","","","","","","","","","","","","",""
"","","","","","survey-text","27","96197","0.0-27.0","A9LSEP71DNP4O","2022-05-23T17:52:01.309Z","task_switching-rhyme-same_different-phon_sim","","3875.199999999255","task_switching","{""subtraction_ans"":""24""}","experiment","27","subtraction","24","true","subtract","","","","","","","","","","","","","","","","","","","","","","","","","","","","","",""
"","","","","","survey-text","28","98202","0.0-28.0","A9LSEP71DNP4O","2022-05-23T17:52:01.309Z","task_switching-rhyme-same_different-phon_sim","","2004","task_switching","{""subtraction_ans"":""78""}","experiment","81","subtraction","78","true","subtract","","","","","","","","","","","","","","","","","","","","","","","","","","","","","",""
"","","","","","survey-text","29","100756","0.0-29.0","A9LSEP71DNP4O","2022-05-23T17:52:01.309Z","task_switching-rhyme-same_different-phon_sim","","2553.300000000745","task_switching","{""subtraction_ans"":""38""}","experiment","41","subtraction","38","true","subtract","","","","","","","","","","","","","","","","","","","","","","","","","","","","","",""
"","","","","","survey-text","30","105816","0.0-30.0","A9LSEP71DNP4O","2022-05-23T17:52:01.309Z","task_switching-rhyme-same_different-phon_sim","","5058.099999997765","task_switching","{""subtraction_ans"":""86""}","experiment","89","subtraction","86","true","subtract","","","","","","","","","","","","","","","","","","","","","","","","","","","","","",""
"","","","","","survey-text","31","108643","0.0-31.0","A9LSEP71DNP4O","2022-05-23T17:52:01.309Z","task_switching-rhyme-same_different-phon_sim","","2825.10000000149","task_switching","{""subtraction_ans"":""94""}","experiment","97","subtraction","94","true","subtract","","","","","","","","","","","","","","","","","","","","","","","","","","","","","",""
"","","","","","survey-text","32","110766","0.0-32.0","A9LSEP71DNP4O","2022-05-23T17:52:01.309Z","task_switching-rhyme-same_different-phon_sim","","2121.199999999255","task_switching","{""subtraction_ans"":""25""}","experiment","28","subtraction","25","true","subtract","","","","","","","","","","","","","","","","","","","","","","","","","","","","","",""
"","","","","","survey-text","33","114042","0.0-33.0","A9LSEP71DNP4O","2022-05-23T17:52:01.309Z","task_switching-rhyme-same_different-phon_sim","","3275.5","task_switching","{""subtraction_ans"":""16""}","experiment","19","subtraction","16","true","subtract","","","","","","","","","","","","","","","","","","","","","","","","","","","","","",""
"","","","","","survey-text","34","115913","0.0-34.0","A9LSEP71DNP4O","2022-05-23T17:52:01.309Z","task_switching-rhyme-same_different-phon_sim","","1869.199999999255","task_switching","{""subtraction_ans"":""63""}","experiment","66","subtraction","63","true","subtract","","","","","","","","","","","","","","","","","","","","","","","","","","","","","",""
"","","","","","survey-text","35","118572","0.0-35.0","A9LSEP71DNP4O","2022-05-23T17:52:01.309Z","task_switching-rhyme-same_different-phon_sim","","2658.099999997765","task_switching","{""subtraction_ans"":""39""}","experiment","42","subtraction","39","true","subtract","","","","","","","","","","","","","","","","","","","","","","","","","","","","","",""
"","","","","","survey-text","36","121433","0.0-36.0","A9LSEP71DNP4O","2022-05-23T17:52:01.309Z","task_switching-rhyme-same_different-phon_sim","","2859.10000000149","task_switching","{""subtraction_ans"":""57""}","experiment","60","subtraction","57","true","subtract","","","","","","","","","","","","","","","","","","","","","","","","","","","","","",""
"","","","","","survey-text","37","123710","0.0-37.0","A9LSEP71DNP4O","2022-05-23T17:52:01.309Z","task_switching-rhyme-same_different-phon_sim","","2275.699999999255","task_switching","{""subtraction_ans"":""89""}","experiment","92","subtraction","89","true","subtract","","","","","","","","","","","","","","","","","","","","","","","","","","","","","",""
"","","","","","survey-text","38","126402","0.0-38.0","A9LSEP71DNP4O","2022-05-23T17:52:01.309Z","task_switching-rhyme-same_different-phon_sim","","2690.800000000745","task_switching","{""subtraction_ans"":""77""}","experiment","80","subtraction","77","true","subtract","","","","","","","","","","","","","","","","","","","","","","","","","","","","","",""
"","","","","","survey-text","39","128057","0.0-39.0","A9LSEP71DNP4O","2022-05-23T17:52:01.309Z","task_switching-rhyme-same_different-phon_sim","","1654","task_switching","{""subtraction_ans"":""80""}","experiment","83","subtraction","80","true","subtract","","","","","","","","","","","","","","","","","","","","","","","","","","","","","",""
"","","","","","survey-text","40","130227","0.0-40.0","A9LSEP71DNP4O","2022-05-23T17:52:01.309Z","task_switching-rhyme-same_different-phon_sim","","2168.199999999255","task_switching","{""subtraction_ans"":""92""}","experiment","95","subtraction","92","true","subtract","","","","","","","","","","","","","","","","","","","","","","","","","","","","","",""
"","","","","","survey-text","41","133405","0.0-41.0","A9LSEP71DNP4O","2022-05-23T17:52:01.309Z","task_switching-rhyme-same_different-phon_sim","","3177","task_switching","{""subtraction_ans"":""26""}","experiment","29","subtraction","26","true","subtract","","","","","","","","","","","","","","","","","","","","","","","","","","","","","",""
"","","","","","survey-text","42","135586","0.0-42.0","A9LSEP71DNP4O","2022-05-23T17:52:01.309Z","task_switching-rhyme-same_different-phon_sim","","2179.39999999851","task_switching","{""subtraction_ans"":""17""}","experiment","20","subtraction","17","true","subtract","","","","","","","","","","","","","","","","","","","","","","","","","","","","","",""
"","","","","","survey-text","43","137437","0.0-43.0","A9LSEP71DNP4O","2022-05-23T17:52:01.309Z","task_switching-rhyme-same_different-phon_sim","","1849.8999999985099","task_switching","{""subtraction_ans"":""88""}","experiment","91","subtraction","88","true","subtract","","","","","","","","","","","","","","","","","","","","","","","","","","","","","",""
"","","","","","survey-text","44","141645","0.0-44.0","A9LSEP71DNP4O","2022-05-23T17:52:01.309Z","task_switching-rhyme-same_different-phon_sim","","4207","task_switching","{""subtraction_ans"":""76""}","experiment","79","subtraction","76","true","subtract","","","","","","","","","","","","","","","","","","","","","","","","","","","","","",""
"","","","","","survey-text","45","144697","0.0-45.0","A9LSEP71DNP4O","2022-05-23T17:52:01.309Z","task_switching-rhyme-same_different-phon_sim","","3050","task_switching","{""subtraction_ans"":""74""}","experiment","77","subtraction","74","true","subtract","","","","","","","","","","","","","","","","","","","","","","","","","","","","","",""
"","","","","","survey-text","46","146323","0.0-46.0","A9LSEP71DNP4O","2022-05-23T17:52:01.309Z","task_switching-rhyme-same_different-phon_sim","","1625.1000000014901","task_switching","{""subtraction_ans"":""81""}","experiment","84","subtraction","81","true","subtract","","","","","","","","","","","","","","","","","","","","","","","","","","","","","",""
"","","","","","survey-text","47","148796","0.0-47.0","A9LSEP71DNP4O","2022-05-23T17:52:01.309Z","task_switching-rhyme-same_different-phon_sim","","2471.900000002235","task_switching","{""subtraction_ans"":""46""}","experiment","49","subtraction","46","true","subtract","","","","","","","","","","","","","","","","","","","","","","","","","","","","","",""
"","","","","","survey-text","48","150366","0.0-48.0","A9LSEP71DNP4O","2022-05-23T17:52:01.309Z","task_switching-rhyme-same_different-phon_sim","","1568.800000000745","task_switching","{""subtraction_ans"":""91""}","experiment","94","subtraction","91","true","subtract","","","","","","","","","","","","","","","","","","","","","","","","","","","","","",""
"","","","","","survey-text","49","152644","0.0-49.0","A9LSEP71DNP4O","2022-05-23T17:52:01.309Z","task_switching-rhyme-same_different-phon_sim","","2276","task_switching","{""subtraction_ans"":""28""}","experiment","31","subtraction","28","true","subtract","","","","","","","","","","","","","","","","","","","","","","","","","","","","","",""
"","","","","","survey-text","50","155522","0.0-50.0","A9LSEP71DNP4O","2022-05-23T17:52:01.309Z","task_switching-rhyme-same_different-phon_sim","","2876.89999999851","task_switching","{""subtraction_ans"":""49""}","experiment","52","subtraction","49","true","subtract","","","","","","","","","","","","","","","","","","","","","","","","","","","","","",""
"","","","","","survey-text","51","157999","0.0-51.0","A9LSEP71DNP4O","2022-05-23T17:52:01.309Z","task_switching-rhyme-same_different-phon_sim","","2476","task_switching","{""subtraction_ans"":""95""}","experiment","98","subtraction","95","true","subtract","","","","","","","","","","","","","","","","","","","","","","","","","","","","","",""
"","","","","","survey-text","52","160253","0.0-52.0","A9LSEP71DNP4O","2022-05-23T17:52:01.309Z","task_switching-rhyme-same_different-phon_sim","","2253","task_switching","{""subtraction_ans"":""79""}","experiment","82","subtraction","79","true","subtract","","","","","","","","","","","","","","","","","","","","","","","","","","","","","",""
"","","","","","survey-text","53","162771","0.0-53.0","A9LSEP71DNP4O","2022-05-23T17:52:01.309Z","task_switching-rhyme-same_different-phon_sim","","2516.300000000745","task_switching","{""subtraction_ans"":""67""}","experiment","70","subtraction","67","true","subtract","","","","","","","","","","","","","","","","","","","","","","","","","","","","","",""
"","","","","","survey-text","54","165561","0.0-54.0","A9LSEP71DNP4O","2022-05-23T17:52:01.309Z","task_switching-rhyme-same_different-phon_sim","","2788.10000000149","task_switching","{""subtraction_ans"":""44""}","experiment","47","subtraction","44","true","subtract","","","","","","","","","","","","","","","","","","","","","","","","","","","","","",""
"","","","","","survey-text","55","167898","0.0-55.0","A9LSEP71DNP4O","2022-05-23T17:52:01.309Z","task_switching-rhyme-same_different-phon_sim","","2336","task_switching","{""subtraction_ans"":""87""}","experiment","90","subtraction","87","true","subtract","","","","","","","","","","","","","","","","","","","","","","","","","","","","","",""
"","","","","","instructions","56","171690","0.0-56.0","A9LSEP71DNP4O","2022-05-23T17:52:01.309Z","task_switching-rhyme-same_different-phon_sim","[{""page_index"":0,""viewing_time"":3791.39999999851}]","3791.5","task_switching","","","","","","","","","","","","","","","","","","","","","","","","","","","","","","","","","","","","",""
"","","","","","survey-text","57","174462","0.0-57.0","A9LSEP71DNP4O","2022-05-23T17:52:01.309Z","task_switching-rhyme-same_different-phon_sim","","2770.699999999255","task_switching","{""addition_ans"":""41""}","training","38","addition","41","true","add","","","","","","","","","","","","","","","","","","","","","","","","","","","","","",""
"","","","","","html-keyboard-response","58","175463","0.0-58.0","A9LSEP71DNP4O","2022-05-23T17:52:01.309Z","task_switching-rhyme-same_different-phon_sim","","null","task_switching","null","training","<div style=""color:darkgreen; font-size:60px"">Well done!</div>","addition","","","","","","","","","","","","","","","","","","","","","","","","","","","","","","","","",""
"","","","","","survey-text","59","180166","0.0-59.0","A9LSEP71DNP4O","2022-05-23T17:52:01.309Z","task_switching-rhyme-same_different-phon_sim","","4702","task_switching","{""addition_ans"":""37""}","training","34","addition","37","true","add","","","","","","","","","","","","","","","","","","","","","","","","","","","","","",""
"","","","","","html-keyboard-response","60","181167","0.0-60.0","A9LSEP71DNP4O","2022-05-23T17:52:01.309Z","task_switching-rhyme-same_different-phon_sim","","null","task_switching","null","training","<div style=""color:darkgreen; font-size:60px"">Well done!</div>","addition","","","","","","","","","","","","","","","","","","","","","","","","","","","","","","","","",""
"","","","","","survey-text","61","183256","0.0-61.0","A9LSEP71DNP4O","2022-05-23T17:52:01.309Z","task_switching-rhyme-same_different-phon_sim","","2087.5","task_switching","{""addition_ans"":""94""}","training","91","addition","94","true","add","","","","","","","","","","","","","","","","","","","","","","","","","","","","","",""
"","","","","","html-keyboard-response","62","184257","0.0-62.0","A9LSEP71DNP4O","2022-05-23T17:52:01.309Z","task_switching-rhyme-same_different-phon_sim","","null","task_switching","null","training","<div style=""color:darkgreen; font-size:60px"">Well done!</div>","addition","","","","","","","","","","","","","","","","","","","","","","","","","","","","","","","","",""
"","","","","","survey-text","63","186701","0.0-63.0","A9LSEP71DNP4O","2022-05-23T17:52:01.309Z","task_switching-rhyme-same_different-phon_sim","","2443.699999999255","task_switching","{""addition_ans"":""31""}","training","28","addition","31","true","add","","","","","","","","","","","","","","","","","","","","","","","","","","","","","",""
"","","","","","html-keyboard-response","64","187702","0.0-64.0","A9LSEP71DNP4O","2022-05-23T17:52:01.309Z","task_switching-rhyme-same_different-phon_sim","","null","task_switching","null","training","<div style=""color:darkgreen; font-size:60px"">Well done!</div>","addition","","","","","","","","","","","","","","","","","","","","","","","","","","","","","","","","",""
"","","","","","survey-text","65","189422","0.0-65.0","A9LSEP71DNP4O","2022-05-23T17:52:01.309Z","task_switching-rhyme-same_different-phon_sim","","1718.4000000022352","task_switching","{""addition_ans"":""21""}","training","18","addition","21","true","add","","","","","","","","","","","","","","","","","","","","","","","","","","","","","",""
"","","","","","html-keyboard-response","66","190423","0.0-66.0","A9LSEP71DNP4O","2022-05-23T17:52:01.309Z","task_switching-rhyme-same_different-phon_sim","","null","task_switching","null","training","<div style=""color:darkgreen; font-size:60px"">Well done!</div>","addition","","","","","","","","","","","","","","","","","","","","","","","","","","","","","","","","",""
"","","","","","survey-text","67","192528","0.0-67.0","A9LSEP71DNP4O","2022-05-23T17:52:01.309Z","task_switching-rhyme-same_different-phon_sim","","2104.599999997765","task_switching","{""addition_ans"":""74""}","training","71","addition","74","true","add","","","","","","","","","","","","","","","","","","","","","","","","","","","","","",""
"","","","","","html-keyboard-response","68","193529","0.0-68.0","A9LSEP71DNP4O","2022-05-23T17:52:01.309Z","task_switching-rhyme-same_different-phon_sim","","null","task_switching","null","training","<div style=""color:darkgreen; font-size:60px"">Well done!</div>","addition","","","","","","","","","","","","","","","","","","","","","","","","","","","","","","","","",""
"","","","","","survey-text","69","196145","0.0-69.0","A9LSEP71DNP4O","2022-05-23T17:52:01.309Z","task_switching-rhyme-same_different-phon_sim","","2614","task_switching","{""addition_ans"":""72""}","training","69","addition","72","true","add","","","","","","","","","","","","","","","","","","","","","","","","","","","","","",""
"","","","","","html-keyboard-response","70","197145","0.0-70.0","A9LSEP71DNP4O","2022-05-23T17:52:01.309Z","task_switching-rhyme-same_different-phon_sim","","null","task_switching","null","training","<div style=""color:darkgreen; font-size:60px"">Well done!</div>","addition","","","","","","","","","","","","","","","","","","","","","","","","","","","","","","","","",""
"","","","","","survey-text","71","200463","0.0-71.0","A9LSEP71DNP4O","2022-05-23T17:52:01.309Z","task_switching-rhyme-same_different-phon_sim","","3316.60000000149","task_switching","{""addition_ans"":""16""}","training","13","addition","16","true","add","","","","","","","","","","","","","","","","","","","","","","","","","","","","","",""
"","","","","","html-keyboard-response","72","201464","0.0-72.0","A9LSEP71DNP4O","2022-05-23T17:52:01.309Z","task_switching-rhyme-same_different-phon_sim","","null","task_switching","null","training","<div style=""color:darkgreen; font-size:60px"">Well done!</div>","addition","","","","","","","","","","","","","","","","","","","","","","","","","","","","","","","","",""
"","","","","","survey-text","73","204346","0.0-73.0","A9LSEP71DNP4O","2022-05-23T17:52:01.309Z","task_switching-rhyme-same_different-phon_sim","","2881.5","task_switching","{""addition_ans"":""18""}","training","75","addition","18","false","add","","","","","","","","","","","","","","","","","","","","","","","","","","","","","",""
"","","","","","html-keyboard-response","74","209348","0.0-74.0","A9LSEP71DNP4O","2022-05-23T17:52:01.309Z","task_switching-rhyme-same_different-phon_sim","","null","task_switching","null","training","<div style=""color:darkred; font-size:40px"">Remember to <b>add</b> 3.<p> Correct answer: 78</p></div>","addition","","","","","","","","","","","","","","","","","","","","","","","","","","","","","","","","",""
"","","","","","survey-text","75","213276","0.0-75.0","A9LSEP71DNP4O","2022-05-23T17:52:01.309Z","task_switching-rhyme-same_different-phon_sim","","3926.900000002235","task_switching","{""addition_ans"":""75""}","training","72","addition","75","true","add","","","","","","","","","","","","","","","","","","","","","","","","","","","","","",""
"","","","","","html-keyboard-response","76","214277","0.0-76.0","A9LSEP71DNP4O","2022-05-23T17:52:01.309Z","task_switching-rhyme-same_different-phon_sim","","null","task_switching","null","training","<div style=""color:darkgreen; font-size:60px"">Well done!</div>","addition","","","","","","","","","","","","","","","","","","","","","","","","","","","","","","","","",""
"","","","","","instructions","77","215934","0.0-77.0","A9LSEP71DNP4O","2022-05-23T17:52:01.309Z","task_switching-rhyme-same_different-phon_sim","[{""page_index"":0,""viewing_time"":1656.699999999255}]","1656.800000000745","task_switching","","","","","","","","","","","","","","","","","","","","","","","","","","","","","","","","","","","","",""
"","","","","","survey-text","78","218771","0.0-78.0","A9LSEP71DNP4O","2022-05-23T17:52:01.309Z","task_switching-rhyme-same_different-phon_sim","","2835.5","task_switching","{""addition_ans"":""37""}","experiment","34","addition","37","true","add","","","","","","","","","","","","","","","","","","","","","","","","","","","","","",""
"","","","","","survey-text","79","220757","0.0-79.0","A9LSEP71DNP4O","2022-05-23T17:52:01.309Z","task_switching-rhyme-same_different-phon_sim","","1984.5","task_switching","{""addition_ans"":""66""}","experiment","63","addition","66","true","add","","","","","","","","","","","","","","","","","","","","","","","","","","","","","",""
"","","","","","survey-text","80","222507","0.0-80.0","A9LSEP71DNP4O","2022-05-23T17:52:01.309Z","task_switching-rhyme-same_different-phon_sim","","1749.1000000014901","task_switching","{""addition_ans"":""67""}","experiment","64","addition","67","true","add","","","","","","","","","","","","","","","","","","","","","","","","","","","","","",""
"","","","","","survey-text","81","224660","0.0-81.0","A9LSEP71DNP4O","2022-05-23T17:52:01.309Z","task_switching-rhyme-same_different-phon_sim","","2152.2000000029802","task_switching","{""addition_ans"":""56""}","experiment","53","addition","56","true","add","","","","","","","","","","","","","","","","","","","","","","","","","","","","","",""
"","","","","","survey-text","82","226437","0.0-82.0","A9LSEP71DNP4O","2022-05-23T17:52:01.309Z","task_switching-rhyme-same_different-phon_sim","","1774.8999999985099","task_switching","{""addition_ans"":""44""}","experiment","41","addition","44","true","add","","","","","","","","","","","","","","","","","","","","","","","","","","","","","",""
"","","","","","survey-text","83","228205","0.0-83.0","A9LSEP71DNP4O","2022-05-23T17:52:01.309Z","task_switching-rhyme-same_different-phon_sim","","1766.699999999255","task_switching","{""addition_ans"":""31""}","experiment","28","addition","31","true","add","","","","","","","","","","","","","","","","","","","","","","","","","","","","","",""
"","","","","","survey-text","84","230107","0.0-84.0","A9LSEP71DNP4O","2022-05-23T17:52:01.309Z","task_switching-rhyme-same_different-phon_sim","","1901.1000000014901","task_switching","{""addition_ans"":""68""}","experiment","65","addition","68","true","add","","","","","","","","","","","","","","","","","","","","","","","","","","","","","",""
"","","","","","survey-text","85","231559","0.0-85.0","A9LSEP71DNP4O","2022-05-23T17:52:01.309Z","task_switching-rhyme-same_different-phon_sim","","1450.3999999985099","task_switching","{""addition_ans"":""23""}","experiment","20","addition","23","true","add","","","","","","","","","","","","","","","","","","","","","","","","","","","","","",""
"","","","","","survey-text","86","234496","0.0-86.0","A9LSEP71DNP4O","2022-05-23T17:52:01.309Z","task_switching-rhyme-same_different-phon_sim","","2936","task_switching","{""addition_ans"":""89""}","experiment","86","addition","89","true","add","","","","","","","","","","","","","","","","","","","","","","","","","","","","","",""
"","","","","","survey-text","87","236543","0.0-87.0","A9LSEP71DNP4O","2022-05-23T17:52:01.309Z","task_switching-rhyme-same_different-phon_sim","","2045.5","task_switching","{""addition_ans"":""42""}","experiment","39","addition","42","true","add","","","","","","","","","","","","","","","","","","","","","","","","","","","","","",""
"","","","","","survey-text","88","240256","0.0-88.0","A9LSEP71DNP4O","2022-05-23T17:52:01.309Z","task_switching-rhyme-same_different-phon_sim","","3711.699999999255","task_switching","{""addition_ans"":""81""}","experiment","78","addition","81","true","add","","","","","","","","","","","","","","","","","","","","","","","","","","","","","",""
"","","","","","survey-text","89","242556","0.0-89.0","A9LSEP71DNP4O","2022-05-23T17:52:01.309Z","task_switching-rhyme-same_different-phon_sim","","2298.699999999255","task_switching","{""addition_ans"":""76""}","experiment","73","addition","76","true","add","","","","","","","","","","","","","","","","","","","","","","","","","","","","","",""
"","","","","","survey-text","90","244427","0.0-90.0","A9LSEP71DNP4O","2022-05-23T17:52:01.309Z","task_switching-rhyme-same_different-phon_sim","","1869.9000000022352","task_switching","{""addition_ans"":""57""}","experiment","54","addition","57","true","add","","","","","","","","","","","","","","","","","","","","","","","","","","","","","",""
"","","","","","survey-text","91","246555","0.0-91.0","A9LSEP71DNP4O","2022-05-23T17:52:01.309Z","task_switching-rhyme-same_different-phon_sim","","2126.800000000745","task_switching","{""addition_ans"":""29""}","experiment","26","addition","29","true","add","","","","","","","","","","","","","","","","","","","","","","","","","","","","","",""
"","","","","","survey-text","92","248921","0.0-92.0","A9LSEP71DNP4O","2022-05-23T17:52:01.309Z","task_switching-rhyme-same_different-phon_sim","","2364.099999997765","task_switching","{""addition_ans"":""63""}","experiment","60","addition","63","true","add","","","","","","","","","","","","","","","","","","","","","","","","","","","","","",""
"","","","","","survey-text","93","251131","0.0-93.0","A9LSEP71DNP4O","2022-05-23T17:52:01.309Z","task_switching-rhyme-same_different-phon_sim","","2208.800000000745","task_switching","{""addition_ans"":""32""}","experiment","29","addition","32","true","add","","","","","","","","","","","","","","","","","","","","","","","","","","","","","",""
"","","","","","survey-text","94","253001","0.0-94.0","A9LSEP71DNP4O","2022-05-23T17:52:01.309Z","task_switching-rhyme-same_different-phon_sim","","1868.9000000022352","task_switching","{""addition_ans"":""97""}","experiment","94","addition","97","true","add","","","","","","","","","","","","","","","","","","","","","","","","","","","","","",""
"","","","","","survey-text","95","254914","0.0-95.0","A9LSEP71DNP4O","2022-05-23T17:52:01.309Z","task_switching-rhyme-same_different-phon_sim","","1912.1000000014901","task_switching","{""addition_ans"":""59""}","experiment","56","addition","59","true","add","","","","","","","","","","","","","","","","","","","","","","","","","","","","","",""
"","","","","","survey-text","96","256742","0.0-96.0","A9LSEP71DNP4O","2022-05-23T17:52:01.309Z","task_switching-rhyme-same_different-phon_sim","","1825.8999999985099","task_switching","{""addition_ans"":""61""}","experiment","58","addition","61","true","add","","","","","","","","","","","","","","","","","","","","","","","","","","","","","",""
"","","","","","survey-text","97","258826","0.0-97.0","A9LSEP71DNP4O","2022-05-23T17:52:01.309Z","task_switching-rhyme-same_different-phon_sim","","2083","task_switching","{""addition_ans"":""40""}","experiment","37","addition","40","true","add","","","","","","","","","","","","","","","","","","","","","","","","","","","","","",""
"","","","","","survey-text","98","262341","0.0-98.0","A9LSEP71DNP4O","2022-05-23T17:52:01.309Z","task_switching-rhyme-same_different-phon_sim","","3514.300000000745","task_switching","{""addition_ans"":""98""}","experiment","95","addition","98","true","add","","","","","","","","","","","","","","","","","","","","","","","","","","","","","",""
"","","","","","survey-text","99","264981","0.0-99.0","A9LSEP71DNP4O","2022-05-23T17:52:01.309Z","task_switching-rhyme-same_different-phon_sim","","2638.199999999255","task_switching","{""addition_ans"":""72""}","experiment","69","addition","72","true","add","","","","","","","","","","","","","","","","","","","","","","","","","","","","","",""
"","","","","","survey-text","100","266839","0.0-100.0","A9LSEP71DNP4O","2022-05-23T17:52:01.309Z","task_switching-rhyme-same_different-phon_sim","","1856.5","task_switching","{""addition_ans"":""91""}","experiment","88","addition","91","true","add","","","","","","","","","","","","","","","","","","","","","","","","","","","","","",""
"","","","","","survey-text","101","268417","0.0-101.0","A9LSEP71DNP4O","2022-05-23T17:52:01.309Z","task_switching-rhyme-same_different-phon_sim","","1577","task_switching","{""addition_ans"":""33""}","experiment","30","addition","33","true","add","","","","","","","","","","","","","","","","","","","","","","","","","","","","","",""
"","","","","","survey-text","102","269840","0.0-102.0","A9LSEP71DNP4O","2022-05-23T17:52:01.309Z","task_switching-rhyme-same_different-phon_sim","","1421.9000000022352","task_switching","{""addition_ans"":""55""}","experiment","52","addition","55","true","add","","","","","","","","","","","","","","","","","","","","","","","","","","","","","",""
"","","","","","survey-text","103","271544","0.0-103.0","A9LSEP71DNP4O","2022-05-23T17:52:01.309Z","task_switching-rhyme-same_different-phon_sim","","1703","task_switching","{""addition_ans"":""71""}","experiment","68","addition","71","true","add","","","","","","","","","","","","","","","","","","","","","","","","","","","","","",""
"","","","","","survey-text","104","273364","0.0-104.0","A9LSEP71DNP4O","2022-05-23T17:52:01.309Z","task_switching-rhyme-same_different-phon_sim","","1818.7999999970198","task_switching","{""addition_ans"":""85""}","experiment","82","addition","85","true","add","","","","","","","","","","","","","","","","","","","","","","","","","","","","","",""
"","","","","","survey-text","105","275182","0.0-105.0","A9LSEP71DNP4O","2022-05-23T17:52:01.309Z","task_switching-rhyme-same_different-phon_sim","","1816.2999999970198","task_switching","{""addition_ans"":""60""}","experiment","57","addition","60","true","add","","","","","","","","","","","","","","","","","","","","","","","","","","","","","",""
"","","","","","survey-text","106","277186","0.0-106.0","A9LSEP71DNP4O","2022-05-23T17:52:01.309Z","task_switching-rhyme-same_different-phon_sim","","2002.5","task_switching","{""addition_ans"":""50""}","experiment","47","addition","50","true","add","","","","","","","","","","","","","","","","","","","","","","","","","","","","","",""
"","","","","","survey-text","107","278676","0.0-107.0","A9LSEP71DNP4O","2022-05-23T17:52:01.309Z","task_switching-rhyme-same_different-phon_sim","","1489","task_switching","{""addition_ans"":""70""}","experiment","67","addition","70","true","add","","","","","","","","","","","","","","","","","","","","","","","","","","","","","",""
"","","","","","instructions","108","292642","0.0-108.0","A9LSEP71DNP4O","2022-05-23T17:52:01.309Z","task_switching-rhyme-same_different-phon_sim","[{""page_index"":0,""viewing_time"":13965.199999999255}]","13965.39999999851","task_switching","","","","","","","","","","","","","","","","","","","","","","","","","","","","","","","","","","","","",""
"","","","","","survey-text","109","294444","0.0-109.0","A9LSEP71DNP4O","2022-05-23T17:52:01.309Z","task_switching-rhyme-same_different-phon_sim","","1801.2000000029802","task_switching","{""uncued_switch_ans"":""69""}","training","66","uncued_switch","69","true","add","0","","","","","","","","","","","","","","","","","","","","","","","","","","","","",""
"","","","","","html-keyboard-response","110","295447","0.0-110.0","A9LSEP71DNP4O","2022-05-23T17:52:01.309Z","task_switching-rhyme-same_different-phon_sim","","null","task_switching","null","training","<div style=""color:darkgreen; font-size:60px"">Well done!</div>","uncued_switch","","","","","","","","","","","","","","","","","","","","","","","","","","","","","","","","",""
"","","","","","survey-text","111","297212","0.0-111.0","A9LSEP71DNP4O","2022-05-23T17:52:01.309Z","task_switching-rhyme-same_different-phon_sim","","1764","task_switching","{""uncued_switch_ans"":""23""}","training","26","uncued_switch","23","true","subtract","1","","","","","","","","","","","","","","","","","","","","","","","","","","","","",""
"","","","","","html-keyboard-response","112","298213","0.0-112.0","A9LSEP71DNP4O","2022-05-23T17:52:01.309Z","task_switching-rhyme-same_different-phon_sim","","null","task_switching","null","training","<div style=""color:darkgreen; font-size:60px"">Well done!</div>","uncued_switch","","","","","","","","","","","","","","","","","","","","","","","","","","","","","","","","",""
"","","","","","survey-text","113","299903","0.0-113.0","A9LSEP71DNP4O","2022-05-23T17:52:01.309Z","task_switching-rhyme-same_different-phon_sim","","1688.6000000014901","task_switching","{""uncued_switch_ans"":""41""}","training","38","uncued_switch","41","true","add","2","","","","","","","","","","","","","","","","","","","","","","","","","","","","",""
"","","","","","html-keyboard-response","114","300905","0.0-114.0","A9LSEP71DNP4O","2022-05-23T17:52:01.309Z","task_switching-rhyme-same_different-phon_sim","","null","task_switching","null","training","<div style=""color:darkgreen; font-size:60px"">Well done!</div>","uncued_switch","","","","","","","","","","","","","","","","","","","","","","","","","","","","","","","","",""
"","","","","","survey-text","115","303003","0.0-115.0","A9LSEP71DNP4O","2022-05-23T17:52:01.309Z","task_switching-rhyme-same_different-phon_sim","","2097","task_switching","{""uncued_switch_ans"":""85""}","training","88","uncued_switch","85","true","subtract","3","","","","","","","","","","","","","","","","","","","","","","","","","","","","",""
"","","","","","html-keyboard-response","116","304004","0.0-116.0","A9LSEP71DNP4O","2022-05-23T17:52:01.309Z","task_switching-rhyme-same_different-phon_sim","","null","task_switching","null","training","<div style=""color:darkgreen; font-size:60px"">Well done!</div>","uncued_switch","","","","","","","","","","","","","","","","","","","","","","","","","","","","","","","","",""
"","","","","","survey-text","117","305204","0.0-117.0","A9LSEP71DNP4O","2022-05-23T17:52:01.309Z","task_switching-rhyme-same_different-phon_sim","","1198","task_switching","{""uncued_switch_ans"":""44""}","training","41","uncued_switch","44","true","add","4","","","","","","","","","","","","","","","","","","","","","","","","","","","","",""
"","","","","","html-keyboard-response","118","306204","0.0-118.0","A9LSEP71DNP4O","2022-05-23T17:52:01.309Z","task_switching-rhyme-same_different-phon_sim","","null","task_switching","null","training","<div style=""color:darkgreen; font-size:60px"">Well done!</div>","uncued_switch","","","","","","","","","","","","","","","","","","","","","","","","","","","","","","","","",""
"","","","","","survey-text","119","309748","0.0-119.0","A9LSEP71DNP4O","2022-05-23T17:52:01.309Z","task_switching-rhyme-same_different-phon_sim","","3542.599999997765","task_switching","{""uncued_switch_ans"":""12""}","training","15","uncued_switch","12","true","subtract","5","","","","","","","","","","","","","","","","","","","","","","","","","","","","",""
"","","","","","html-keyboard-response","120","310750","0.0-120.0","A9LSEP71DNP4O","2022-05-23T17:52:01.309Z","task_switching-rhyme-same_different-phon_sim","","null","task_switching","null","training","<div style=""color:darkgreen; font-size:60px"">Well done!</div>","uncued_switch","","","","","","","","","","","","","","","","","","","","","","","","","","","","","","","","",""
"","","","","","survey-text","121","312744","0.0-121.0","A9LSEP71DNP4O","2022-05-23T17:52:01.309Z","task_switching-rhyme-same_different-phon_sim","","1992","task_switching","{""uncued_switch_ans"":""20""}","training","17","uncued_switch","20","true","add","6","","","","","","","","","","","","","","","","","","","","","","","","","","","","",""
"","","","","","html-keyboard-response","122","313746","0.0-122.0","A9LSEP71DNP4O","2022-05-23T17:52:01.309Z","task_switching-rhyme-same_different-phon_sim","","null","task_switching","null","training","<div style=""color:darkgreen; font-size:60px"">Well done!</div>","uncued_switch","","","","","","","","","","","","","","","","","","","","","","","","","","","","","","","","",""
"","","","","","survey-text","123","316718","0.0-123.0","A9LSEP71DNP4O","2022-05-23T17:52:01.309Z","task_switching-rhyme-same_different-phon_sim","","2971","task_switching","{""uncued_switch_ans"":""68""}","training","71","uncued_switch","68","true","subtract","7","","","","","","","","","","","","","","","","","","","","","","","","","","","","",""
"","","","","","html-keyboard-response","124","317720","0.0-124.0","A9LSEP71DNP4O","2022-05-23T17:52:01.309Z","task_switching-rhyme-same_different-phon_sim","","null","task_switching","null","training","<div style=""color:darkgreen; font-size:60px"">Well done!</div>","uncued_switch","","","","","","","","","","","","","","","","","","","","","","","","","","","","","","","","",""
"","","","","","survey-text","125","320032","0.0-125.0","A9LSEP71DNP4O","2022-05-23T17:52:01.309Z","task_switching-rhyme-same_different-phon_sim","","2310.7000000029802","task_switching","{""uncued_switch_ans"":""57""}","training","54","uncued_switch","57","true","add","8","","","","","","","","","","","","","","","","","","","","","","","","","","","","",""
"","","","","","html-keyboard-response","126","321034","0.0-126.0","A9LSEP71DNP4O","2022-05-23T17:52:01.309Z","task_switching-rhyme-same_different-phon_sim","","null","task_switching","null","training","<div style=""color:darkgreen; font-size:60px"">Well done!</div>","uncued_switch","","","","","","","","","","","","","","","","","","","","","","","","","","","","","","","","",""
"","","","","","survey-text","127","323518","0.0-127.0","A9LSEP71DNP4O","2022-05-23T17:52:01.309Z","task_switching-rhyme-same_different-phon_sim","","2482.300000000745","task_switching","{""uncued_switch_ans"":""69""}","training","72","uncued_switch","69","true","subtract","9","","","","","","","","","","","","","","","","","","","","","","","","","","","","",""
"","","","","","html-keyboard-response","128","324518","0.0-128.0","A9LSEP71DNP4O","2022-05-23T17:52:01.309Z","task_switching-rhyme-same_different-phon_sim","","null","task_switching","null","training","<div style=""color:darkgreen; font-size:60px"">Well done!</div>","uncued_switch","","","","","","","","","","","","","","","","","","","","","","","","","","","","","","","","",""
"","","","","","instructions","129","327857","0.0-129.0","A9LSEP71DNP4O","2022-05-23T17:52:01.309Z","task_switching-rhyme-same_different-phon_sim","[{""page_index"":0,""viewing_time"":3338.60000000149}]","3338.699999999255","task_switching","","","","","","","","","","","","","","","","","","","","","","","","","","","","","","","","","","","","",""
"","","","","","survey-text","130","329599","0.0-130.0","A9LSEP71DNP4O","2022-05-23T17:52:01.309Z","task_switching-rhyme-same_different-phon_sim","","1740.3999999985099","task_switching","{""uncued_switch_ans"":""69""}","experiment","66","uncued_switch","69","true","add","0","","","","","","","","","","","","","","","","","","","","","","","","","","","","",""
"","","","","","survey-text","131","331810","0.0-131.0","A9LSEP71DNP4O","2022-05-23T17:52:01.309Z","task_switching-rhyme-same_different-phon_sim","","2209.89999999851","task_switching","{""uncued_switch_ans"":""82""}","experiment","85","uncued_switch","82","true","subtract","1","","","","","","","","","","","","","","","","","","","","","","","","","","","","",""
"","","","","","survey-text","132","333991","0.0-132.0","A9LSEP71DNP4O","2022-05-23T17:52:01.309Z","task_switching-rhyme-same_different-phon_sim","","2179.699999999255","task_switching","{""uncued_switch_ans"":""83""}","experiment","80","uncued_switch","83","true","add","2","","","","","","","","","","","","","","","","","","","","","","","","","","","","",""
"","","","","","survey-text","133","336142","0.0-133.0","A9LSEP71DNP4O","2022-05-23T17:52:01.309Z","task_switching-rhyme-same_different-phon_sim","","2149","task_switching","{""uncued_switch_ans"":""17""}","experiment","20","uncued_switch","17","true","subtract","3","","","","","","","","","","","","","","","","","","","","","","","","","","","","",""
"","","","","","survey-text","134","337926","0.0-134.0","A9LSEP71DNP4O","2022-05-23T17:52:01.309Z","task_switching-rhyme-same_different-phon_sim","","1783","task_switching","{""uncued_switch_ans"":""26""}","experiment","23","uncued_switch","26","true","add","4","","","","","","","","","","","","","","","","","","","","","","","","","","","","",""
"","","","","","survey-text","135","342914","0.0-135.0","A9LSEP71DNP4O","2022-05-23T17:52:01.309Z","task_switching-rhyme-same_different-phon_sim","","4987.199999999255","task_switching","{""uncued_switch_ans"":""18""}","experiment","21","uncued_switch","18","true","subtract","5","","","","","","","","","","","","","","","","","","","","","","","","","","","","",""
"","","","","","survey-text","136","344758","0.0-136.0","A9LSEP71DNP4O","2022-05-23T17:52:01.309Z","task_switching-rhyme-same_different-phon_sim","","1841.800000000745","task_switching","{""uncued_switch_ans"":""60""}","experiment","57","uncued_switch","60","true","add","6","","","","","","","","","","","","","","","","","","","","","","","","","","","","",""
"","","","","","survey-text","137","347284","0.0-137.0","A9LSEP71DNP4O","2022-05-23T17:52:01.309Z","task_switching-rhyme-same_different-phon_sim","","2524.5","task_switching","{""uncued_switch_ans"":""19""}","experiment","22","uncued_switch","19","true","subtract","7","","","","","","","","","","","","","","","","","","","","","","","","","","","","",""
"","","","","","survey-text","138","349619","0.0-138.0","A9LSEP71DNP4O","2022-05-23T17:52:01.309Z","task_switching-rhyme-same_different-phon_sim","","2334.199999999255","task_switching","{""uncued_switch_ans"":""55""}","experiment","52","uncued_switch","55","true","add","8","","","","","","","","","","","","","","","","","","","","","","","","","","","","",""
"","","","","","survey-text","139","352091","0.0-139.0","A9LSEP71DNP4O","2022-05-23T17:52:01.309Z","task_switching-rhyme-same_different-phon_sim","","2470.7999999970198","task_switching","{""uncued_switch_ans"":""16""}","experiment","19","uncued_switch","16","true","subtract","9","","","","","","","","","","","","","","","","","","","","","","","","","","","","",""
"","","","","","survey-text","140","353543","0.0-140.0","A9LSEP71DNP4O","2022-05-23T17:52:01.309Z","task_switching-rhyme-same_different-phon_sim","","1450.6000000014901","task_switching","{""uncued_switch_ans"":""18""}","experiment","15","uncued_switch","18","true","add","10","","","","","","","","","","","","","","","","","","","","","","","","","","","","",""
"","","","","","survey-text","141","355461","0.0-141.0","A9LSEP71DNP4O","2022-05-23T17:52:01.309Z","task_switching-rhyme-same_different-phon_sim","","1915.5","task_switching","{""uncued_switch_ans"":""31""}","experiment","34","uncued_switch","31","true","subtract","11","","","","","","","","","","","","","","","","","","","","","","","","","","","","",""
"","","","","","survey-text","142","357626","0.0-142.0","A9LSEP71DNP4O","2022-05-23T17:52:01.309Z","task_switching-rhyme-same_different-phon_sim","","2163.60000000149","task_switching","{""uncued_switch_ans"":""68""}","experiment","65","uncued_switch","68","true","add","12","","","","","","","","","","","","","","","","","","","","","","","","","","","","",""
"","","","","","survey-text","143","359121","0.0-143.0","A9LSEP71DNP4O","2022-05-23T17:52:01.309Z","task_switching-rhyme-same_different-phon_sim","","1494.1000000014901","task_switching","{""uncued_switch_ans"":""65""}","experiment","68","uncued_switch","65","true","subtract","13","","","","","","","","","","","","","","","","","","","","","","","","","","","","",""
"","","","","","survey-text","144","361250","0.0-144.0","A9LSEP71DNP4O","2022-05-23T17:52:01.309Z","task_switching-rhyme-same_different-phon_sim","","2127.699999999255","task_switching","{""uncued_switch_ans"":""47""}","experiment","44","uncued_switch","47","true","add","14","","","","","","","","","","","","","","","","","","","","","","","","","","","","",""
"","","","","","survey-text","145","364027","0.0-145.0","A9LSEP71DNP4O","2022-05-23T17:52:01.309Z","task_switching-rhyme-same_different-phon_sim","","2776","task_switching","{""uncued_switch_ans"":""48""}","experiment","51","uncued_switch","48","true","subtract","15","","","","","","","","","","","","","","","","","","","","","","","","","","","","",""
"","","","","","survey-text","146","366872","0.0-146.0","A9LSEP71DNP4O","2022-05-23T17:52:01.309Z","task_switching-rhyme-same_different-phon_sim","","2843.099999997765","task_switching","{""uncued_switch_ans"":""50""}","experiment","47","uncued_switch","50","true","add","16","","","","","","","","","","","","","","","","","","","","","","","","","","","","",""
"","","","","","survey-text","147","370035","0.0-147.0","A9LSEP71DNP4O","2022-05-23T17:52:01.309Z","task_switching-rhyme-same_different-phon_sim","","3162","task_switching","{""uncued_switch_ans"":""43""}","experiment","48","uncued_switch","43","false","subtract","17","","","","","","","","","","","","","","","","","","","","","","","","","","","","",""
"","","","","","survey-text","148","375773","0.0-148.0","A9LSEP71DNP4O","2022-05-23T17:52:01.309Z","task_switching-rhyme-same_different-phon_sim","","5736.199999999255","task_switching","{""uncued_switch_ans"":""92""}","experiment","89","uncued_switch","92","true","add","18","","","","","","","","","","","","","","","","","","","","","","","","","","","","",""
"","","","","","survey-text","149","377202","0.0-149.0","A9LSEP71DNP4O","2022-05-23T17:52:01.309Z","task_switching-rhyme-same_different-phon_sim","","1427.699999999255","task_switching","{""uncued_switch_ans"":""60""}","experiment","63","uncued_switch","60","true","subtract","19","","","","","","","","","","","","","","","","","","","","","","","","","","","","",""
"","","","","","survey-text","150","379172","0.0-150.0","A9LSEP71DNP4O","2022-05-23T17:52:01.309Z","task_switching-rhyme-same_different-phon_sim","","1968.800000000745","task_switching","{""uncued_switch_ans"":""19""}","experiment","16","uncued_switch","19","true","add","20","","","","","","","","","","","","","","","","","","","","","","","","","","","","",""
"","","","","","survey-text","151","381913","0.0-151.0","A9LSEP71DNP4O","2022-05-23T17:52:01.309Z","task_switching-rhyme-same_different-phon_sim","","2740.10000000149","task_switching","{""uncued_switch_ans"":""92""}","experiment","95","uncued_switch","92","true","subtract","21","","","","","","","","","","","","","","","","","","","","","","","","","","","","",""
"","","","","","survey-text","152","384388","0.0-152.0","A9LSEP71DNP4O","2022-05-23T17:52:01.309Z","task_switching-rhyme-same_different-phon_sim","","2472.89999999851","task_switching","{""uncued_switch_ans"":""38""}","experiment","35","uncued_switch","38","true","add","22","","","","","","","","","","","","","","","","","","","","","","","","","","","","",""
"","","","","","survey-text","153","385921","0.0-153.0","A9LSEP71DNP4O","2022-05-23T17:52:01.309Z","task_switching-rhyme-same_different-phon_sim","","1532.1000000014901","task_switching","{""uncued_switch_ans"":""71""}","experiment","74","uncued_switch","71","true","subtract","23","","","","","","","","","","","","","","","","","","","","","","","","","","","","",""
"","","","","","survey-text","154","388006","0.0-154.0","A9LSEP71DNP4O","2022-05-23T17:52:01.309Z","task_switching-rhyme-same_different-phon_sim","","2084","task_switching","{""uncued_switch_ans"":""57""}","experiment","54","uncued_switch","57","true","add","24","","","","","","","","","","","","","","","","","","","","","","","","","","","","",""
"","","","","","survey-text","155","389382","0.0-155.0","A9LSEP71DNP4O","2022-05-23T17:52:01.309Z","task_switching-rhyme-same_different-phon_sim","","1374.300000000745","task_switching","{""uncued_switch_ans"":""33""}","experiment","36","uncued_switch","33","true","subtract","25","","","","","","","","","","","","","","","","","","","","","","","","","","","","",""
"","","","","","survey-text","156","392142","0.0-156.0","A9LSEP71DNP4O","2022-05-23T17:52:01.309Z","task_switching-rhyme-same_different-phon_sim","","2758.2000000029802","task_switching","{""uncued_switch_ans"":""67""}","experiment","64","uncued_switch","67","true","add","26","","","","","","","","","","","","","","","","","","","","","","","","","","","","",""
"","","","","","survey-text","157","394617","0.0-157.0","A9LSEP71DNP4O","2022-05-23T17:52:01.309Z","task_switching-rhyme-same_different-phon_sim","","2473.699999999255","task_switching","{""uncued_switch_ans"":""59""}","experiment","62","uncued_switch","59","true","subtract","27","","","","","","","","","","","","","","","","","","","","","","","","","","","","",""
"","","","","","survey-text","158","398906","0.0-158.0","A9LSEP71DNP4O","2022-05-23T17:52:01.309Z","task_switching-rhyme-same_different-phon_sim","","4288","task_switching","{""uncued_switch_ans"":""82""}","experiment","79","uncued_switch","82","true","add","28","","","","","","","","","","","","","","","","","","","","","","","","","","","","",""
"","","","","","survey-text","159","401270","0.0-159.0","A9LSEP71DNP4O","2022-05-23T17:52:01.309Z","task_switching-rhyme-same_different-phon_sim","","2362.10000000149","task_switching","{""uncued_switch_ans"":""43""}","experiment","46","uncued_switch","43","true","subtract","29","","","","","","","","","","","","","","","","","","","","","","","","","","","","",""
"","","","","","instructions","160","414521","0.0-160.0","A9LSEP71DNP4O","2022-05-23T17:52:01.309Z","task_switching-rhyme-same_different-phon_sim","[{""page_index"":0,""viewing_time"":13250.20000000298}]","13250.300000000745","task_switching","","","","","","","","","","","","","","","","","","","","","","","","","","","","","","","","","","","","",""
"","","","","","survey-text","161","416169","0.0-161.0","A9LSEP71DNP4O","2022-05-23T17:52:01.309Z","task_switching-rhyme-same_different-phon_sim","","1646.5","task_switching","{""symbolcue_switch_ans"":""33""}","training","30","symbolcue_switch","33","true","add","0","+","","","","","","","","","","","","","","","","","","","","","","","","","","","",""
"","","","","","html-keyboard-response","162","417170","0.0-162.0","A9LSEP71DNP4O","2022-05-23T17:52:01.309Z","task_switching-rhyme-same_different-phon_sim","","null","task_switching","null","training","<div style=""color:darkgreen; font-size:60px"">Well done!</div>","symbolcue_switch","","","","","","","","","","","","","","","","","","","","","","","","","","","","","","","","",""
"","","","","","survey-text","163","418828","0.0-163.0","A9LSEP71DNP4O","2022-05-23T17:52:01.309Z","task_switching-rhyme-same_different-phon_sim","","1656","task_switching","{""symbolcue_switch_ans"":""41""}","training","44","symbolcue_switch","41","true","subtract","1","-","","","","","","","","","","","","","","","","","","","","","","","","","","","",""
"","","","","","html-keyboard-response","164","419829","0.0-164.0","A9LSEP71DNP4O","2022-05-23T17:52:01.309Z","task_switching-rhyme-same_different-phon_sim","","null","task_switching","null","training","<div style=""color:darkgreen; font-size:60px"">Well done!</div>","symbolcue_switch","","","","","","","","","","","","","","","","","","","","","","","","","","","","","","","","",""
"","","","","","survey-text","165","421127","0.0-165.0","A9LSEP71DNP4O","2022-05-23T17:52:01.309Z","task_switching-rhyme-same_different-phon_sim","","1296.699999999255","task_switching","{""symbolcue_switch_ans"":""66""}","training","63","symbolcue_switch","66","true","add","2","+","","","","","","","","","","","","","","","","","","","","","","","","","","","",""
"","","","","","html-keyboard-response","166","422129","0.0-166.0","A9LSEP71DNP4O","2022-05-23T17:52:01.309Z","task_switching-rhyme-same_different-phon_sim","","null","task_switching","null","training","<div style=""color:darkgreen; font-size:60px"">Well done!</div>","symbolcue_switch","","","","","","","","","","","","","","","","","","","","","","","","","","","","","","","","",""
"","","","","","survey-text","167","424278","0.0-167.0","A9LSEP71DNP4O","2022-05-23T17:52:01.309Z","task_switching-rhyme-same_different-phon_sim","","2147.900000002235","task_switching","{""symbolcue_switch_ans"":""25""}","training","28","symbolcue_switch","25","true","subtract","3","-","","","","","","","","","","","","","","","","","","","","","","","","","","","",""
"","","","","","html-keyboard-response","168","425279","0.0-168.0","A9LSEP71DNP4O","2022-05-23T17:52:01.309Z","task_switching-rhyme-same_different-phon_sim","","null","task_switching","null","training","<div style=""color:darkgreen; font-size:60px"">Well done!</div>","symbolcue_switch","","","","","","","","","","","","","","","","","","","","","","","","","","","","","","","","",""
"","","","","","survey-text","169","427108","0.0-169.0","A9LSEP71DNP4O","2022-05-23T17:52:01.309Z","task_switching-rhyme-same_different-phon_sim","","1828.300000000745","task_switching","{""symbolcue_switch_ans"":""42""}","training","39","symbolcue_switch","42","true","add","4","+","","","","","","","","","","","","","","","","","","","","","","","","","","","",""
"","","","","","html-keyboard-response","170","428111","0.0-170.0","A9LSEP71DNP4O","2022-05-23T17:52:01.309Z","task_switching-rhyme-same_different-phon_sim","","null","task_switching","null","training","<div style=""color:darkgreen; font-size:60px"">Well done!</div>","symbolcue_switch","","","","","","","","","","","","","","","","","","","","","","","","","","","","","","","","",""
"","","","","","survey-text","171","430223","0.0-171.0","A9LSEP71DNP4O","2022-05-23T17:52:01.309Z","task_switching-rhyme-same_different-phon_sim","","2110.800000000745","task_switching","{""symbolcue_switch_ans"":""49""}","training","52","symbolcue_switch","49","true","subtract","5","-","","","","","","","","","","","","","","","","","","","","","","","","","","","",""
"","","","","","html-keyboard-response","172","431224","0.0-172.0","A9LSEP71DNP4O","2022-05-23T17:52:01.309Z","task_switching-rhyme-same_different-phon_sim","","null","task_switching","null","training","<div style=""color:darkgreen; font-size:60px"">Well done!</div>","symbolcue_switch","","","","","","","","","","","","","","","","","","","","","","","","","","","","","","","","",""
"","","","","","survey-text","173","433076","0.0-173.0","A9LSEP71DNP4O","2022-05-23T17:52:01.309Z","task_switching-rhyme-same_different-phon_sim","","1851.1000000014901","task_switching","{""symbolcue_switch_ans"":""35""}","training","32","symbolcue_switch","35","true","add","6","+","","","","","","","","","","","","","","","","","","","","","","","","","","","",""
"","","","","","html-keyboard-response","174","434077","0.0-174.0","A9LSEP71DNP4O","2022-05-23T17:52:01.309Z","task_switching-rhyme-same_different-phon_sim","","null","task_switching","null","training","<div style=""color:darkgreen; font-size:60px"">Well done!</div>","symbolcue_switch","","","","","","","","","","","","","","","","","","","","","","","","","","","","","","","","",""
"","","","","","survey-text","175","437102","0.0-175.0","A9LSEP71DNP4O","2022-05-23T17:52:01.309Z","task_switching-rhyme-same_different-phon_sim","","3023.900000002235","task_switching","{""symbolcue_switch_ans"":""28""}","training","31","symbolcue_switch","28","true","subtract","7","-","","","","","","","","","","","","","","","","","","","","","","","","","","","",""
"","","","","","html-keyboard-response","176","438104","0.0-176.0","A9LSEP71DNP4O","2022-05-23T17:52:01.309Z","task_switching-rhyme-same_different-phon_sim","","null","task_switching","null","training","<div style=""color:darkgreen; font-size:60px"">Well done!</div>","symbolcue_switch","","","","","","","","","","","","","","","","","","","","","","","","","","","","","","","","",""
"","","","","","survey-text","177","444051","0.0-177.0","A9LSEP71DNP4O","2022-05-23T17:52:01.309Z","task_switching-rhyme-same_different-phon_sim","","5945.5","task_switching","{""symbolcue_switch_ans"":""56""}","training","53","symbolcue_switch","56","true","add","8","+","","","","","","","","","","","","","","","","","","","","","","","","","","","",""
"","","","","","html-keyboard-response","178","445053","0.0-178.0","A9LSEP71DNP4O","2022-05-23T17:52:01.309Z","task_switching-rhyme-same_different-phon_sim","","null","task_switching","null","training","<div style=""color:darkgreen; font-size:60px"">Well done!</div>","symbolcue_switch","","","","","","","","","","","","","","","","","","","","","","","","","","","","","","","","",""
"","","","","","survey-text","179","447067","0.0-179.0","A9LSEP71DNP4O","2022-05-23T17:52:01.309Z","task_switching-rhyme-same_different-phon_sim","","2012.8999999985099","task_switching","{""symbolcue_switch_ans"":""11""}","training","14","symbolcue_switch","11","true","subtract","9","-","","","","","","","","","","","","","","","","","","","","","","","","","","","",""
"","","","","","html-keyboard-response","180","448069","0.0-180.0","A9LSEP71DNP4O","2022-05-23T17:52:01.309Z","task_switching-rhyme-same_different-phon_sim","","null","task_switching","null","training","<div style=""color:darkgreen; font-size:60px"">Well done!</div>","symbolcue_switch","","","","","","","","","","","","","","","","","","","","","","","","","","","","","","","","",""
"","","","","","instructions","181","449711","0.0-181.0","A9LSEP71DNP4O","2022-05-23T17:52:01.309Z","task_switching-rhyme-same_different-phon_sim","[{""page_index"":0,""viewing_time"":1641.699999999255}]","1641.800000000745","task_switching","","","","","","","","","","","","","","","","","","","","","","","","","","","","","","","","","","","","",""
"","","","","","survey-text","182","451427","0.0-182.0","A9LSEP71DNP4O","2022-05-23T17:52:01.309Z","task_switching-rhyme-same_different-phon_sim","","1714.3999999985099","task_switching","{""symbolcue_switch_ans"":""93""}","experiment","90","symbolcue_switch","93","true","add","0","+","","","","","","","","","","","","","","","","","","","","","","","","","","","",""
"","","","","","survey-text","183","452703","0.0-183.0","A9LSEP71DNP4O","2022-05-23T17:52:01.309Z","task_switching-rhyme-same_different-phon_sim","","1274.699999999255","task_switching","{""symbolcue_switch_ans"":""33""}","experiment","36","symbolcue_switch","33","true","subtract","1","-","","","","","","","","","","","","","","","","","","","","","","","","","","","",""
"","","","","","survey-text","184","455308","0.0-184.0","A9LSEP71DNP4O","2022-05-23T17:52:01.309Z","task_switching-rhyme-same_different-phon_sim","","2604.300000000745","task_switching","{""symbolcue_switch_ans"":""85""}","experiment","82","symbolcue_switch","85","true","add","2","+","","","","","","","","","","","","","","","","","","","","","","","","","","","",""
"","","","","","survey-text","185","457642","0.0-185.0","A9LSEP71DNP4O","2022-05-23T17:52:01.309Z","task_switching-rhyme-same_different-phon_sim","","2331.900000002235","task_switching","{""symbolcue_switch_ans"":""25""}","experiment","28","symbolcue_switch","25","true","subtract","3","-","","","","","","","","","","","","","","","","","","","","","","","","","","","",""
"","","","","","survey-text","186","459445","0.0-186.0","A9LSEP71DNP4O","2022-05-23T17:52:01.309Z","task_switching-rhyme-same_different-phon_sim","","1801.6000000014901","task_switching","{""symbolcue_switch_ans"":""40""}","experiment","37","symbolcue_switch","40","true","add","4","+","","","","","","","","","","","","","","","","","","","","","","","","","","","",""
"","","","","","survey-text","187","461008","0.0-187.0","A9LSEP71DNP4O","2022-05-23T17:52:01.309Z","task_switching-rhyme-same_different-phon_sim","","1561.8999999985099","task_switching","{""symbolcue_switch_ans"":""63""}","experiment","66","symbolcue_switch","63","true","subtract","5","-","","","","","","","","","","","","","","","","","","","","","","","","","","","",""
"","","","","","survey-text","188","463175","0.0-188.0","A9LSEP71DNP4O","2022-05-23T17:52:01.309Z","task_switching-rhyme-same_different-phon_sim","","2165.800000000745","task_switching","{""symbolcue_switch_ans"":""29""}","experiment","26","symbolcue_switch","29","true","add","6","+","","","","","","","","","","","","","","","","","","","","","","","","","","","",""
"","","","","","survey-text","189","465202","0.0-189.0","A9LSEP71DNP4O","2022-05-23T17:52:01.309Z","task_switching-rhyme-same_different-phon_sim","","2025.800000000745","task_switching","{""symbolcue_switch_ans"":""66""}","experiment","69","symbolcue_switch","66","true","subtract","7","-","","","","","","","","","","","","","","","","","","","","","","","","","","","",""
"","","","","","survey-text","190","468212","0.0-190.0","A9LSEP71DNP4O","2022-05-23T17:52:01.309Z","task_switching-rhyme-same_different-phon_sim","","3008.2000000029802","task_switching","{""symbolcue_switch_ans"":""76""}","experiment","73","symbolcue_switch","76","true","add","8","+","","","","","","","","","","","","","","","","","","","","","","","","","","","",""
"","","","","","survey-text","191","470044","0.0-191.0","A9LSEP71DNP4O","2022-05-23T17:52:01.309Z","task_switching-rhyme-same_different-phon_sim","","1830.699999999255","task_switching","{""symbolcue_switch_ans"":""10""}","experiment","13","symbolcue_switch","10","true","subtract","9","-","","","","","","","","","","","","","","","","","","","","","","","","","","","",""
"","","","","","survey-text","192","471547","0.0-192.0","A9LSEP71DNP4O","2022-05-23T17:52:01.309Z","task_switching-rhyme-same_different-phon_sim","","1502.199999999255","task_switching","{""symbolcue_switch_ans"":""30""}","experiment","27","symbolcue_switch","30","true","add","10","+","","","","","","","","","","","","","","","","","","","","","","","","","","","",""
"","","","","","survey-text","193","474932","0.0-193.0","A9LSEP71DNP4O","2022-05-23T17:52:01.309Z","task_switching-rhyme-same_different-phon_sim","","3383.599999997765","task_switching","{""symbolcue_switch_ans"":""32""}","experiment","35","symbolcue_switch","32","true","subtract","11","-","","","","","","","","","","","","","","","","","","","","","","","","","","","",""
"","","","","","survey-text","194","476902","0.0-194.0","A9LSEP71DNP4O","2022-05-23T17:52:01.309Z","task_switching-rhyme-same_different-phon_sim","","1968.300000000745","task_switching","{""symbolcue_switch_ans"":""17""}","experiment","14","symbolcue_switch","17","true","add","12","+","","","","","","","","","","","","","","","","","","","","","","","","","","","",""
"","","","","","survey-text","195","478709","0.0-195.0","A9LSEP71DNP4O","2022-05-23T17:52:01.309Z","task_switching-rhyme-same_different-phon_sim","","1805.699999999255","task_switching","{""symbolcue_switch_ans"":""28""}","experiment","31","symbolcue_switch","28","true","subtract","13","-","","","","","","","","","","","","","","","","","","","","","","","","","","","",""
"","","","","","survey-text","196","482187","0.0-196.0","A9LSEP71DNP4O","2022-05-23T17:52:01.309Z","task_switching-rhyme-same_different-phon_sim","","3477.10000000149","task_switching","{""symbolcue_switch_ans"":""74""}","experiment","71","symbolcue_switch","74","true","add","14","+","","","","","","","","","","","","","","","","","","","","","","","","","","","",""
"","","","","","survey-text","197","484061","0.0-197.0","A9LSEP71DNP4O","2022-05-23T17:52:01.309Z","task_switching-rhyme-same_different-phon_sim","","1872.5","task_switching","{""symbolcue_switch_ans"":""80""}","experiment","83","symbolcue_switch","80","true","subtract","15","-","","","","","","","","","","","","","","","","","","","","","","","","","","","",""
"","","","","","survey-text","198","485919","0.0-198.0","A9LSEP71DNP4O","2022-05-23T17:52:01.309Z","task_switching-rhyme-same_different-phon_sim","","1856.699999999255","task_switching","{""symbolcue_switch_ans"":""83""}","experiment","80","symbolcue_switch","83","true","add","16","+","","","","","","","","","","","","","","","","","","","","","","","","","","","",""
"","","","","","survey-text","199","488317","0.0-199.0","A9LSEP71DNP4O","2022-05-23T17:52:01.309Z","task_switching-rhyme-same_different-phon_sim","","2395.400000002235","task_switching","{""symbolcue_switch_ans"":""92""}","experiment","95","symbolcue_switch","92","true","subtract","17","-","","","","","","","","","","","","","","","","","","","","","","","","","","","",""
"","","","","","survey-text","200","490102","0.0-200.0","A9LSEP71DNP4O","2022-05-23T17:52:01.309Z","task_switching-rhyme-same_different-phon_sim","","1783.7999999970198","task_switching","{""symbolcue_switch_ans"":""53""}","experiment","50","symbolcue_switch","53","true","add","18","+","","","","","","","","","","","","","","","","","","","","","","","","","","","",""
"","","","","","survey-text","201","492109","0.0-201.0","A9LSEP71DNP4O","2022-05-23T17:52:01.309Z","task_switching-rhyme-same_different-phon_sim","","2005.9000000022352","task_switching","{""symbolcue_switch_ans"":""27""}","experiment","30","symbolcue_switch","27","true","subtract","19","-","","","","","","","","","","","","","","","","","","","","","","","","","","","",""
"","","","","","survey-text","202","494337","0.0-202.0","A9LSEP71DNP4O","2022-05-23T17:52:01.309Z","task_switching-rhyme-same_different-phon_sim","","2226.900000002235","task_switching","{""symbolcue_switch_ans"":""81""}","experiment","78","symbolcue_switch","81","true","add","20","+","","","","","","","","","","","","","","","","","","","","","","","","","","","",""
"","","","","","survey-text","203","498087","0.0-203.0","A9LSEP71DNP4O","2022-05-23T17:52:01.309Z","task_switching-rhyme-same_different-phon_sim","","3748.5","task_switching","{""symbolcue_switch_ans"":""74""}","experiment","77","symbolcue_switch","74","true","subtract","21","-","","","","","","","","","","","","","","","","","","","","","","","","","","","",""
"","","","","","survey-text","204","500588","0.0-204.0","A9LSEP71DNP4O","2022-05-23T17:52:01.309Z","task_switching-rhyme-same_different-phon_sim","","2499.400000002235","task_switching","{""symbolcue_switch_ans"":""20""}","experiment","17","symbolcue_switch","20","true","add","22","+","","","","","","","","","","","","","","","","","","","","","","","","","","","",""
"","","","","","survey-text","205","505412","0.0-205.0","A9LSEP71DNP4O","2022-05-23T17:52:01.309Z","task_switching-rhyme-same_different-phon_sim","","4822.599999997765","task_switching","{""symbolcue_switch_ans"":""52""}","experiment","55","symbolcue_switch","52","true","subtract","23","-","","","","","","","","","","","","","","","","","","","","","","","","","","","",""
"","","","","","survey-text","206","507282","0.0-206.0","A9LSEP71DNP4O","2022-05-23T17:52:01.309Z","task_switching-rhyme-same_different-phon_sim","","1868.800000000745","task_switching","{""symbolcue_switch_ans"":""65""}","experiment","62","symbolcue_switch","65","true","add","24","+","","","","","","","","","","","","","","","","","","","","","","","","","","","",""
"","","","","","survey-text","207","516461","0.0-207.0","A9LSEP71DNP4O","2022-05-23T17:52:01.309Z","task_switching-rhyme-same_different-phon_sim","","9178","task_switching","{""symbolcue_switch_ans"":""58""}","experiment","61","symbolcue_switch","58","true","subtract","25","-","","","","","","","","","","","","","","","","","","","","","","","","","","","",""
"","","","","","survey-text","208","518142","0.0-208.0","A9LSEP71DNP4O","2022-05-23T17:52:01.309Z","task_switching-rhyme-same_different-phon_sim","","1678.8999999985099","task_switching","{""symbolcue_switch_ans"":""54""}","experiment","51","symbolcue_switch","54","true","add","26","+","","","","","","","","","","","","","","","","","","","","","","","","","","","",""
"","","","","","survey-text","209","521822","0.0-209.0","A9LSEP71DNP4O","2022-05-23T17:52:01.309Z","task_switching-rhyme-same_different-phon_sim","","3679.300000000745","task_switching","{""symbolcue_switch_ans"":""78""}","experiment","81","symbolcue_switch","78","true","subtract","27","-","","","","","","","","","","","","","","","","","","","","","","","","","","","",""
"","","","","","survey-text","210","525363","0.0-210.0","A9LSEP71DNP4O","2022-05-23T17:52:01.309Z","task_switching-rhyme-same_different-phon_sim","","3539.10000000149","task_switching","{""symbolcue_switch_ans"":""49""}","experiment","46","symbolcue_switch","49","true","add","28","+","","","","","","","","","","","","","","","","","","","","","","","","","","","",""
"","","","","","survey-text","211","526829","0.0-211.0","A9LSEP71DNP4O","2022-05-23T17:52:01.309Z","task_switching-rhyme-same_different-phon_sim","","1464.9000000022352","task_switching","{""symbolcue_switch_ans"":""50""}","experiment","53","symbolcue_switch","50","true","subtract","29","-","","","","","","","","","","","","","","","","","","","","","","","","","","","",""
"","","","","","instructions","212","533152","0.0-212.0","A9LSEP71DNP4O","2022-05-23T17:52:01.309Z","task_switching-rhyme-same_different-phon_sim","[{""page_index"":0,""viewing_time"":6322.699999999255}]","6323","task_switching","","","","","","","","","","","","","","","","","","","","","","","","","","","","","","","","","","","","",""
"","","","","","survey-text","213","536061","0.0-213.0","A9LSEP71DNP4O","2022-05-23T17:52:01.309Z","task_switching-rhyme-same_different-phon_sim","","2906.800000000745","task_switching","{""colorcue_switch_ans"":""70""}","training","67","colorcue_switch","70","true","add","0","","red","","","","","","","","","","","","","","","","","","","","","","","","","","",""
"","","","","","html-keyboard-response","214","537063","0.0-214.0","A9LSEP71DNP4O","2022-05-23T17:52:01.309Z","task_switching-rhyme-same_different-phon_sim","","null","task_switching","null","training","<div style=""color:darkgreen; font-size:60px"">Well done!</div>","colorcue_switch","","","","","","","","","","","","","","","","","","","","","","","","","","","","","","","","",""
"","","","","","survey-text","215","539252","0.0-215.0","A9LSEP71DNP4O","2022-05-23T17:52:01.309Z","task_switching-rhyme-same_different-phon_sim","","2187.5","task_switching","{""colorcue_switch_ans"":""53""}","training","56","colorcue_switch","53","true","subtract","1","","blue","","","","","","","","","","","","","","","","","","","","","","","","","","",""
"","","","","","html-keyboard-response","216","540252","0.0-216.0","A9LSEP71DNP4O","2022-05-23T17:52:01.309Z","task_switching-rhyme-same_different-phon_sim","","null","task_switching","null","training","<div style=""color:darkgreen; font-size:60px"">Well done!</div>","colorcue_switch","","","","","","","","","","","","","","","","","","","","","","","","","","","","","","","","",""
"","","","","","survey-text","217","542823","0.0-217.0","A9LSEP71DNP4O","2022-05-23T17:52:01.309Z","task_switching-rhyme-same_different-phon_sim","","2569.7000000029802","task_switching","{""colorcue_switch_ans"":""17""}","training","14","colorcue_switch","17","true","add","2","","red","","","","","","","","","","","","","","","","","","","","","","","","","","",""
"","","","","","html-keyboard-response","218","543826","0.0-218.0","A9LSEP71DNP4O","2022-05-23T17:52:01.309Z","task_switching-rhyme-same_different-phon_sim","","null","task_switching","null","training","<div style=""color:darkgreen; font-size:60px"">Well done!</div>","colorcue_switch","","","","","","","","","","","","","","","","","","","","","","","","","","","","","","","","",""
"","","","","","survey-text","219","547368","0.0-219.0","A9LSEP71DNP4O","2022-05-23T17:52:01.309Z","task_switching-rhyme-same_different-phon_sim","","3540.5","task_switching","{""colorcue_switch_ans"":""84""}","training","87","colorcue_switch","84","true","subtract","3","","blue","","","","","","","","","","","","","","","","","","","","","","","","","","",""
"","","","","","html-keyboard-response","220","548368","0.0-220.0","A9LSEP71DNP4O","2022-05-23T17:52:01.309Z","task_switching-rhyme-same_different-phon_sim","","null","task_switching","null","training","<div style=""color:darkgreen; font-size:60px"">Well done!</div>","colorcue_switch","","","","","","","","","","","","","","","","","","","","","","","","","","","","","","","","",""
"","","","","","survey-text","221","552095","0.0-221.0","A9LSEP71DNP4O","2022-05-23T17:52:01.309Z","task_switching-rhyme-same_different-phon_sim","","3725.5","task_switching","{""colorcue_switch_ans"":""81""}","training","78","colorcue_switch","81","true","add","4","","red","","","","","","","","","","","","","","","","","","","","","","","","","","",""
"","","","","","html-keyboard-response","222","553096","0.0-222.0","A9LSEP71DNP4O","2022-05-23T17:52:01.309Z","task_switching-rhyme-same_different-phon_sim","","null","task_switching","null","training","<div style=""color:darkgreen; font-size:60px"">Well done!</div>","colorcue_switch","","","","","","","","","","","","","","","","","","","","","","","","","","","","","","","","",""
"","","","","","survey-text","223","555378","0.0-223.0","A9LSEP71DNP4O","2022-05-23T17:52:01.309Z","task_switching-rhyme-same_different-phon_sim","","2280.7999999970198","task_switching","{""colorcue_switch_ans"":""74""}","training","77","colorcue_switch","74","true","subtract","5","","blue","","","","","","","","","","","","","","","","","","","","","","","","","","",""
"","","","","","html-keyboard-response","224","556379","0.0-224.0","A9LSEP71DNP4O","2022-05-23T17:52:01.309Z","task_switching-rhyme-same_different-phon_sim","","null","task_switching","null","training","<div style=""color:darkgreen; font-size:60px"">Well done!</div>","colorcue_switch","","","","","","","","","","","","","","","","","","","","","","","","","","","","","","","","",""
"","","","","","survey-text","225","558997","0.0-225.0","A9LSEP71DNP4O","2022-05-23T17:52:01.309Z","task_switching-rhyme-same_different-phon_sim","","2616.099999997765","task_switching","{""colorcue_switch_ans"":""49""}","training","46","colorcue_switch","49","true","add","6","","red","","","","","","","","","","","","","","","","","","","","","","","","","","",""
"","","","","","html-keyboard-response","226","559998","0.0-226.0","A9LSEP71DNP4O","2022-05-23T17:52:01.309Z","task_switching-rhyme-same_different-phon_sim","","null","task_switching","null","training","<div style=""color:darkgreen; font-size:60px"">Well done!</div>","colorcue_switch","","","","","","","","","","","","","","","","","","","","","","","","","","","","","","","","",""
"","","","","","survey-text","227","562232","0.0-227.0","A9LSEP71DNP4O","2022-05-23T17:52:01.309Z","task_switching-rhyme-same_different-phon_sim","","2232.599999997765","task_switching","{""colorcue_switch_ans"":""71""}","training","74","colorcue_switch","71","true","subtract","7","","blue","","","","","","","","","","","","","","","","","","","","","","","","","","",""
"","","","","","html-keyboard-response","228","563234","0.0-228.0","A9LSEP71DNP4O","2022-05-23T17:52:01.309Z","task_switching-rhyme-same_different-phon_sim","","null","task_switching","null","training","<div style=""color:darkgreen; font-size:60px"">Well done!</div>","colorcue_switch","","","","","","","","","","","","","","","","","","","","","","","","","","","","","","","","",""
"","","","","","survey-text","229","564987","0.0-229.0","A9LSEP71DNP4O","2022-05-23T17:52:01.309Z","task_switching-rhyme-same_different-phon_sim","","1751","task_switching","{""colorcue_switch_ans"":""30""}","training","27","colorcue_switch","30","true","add","8","","red","","","","","","","","","","","","","","","","","","","","","","","","","","",""
"","","","","","html-keyboard-response","230","565989","0.0-230.0","A9LSEP71DNP4O","2022-05-23T17:52:01.309Z","task_switching-rhyme-same_different-phon_sim","","null","task_switching","null","training","<div style=""color:darkgreen; font-size:60px"">Well done!</div>","colorcue_switch","","","","","","","","","","","","","","","","","","","","","","","","","","","","","","","","",""
"","","","","","survey-text","231","567675","0.0-231.0","A9LSEP71DNP4O","2022-05-23T17:52:01.309Z","task_switching-rhyme-same_different-phon_sim","","1684.5","task_switching","{""colorcue_switch_ans"":""70""}","training","73","colorcue_switch","70","true","subtract","9","","blue","","","","","","","","","","","","","","","","","","","","","","","","","","",""
"","","","","","html-keyboard-response","232","568676","0.0-232.0","A9LSEP71DNP4O","2022-05-23T17:52:01.309Z","task_switching-rhyme-same_different-phon_sim","","null","task_switching","null","training","<div style=""color:darkgreen; font-size:60px"">Well done!</div>","colorcue_switch","","","","","","","","","","","","","","","","","","","","","","","","","","","","","","","","",""
"","","","","","instructions","233","570324","0.0-233.0","A9LSEP71DNP4O","2022-05-23T17:52:01.309Z","task_switching-rhyme-same_different-phon_sim","[{""page_index"":0,""viewing_time"":1647}]","1647.199999999255","task_switching","","","","","","","","","","","","","","","","","","","","","","","","","","","","","","","","","","","","",""
"","","","","","survey-text","234","572137","0.0-234.0","A9LSEP71DNP4O","2022-05-23T17:52:01.309Z","task_switching-rhyme-same_different-phon_sim","","1812.1000000014901","task_switching","{""colorcue_switch_ans"":""21""}","experiment","18","colorcue_switch","21","true","add","0","","red","","","","","","","","","","","","","","","","","","","","","","","","","","",""
"","","","","","survey-text","235","573771","0.0-235.0","A9LSEP71DNP4O","2022-05-23T17:52:01.309Z","task_switching-rhyme-same_different-phon_sim","","1632.300000000745","task_switching","{""colorcue_switch_ans"":""71""}","experiment","84","colorcue_switch","71","false","subtract","1","","blue","","","","","","","","","","","","","","","","","","","","","","","","","","",""
"","","","","","survey-text","236","577071","0.0-236.0","A9LSEP71DNP4O","2022-05-23T17:52:01.309Z","task_switching-rhyme-same_different-phon_sim","","3299","task_switching","{""colorcue_switch_ans"":""88""}","experiment","85","colorcue_switch","88","true","add","2","","red","","","","","","","","","","","","","","","","","","","","","","","","","","",""
"","","","","","survey-text","237","579344","0.0-237.0","A9LSEP71DNP4O","2022-05-23T17:52:01.309Z","task_switching-rhyme-same_different-phon_sim","","2272.10000000149","task_switching","{""colorcue_switch_ans"":""91""}","experiment","94","colorcue_switch","91","true","subtract","3","","blue","","","","","","","","","","","","","","","","","","","","","","","","","","",""
"","","","","","survey-text","238","581491","0.0-238.0","A9LSEP71DNP4O","2022-05-23T17:52:01.309Z","task_switching-rhyme-same_different-phon_sim","","2145.699999999255","task_switching","{""colorcue_switch_ans"":""31""}","experiment","28","colorcue_switch","31","true","add","4","","red","","","","","","","","","","","","","","","","","","","","","","","","","","",""
"","","","","","survey-text","239","584525","0.0-239.0","A9LSEP71DNP4O","2022-05-23T17:52:01.309Z","task_switching-rhyme-same_different-phon_sim","","3032.5","task_switching","{""colorcue_switch_ans"":""24""}","experiment","27","colorcue_switch","24","true","subtract","5","","blue","","","","","","","","","","","","","","","","","","","","","","","","","","",""
"","","","","","survey-text","240","587647","0.0-240.0","A9LSEP71DNP4O","2022-05-23T17:52:01.309Z","task_switching-rhyme-same_different-phon_sim","","3120.400000002235","task_switching","{""colorcue_switch_ans"":""35""}","experiment","32","colorcue_switch","35","true","add","6","","red","","","","","","","","","","","","","","","","","","","","","","","","","","",""
"","","","","","survey-text","241","592364","0.0-241.0","A9LSEP71DNP4O","2022-05-23T17:52:01.309Z","task_switching-rhyme-same_different-phon_sim","","4716.300000000745","task_switching","{""colorcue_switch_ans"":""52""}","experiment","55","colorcue_switch","52","true","subtract","7","","blue","","","","","","","","","","","","","","","","","","","","","","","","","","",""
"","","","","","survey-text","242","595033","0.0-242.0","A9LSEP71DNP4O","2022-05-23T17:52:01.309Z","task_switching-rhyme-same_different-phon_sim","","2667.699999999255","task_switching","{""colorcue_switch_ans"":""72""}","experiment","69","colorcue_switch","72","true","add","8","","red","","","","","","","","","","","","","","","","","","","","","","","","","","",""
"","","","","","survey-text","243","597627","0.0-243.0","A9LSEP71DNP4O","2022-05-23T17:52:01.309Z","task_switching-rhyme-same_different-phon_sim","","2592.5","task_switching","{""colorcue_switch_ans"":""14""}","experiment","17","colorcue_switch","14","true","subtract","9","","blue","","","","","","","","","","","","","","","","","","","","","","","","","","",""
"","","","","","survey-text","244","600660","0.0-244.0","A9LSEP71DNP4O","2022-05-23T17:52:01.309Z","task_switching-rhyme-same_different-phon_sim","","3032.400000002235","task_switching","{""colorcue_switch_ans"":""56""}","experiment","53","colorcue_switch","56","true","add","10","","red","","","","","","","","","","","","","","","","","","","","","","","","","","",""
"","","","","","survey-text","245","603458","0.0-245.0","A9LSEP71DNP4O","2022-05-23T17:52:01.309Z","task_switching-rhyme-same_different-phon_sim","","2795.800000000745","task_switching","{""colorcue_switch_ans"":""43""}","experiment","46","colorcue_switch","43","true","subtract","11","","blue","","","","","","","","","","","","","","","","","","","","","","","","","","",""
"","","","","","survey-text","246","605311","0.0-246.0","A9LSEP71DNP4O","2022-05-23T17:52:01.309Z","task_switching-rhyme-same_different-phon_sim","","1852","task_switching","{""colorcue_switch_ans"":""44""}","experiment","41","colorcue_switch","44","true","add","12","","red","","","","","","","","","","","","","","","","","","","","","","","","","","",""
"","","","","","survey-text","247","607990","0.0-247.0","A9LSEP71DNP4O","2022-05-23T17:52:01.309Z","task_switching-rhyme-same_different-phon_sim","","2678.199999999255","task_switching","{""colorcue_switch_ans"":""55""}","experiment","58","colorcue_switch","55","true","subtract","13","","blue","","","","","","","","","","","","","","","","","","","","","","","","","","",""
"","","","","","survey-text","248","609587","0.0-248.0","A9LSEP71DNP4O","2022-05-23T17:52:01.309Z","task_switching-rhyme-same_different-phon_sim","","1595.7000000029802","task_switching","{""colorcue_switch_ans"":""17""}","experiment","14","colorcue_switch","17","true","add","14","","red","","","","","","","","","","","","","","","","","","","","","","","","","","",""
"","","","","","survey-text","249","611667","0.0-249.0","A9LSEP71DNP4O","2022-05-23T17:52:01.309Z","task_switching-rhyme-same_different-phon_sim","","2078.60000000149","task_switching","{""colorcue_switch_ans"":""45""}","experiment","48","colorcue_switch","45","true","subtract","15","","blue","","","","","","","","","","","","","","","","","","","","","","","","","","",""
"","","","","","survey-text","250","614769","0.0-250.0","A9LSEP71DNP4O","2022-05-23T17:52:01.309Z","task_switching-rhyme-same_different-phon_sim","","3100.5","task_switching","{""colorcue_switch_ans"":""68""}","experiment","65","colorcue_switch","68","true","add","16","","red","","","","","","","","","","","","","","","","","","","","","","","","","","",""
"","","","","","survey-text","251","618123","0.0-251.0","A9LSEP71DNP4O","2022-05-23T17:52:01.309Z","task_switching-rhyme-same_different-phon_sim","","3352.7999999970198","task_switching","{""colorcue_switch_ans"":""36""}","experiment","39","colorcue_switch","36","true","subtract","17","","blue","","","","","","","","","","","","","","","","","","","","","","","","","","",""
"","","","","","survey-text","252","620382","0.0-252.0","A9LSEP71DNP4O","2022-05-23T17:52:01.309Z","task_switching-rhyme-same_different-phon_sim","","2257.2999999970198","task_switching","{""colorcue_switch_ans"":""36""}","experiment","23","colorcue_switch","36","false","add","18","","red","","","","","","","","","","","","","","","","","","","","","","","","","","",""
"","","","","","survey-text","253","626846","0.0-253.0","A9LSEP71DNP4O","2022-05-23T17:52:01.309Z","task_switching-rhyme-same_different-phon_sim","","6463.199999999255","task_switching","{""colorcue_switch_ans"":""42""}","experiment","45","colorcue_switch","42","true","subtract","19","","blue","","","","","","","","","","","","","","","","","","","","","","","","","","",""
"","","","","","survey-text","254","630061","0.0-254.0","A9LSEP71DNP4O","2022-05-23T17:52:01.309Z","task_switching-rhyme-same_different-phon_sim","","3212.800000000745","task_switching","{""colorcue_switch_ans"":""67""}","experiment","64","colorcue_switch","67","true","add","20","","red","","","","","","","","","","","","","","","","","","","","","","","","","","",""
"","","","","","survey-text","255","633704","0.0-255.0","A9LSEP71DNP4O","2022-05-23T17:52:01.309Z","task_switching-rhyme-same_different-phon_sim","","3641.599999997765","task_switching","{""colorcue_switch_ans"":""37""}","experiment","40","colorcue_switch","37","true","subtract","21","","blue","","","","","","","","","","","","","","","","","","","","","","","","","","",""
"","","","","","survey-text","256","638251","0.0-256.0","A9LSEP71DNP4O","2022-05-23T17:52:01.309Z","task_switching-rhyme-same_different-phon_sim","","4546.199999999255","task_switching","{""colorcue_switch_ans"":""69""}","experiment","66","colorcue_switch","69","true","add","22","","red","","","","","","","","","","","","","","","","","","","","","","","","","","",""
"","","","","","survey-text","257","640441","0.0-257.0","A9LSEP71DNP4O","2022-05-23T17:52:01.309Z","task_switching-rhyme-same_different-phon_sim","","2187.699999999255","task_switching","{""colorcue_switch_ans"":""57""}","experiment","60","colorcue_switch","57","true","subtract","23","","blue","","","","","","","","","","","","","","","","","","","","","","","","","","",""
"","","","","","survey-text","258","642622","0.0-258.0","A9LSEP71DNP4O","2022-05-23T17:52:01.309Z","task_switching-rhyme-same_different-phon_sim","","2178.7000000029802","task_switching","{""colorcue_switch_ans"":""78""}","experiment","75","colorcue_switch","78","true","add","24","","red","","","","","","","","","","","","","","","","","","","","","","","","","","",""
"","","","","","survey-text","259","647199","0.0-259.0","A9LSEP71DNP4O","2022-05-23T17:52:01.309Z","task_switching-rhyme-same_different-phon_sim","","4574.900000002235","task_switching","{""colorcue_switch_ans"":""28""}","experiment","31","colorcue_switch","28","true","subtract","25","","blue","","","","","","","","","","","","","","","","","","","","","","","","","","",""
"","","","","","survey-text","260","651274","0.0-260.0","A9LSEP71DNP4O","2022-05-23T17:52:01.309Z","task_switching-rhyme-same_different-phon_sim","","4073.2000000029802","task_switching","{""colorcue_switch_ans"":""39""}","experiment","36","colorcue_switch","39","true","add","26","","red","","","","","","","","","","","","","","","","","","","","","","","","","","",""
"","","","","","survey-text","261","656743","0.0-261.0","A9LSEP71DNP4O","2022-05-23T17:52:01.309Z","task_switching-rhyme-same_different-phon_sim","","5467.099999997765","task_switching","{""colorcue_switch_ans"":""88""}","experiment","91","colorcue_switch","88","true","subtract","27","","blue","","","","","","","","","","","","","","","","","","","","","","","","","","",""
"","","","","","survey-text","262","658284","0.0-262.0","A9LSEP71DNP4O","2022-05-23T17:52:01.309Z","task_switching-rhyme-same_different-phon_sim","","1539.9000000022352","task_switching","{""colorcue_switch_ans"":""99""}","experiment","96","colorcue_switch","99","true","add","28","","red","","","","","","","","","","","","","","","","","","","","","","","","","","",""
"","","","","","survey-text","263","661378","0.0-263.0","A9LSEP71DNP4O","2022-05-23T17:52:01.309Z","task_switching-rhyme-same_different-phon_sim","","3092.89999999851","task_switching","{""colorcue_switch_ans"":""65""}","experiment","68","colorcue_switch","65","true","subtract","29","","blue","","","","","","","","","","","","","","","","","","","","","","","","","","",""
"","","","","","survey-multi-choice","264","664135","0.0-264.0","A9LSEP71DNP4O","2022-05-23T17:52:01.309Z","task_switching-rhyme-same_different-phon_sim","","2756.099999997765","task_switching","{""Q0"":""No""}","","","","","","","","","","[0]","No","","","","","","","","","","","","","","","","","","","","","","","","",""
"","","","","","survey-text","265","672284","0.0-265.0","A9LSEP71DNP4O","2022-05-23T17:52:01.309Z","task_switching-rhyme-same_different-phon_sim","","8146.400000002235","task_switching","{""Q0"":""Nothing I can think of""}","","","","","","","","","","","","Nothing I can think of","","","","","","","","","","","","","","","","","","","","","","","",""
"","","","","","instructions","266","673615","0.0-266.0","A9LSEP71DNP4O","2022-05-23T17:52:01.309Z","task_switching-rhyme-same_different-phon_sim","[{""page_index"":0,""viewing_time"":1330.800000000745}]","1330.9000000022352","task_switching","","","","","","","","","","","","","","","","","","","","","","","","","","","","","","","","","","","","",""
"","","","","","instructions","267","694031","0.0-267.0","A9LSEP71DNP4O","2022-05-23T17:52:01.309Z","task_switching-rhyme-same_different-phon_sim","[{""page_index"":0,""viewing_time"":20415.400000002235}]","20415.60000000149","rhyme","","","","","","","","","","","","","","","","","","","","","","","","","","","","","","","","","","","","",""
"","","","","","html-keyboard-response","268","694284","0.0-268.0-0.0","A9LSEP71DNP4O","2022-05-23T17:52:01.309Z","task_switching-rhyme-same_different-phon_sim","","null","rhyme","null","","<div style=""font-size:60px;"">+</div>","","","","","","","","","","","250","","","","","","","","","","","","","","","","","","","","","","",""
"","","","","","html-keyboard-response","269","694785","0.0-268.0-1.0","A9LSEP71DNP4O","2022-05-23T17:52:01.309Z","task_switching-rhyme-same_different-phon_sim","","null","rhyme","null","","<img src=""square.png"" width=""306"" height=""306"" style=""position: fixed;left:14%;top:30%""><img src=""square.png"" width=""306"" height=""306"" style=""position: fixed;left:64%;top:30%"">","","","","","","","","","","","","","","","","","","","","","","","","","","","","","","","","","",""
"","","","","","categorize-html","270","697033","0.0-268.0-2.0","A9LSEP71DNP4O","2022-05-23T17:52:01.309Z","task_switching-rhyme-same_different-phon_sim","","1245.199999999255","rhyme","arrowdown","training","<div style=""border: 3px solid #000000; position: fixed;left:14%;top:30%""><img src=""visual/chess.png"" width=""300""></div><div style=""border: 3px solid #000000; position: fixed;left:64%;top:30%""><img src=""visual/suit.png"" width=""300""></div>","","","true","","","","","","","","","visual/chess.png","visual/suit.png","ArrowDown","NA","","","","","","","","","","","","","","","","","","",""
"","","","","","html-keyboard-response","271","697784","0.0-268.0-0.1","A9LSEP71DNP4O","2022-05-23T17:52:01.309Z","task_switching-rhyme-same_different-phon_sim","","null","rhyme","null","","<div style=""font-size:60px;"">+</div>","","","","","","","","","","","750","","","","","","","","","","","","","","","","","","","","","","",""
