"success","timeout","failed_images","failed_audio","failed_video","trial_type","trial_index","time_elapsed","internal_node_id","worker_id","start_time","experiment_order","view_history","rt","experiment","stimulus","response","wait_time","correct","phase","image_1","image_2","cor_key","type","question_order","talk_out_loud","strategy_free_ans","judgment_type","stim_1","stim_2","inverted","answer","false_pos","true_neg","true_pos","false_neg","word_1","word_2","word_3","word_4","word_5","original_word_set","response_1","response_2","response_3","response_4","response_5","condition","operation","symbol_cue","trial_no","color_cue"
"true","false","[]","[]","[]","preload","0","9659","0.0-0.0","AFFXVHHBUWW4D","2022-05-19T07:54:19.658Z","rhyme-same_different-phon_sim-task_switching","","","","","","","","","","","","","","","","","","","","","","","","","","","","","","","","","","","","","","","",""
"","","","","","instructions","1","18001","0.0-1.0","AFFXVHHBUWW4D","2022-05-19T07:54:19.658Z","rhyme-same_different-phon_sim-task_switching","[{""page_index"":0,""viewing_time"":8339.79999999702}]","8340.20000000298","","","","","","","","","","","","","","","","","","","","","","","","","","","","","","","","","","","","","",""
"true","","","","","fullscreen","2","25922","0.0-2.0","AFFXVHHBUWW4D","2022-05-19T07:54:19.658Z","rhyme-same_different-phon_sim-task_switching","","","","","","","","","","","","","","","","","","","","","","","","","","","","","","","","","","","","","","","",""
"","","","","","instructions","3","33911","0.0-3.0","AFFXVHHBUWW4D","2022-05-19T07:54:19.658Z","rhyme-same_different-phon_sim-task_switching","[{""page_index"":0,""viewing_time"":7987.70000000298}]","7987.9000000059605","rhyme","","","","","","","","","","","","","","","","","","","","","","","","","","","","","","","","","","","","",""
"","","","","","html-keyboard-response","4","34415","0.0-4.0-0.0","AFFXVHHBUWW4D","2022-05-19T07:54:19.658Z","rhyme-same_different-phon_sim-task_switching","","null","rhyme","<div style=""font-size:60px;"">+</div>","null","500","","","","","","","","","","","","","","","","","","","","","","","","","","","","","","","","","",""
"","","","","","html-keyboard-response","5","34919","0.0-4.0-1.0","AFFXVHHBUWW4D","2022-05-19T07:54:19.658Z","rhyme-same_different-phon_sim-task_switching","","null","rhyme","<img src=""square.png"" width=""306"" height=""306"" style=""position: fixed;left:14%;top:30%""><img src=""square.png"" width=""306"" height=""306"" style=""position: fixed;left:64%;top:30%"">","null","","","","","","","","","","","","","","","","","","","","","","","","","","","","","","","","","","",""
"","","","","","categorize-html","6","39947","0.0-4.0-2.0","AFFXVHHBUWW4D","2022-05-19T07:54:19.658Z","rhyme-same_different-phon_sim-task_switching","","4019.2000000029802","rhyme","<div style=""border: 3px solid #000000; position: fixed;left:14%;top:30%""><img src=""visual/dress.png"" width=""300""></div><div style=""border: 3px solid #000000; position: fixed;left:64%;top:30%""><img src=""visual/chess.png"" width=""300""></div>","arrowup","","true","training","visual/dress.png","visual/chess.png","ArrowUp","NA","","","","","","","","","","","","","","","","","","","","","","","","","","","",""
"","","","","","html-keyboard-response","7","40450","0.0-4.0-0.1","AFFXVHHBUWW4D","2022-05-19T07:54:19.658Z","rhyme-same_different-phon_sim-task_switching","","null","rhyme","<div style=""font-size:60px;"">+</div>","null","500","","","","","","","","","","","","","","","","","","","","","","","","","","","","","","","","","",""
"","","","","","html-keyboard-response","8","40960","0.0-4.0-1.1","AFFXVHHBUWW4D","2022-05-19T07:54:19.658Z","rhyme-same_different-phon_sim-task_switching","","null","rhyme","<img src=""square.png"" width=""306"" height=""306"" style=""position: fixed;left:14%;top:30%""><img src=""square.png"" width=""306"" height=""306"" style=""position: fixed;left:64%;top:30%"">","null","","","","","","","","","","","","","","","","","","","","","","","","","","","","","","","","","","",""
"","","","","","categorize-html","9","43670","0.0-4.0-2.1","AFFXVHHBUWW4D","2022-05-19T07:54:19.658Z","rhyme-same_different-phon_sim-task_switching","","1702.7999999970198","rhyme","<div style=""border: 3px solid #000000; position: fixed;left:14%;top:30%""><img src=""visual/house.png"" width=""300""></div><div style=""border: 3px solid #000000; position: fixed;left:64%;top:30%""><img src=""visual/mouse.png"" width=""300""></div>","arrowup","","true","training","visual/house.png","visual/mouse.png","ArrowUp","NA","","","","","","","","","","","","","","","","","","","","","","","","","","","",""
"","","","","","html-keyboard-response","10","44176","0.0-4.0-0.2","AFFXVHHBUWW4D","2022-05-19T07:54:19.658Z","rhyme-same_different-phon_sim-task_switching","","null","rhyme","<div style=""font-size:60px;"">+</div>","null","500","","","","","","","","","","","","","","","","","","","","","","","","","","","","","","","","","",""
"","","","","","html-keyboard-response","11","44678","0.0-4.0-1.2","AFFXVHHBUWW4D","2022-05-19T07:54:19.658Z","rhyme-same_different-phon_sim-task_switching","","null","rhyme","<img src=""square.png"" width=""306"" height=""306"" style=""position: fixed;left:14%;top:30%""><img src=""square.png"" width=""306"" height=""306"" style=""position: fixed;left:64%;top:30%"">","null","","","","","","","","","","","","","","","","","","","","","","","","","","","","","","","","","","",""
"","","","","","categorize-html","12","47124","0.0-4.0-2.2","AFFXVHHBUWW4D","2022-05-19T07:54:19.658Z","rhyme-same_different-phon_sim-task_switching","","1440.699999988079","rhyme","<div style=""border: 3px solid #000000; position: fixed;left:14%;top:30%""><img src=""visual/mouse.png"" width=""300""></div><div style=""border: 3px solid #000000; position: fixed;left:64%;top:30%""><img src=""visual/dress.png"" width=""300""></div>","arrowdown","","true","training","visual/mouse.png","visual/dress.png","ArrowDown","NA","","","","","","","","","","","","","","","","","","","","","","","","","","","",""
"","","","","","html-keyboard-response","13","47877","0.0-4.0-0.3","AFFXVHHBUWW4D","2022-05-19T07:54:19.658Z","rhyme-same_different-phon_sim-task_switching","","null","rhyme","<div style=""font-size:60px;"">+</div>","null","750","","","","","","","","","","","","","","","","","","","","","","","","","","","","","","","","","",""
"","","","","","html-keyboard-response","14","48380","0.0-4.0-1.3","AFFXVHHBUWW4D","2022-05-19T07:54:19.658Z","rhyme-same_different-phon_sim-task_switching","","null","rhyme","<img src=""square.png"" width=""306"" height=""306"" style=""position: fixed;left:14%;top:30%""><img src=""square.png"" width=""306"" height=""306"" style=""position: fixed;left:64%;top:30%"">","null","","","","","","","","","","","","","","","","","","","","","","","","","","","","","","","","","","",""
"","","","","","categorize-html","15","51861","0.0-4.0-2.3","AFFXVHHBUWW4D","2022-05-19T07:54:19.658Z","rhyme-same_different-phon_sim-task_switching","","2474","rhyme","<div style=""border: 3px solid #000000; position: fixed;left:14%;top:30%""><img src=""visual/chess.png"" width=""300""></div><div style=""border: 3px solid #000000; position: fixed;left:64%;top:30%""><img src=""visual/suit.png"" width=""300""></div>","arrowup","","false","training","visual/chess.png","visual/suit.png","ArrowDown","NA","","","","","","","","","","","","","","","","","","","","","","","","","","","",""
"","","","","","instructions","16","55512","0.0-5.0","AFFXVHHBUWW4D","2022-05-19T07:54:19.658Z","rhyme-same_different-phon_sim-task_switching","[{""page_index"":0,""viewing_time"":3649.4000000059605}]","3649.7999999970198","","","","","","","","","","","","","","","","","","","","","","","","","","","","","","","","","","","","","",""
"","","","","","html-keyboard-response","17","55764","0.0-6.0-0.0","AFFXVHHBUWW4D","2022-05-19T07:54:19.658Z","rhyme-same_different-phon_sim-task_switching","","null","rhyme","<div style=""font-size:60px;"">+</div>","null","250","","","","","","","","","","","","","","","","","","","","","","","","","","","","","","","","","",""
"","","","","","html-keyboard-response","18","56268","0.0-6.0-1.0","AFFXVHHBUWW4D","2022-05-19T07:54:19.658Z","rhyme-same_different-phon_sim-task_switching","","null","rhyme","<img src=""square.png"" width=""306"" height=""306"" style=""position: fixed;left:14%;top:30%""><img src=""square.png"" width=""306"" height=""306"" style=""position: fixed;left:64%;top:30%"">","null","","","","","","","","","","","","","","","","","","","","","","","","","","","","","","","","","","",""
"","","","","","html-keyboard-response","19","59513","0.0-6.0-2.0","AFFXVHHBUWW4D","2022-05-19T07:54:19.658Z","rhyme-same_different-phon_sim-task_switching","","3241.2999999970198","rhyme","<div style=""border: 3px solid #000000; position: fixed;left:14%;top:30%""><img src=""visual/screw.png"" width=""300""></div><div style=""border: 3px solid #000000; position: fixed;left:64%;top:30%""><img src=""visual/shoe.png"" width=""300""></div>","arrowdown","","false","experiment","visual/screw.png","visual/shoe.png","ArrowUp","non-ortho","","","","","","","","","","","","","","","","","","","","","","","","","","","",""
"","","","","","html-keyboard-response","20","59766","0.0-6.0-0.1","AFFXVHHBUWW4D","2022-05-19T07:54:19.658Z","rhyme-same_different-phon_sim-task_switching","","null","rhyme","<div style=""font-size:60px;"">+</div>","null","250","","","","","","","","","","","","","","","","","","","","","","","","","","","","","","","","","",""
"","","","","","html-keyboard-response","21","60273","0.0-6.0-1.1","AFFXVHHBUWW4D","2022-05-19T07:54:19.658Z","rhyme-same_different-phon_sim-task_switching","","null","rhyme","<img src=""square.png"" width=""306"" height=""306"" style=""position: fixed;left:14%;top:30%""><img src=""square.png"" width=""306"" height=""306"" style=""position: fixed;left:64%;top:30%"">","null","","","","","","","","","","","","","","","","","","","","","","","","","","","","","","","","","","",""
"","","","","","html-keyboard-response","22","63691","0.0-6.0-2.1","AFFXVHHBUWW4D","2022-05-19T07:54:19.658Z","rhyme-same_different-phon_sim-task_switching","","3415.199999988079","rhyme","<div style=""border: 3px solid #000000; position: fixed;left:14%;top:30%""><img src=""visual/bear.png"" width=""300""></div><div style=""border: 3px solid #000000; position: fixed;left:64%;top:30%""><img src=""visual/square_rhyme.png"" width=""300""></div>","arrowdown","","false","experiment","visual/bear.png","visual/square_rhyme.png","ArrowUp","non-ortho","","","","","","","","","","","","","","","","","","","","","","","","","","","",""
"","","","","","html-keyboard-response","23","64695","0.0-6.0-0.2","AFFXVHHBUWW4D","2022-05-19T07:54:19.658Z","rhyme-same_different-phon_sim-task_switching","","null","rhyme","<div style=""font-size:60px;"">+</div>","null","1000","","","","","","","","","","","","","","","","","","","","","","","","","","","","","","","","","",""
"","","","","","html-keyboard-response","24","65198","0.0-6.0-1.2","AFFXVHHBUWW4D","2022-05-19T07:54:19.658Z","rhyme-same_different-phon_sim-task_switching","","null","rhyme","<img src=""square.png"" width=""306"" height=""306"" style=""position: fixed;left:14%;top:30%""><img src=""square.png"" width=""306"" height=""306"" style=""position: fixed;left:64%;top:30%"">","null","","","","","","","","","","","","","","","","","","","","","","","","","","","","","","","","","","",""
"","","","","","html-keyboard-response","25","67723","0.0-6.0-2.2","AFFXVHHBUWW4D","2022-05-19T07:54:19.658Z","rhyme-same_different-phon_sim-task_switching","","2521.8999999910593","rhyme","<div style=""border: 3px solid #000000; position: fixed;left:14%;top:30%""><img src=""visual/socks.png"" width=""300""></div><div style=""border: 3px solid #000000; position: fixed;left:64%;top:30%""><img src=""visual/fox.png"" width=""300""></div>","arrowup","","true","experiment","visual/socks.png","visual/fox.png","ArrowUp","non-ortho","","","","","","","","","","","","","","","","","","","","","","","","","","","",""
"","","","","","html-keyboard-response","26","68225","0.0-6.0-0.3","AFFXVHHBUWW4D","2022-05-19T07:54:19.658Z","rhyme-same_different-phon_sim-task_switching","","null","rhyme","<div style=""font-size:60px;"">+</div>","null","500","","","","","","","","","","","","","","","","","","","","","","","","","","","","","","","","","",""
"","","","","","html-keyboard-response","27","68728","0.0-6.0-1.3","AFFXVHHBUWW4D","2022-05-19T07:54:19.658Z","rhyme-same_different-phon_sim-task_switching","","null","rhyme","<img src=""square.png"" width=""306"" height=""306"" style=""position: fixed;left:14%;top:30%""><img src=""square.png"" width=""306"" height=""306"" style=""position: fixed;left:64%;top:30%"">","null","","","","","","","","","","","","","","","","","","","","","","","","","","","","","","","","","","",""
"","","","","","html-keyboard-response","28","70972","0.0-6.0-2.3","AFFXVHHBUWW4D","2022-05-19T07:54:19.658Z","rhyme-same_different-phon_sim-task_switching","","2241.7000000029802","rhyme","<div style=""border: 3px solid #000000; position: fixed;left:14%;top:30%""><img src=""visual/king.png"" width=""300""></div><div style=""border: 3px solid #000000; position: fixed;left:64%;top:30%""><img src=""visual/ring.png"" width=""300""></div>","arrowdown","","false","experiment","visual/king.png","visual/ring.png","ArrowUp","ortho","","","","","","","","","","","","","","","","","","","","","","","","","","","",""
"","","","","","html-keyboard-response","29","71224","0.0-6.0-0.4","AFFXVHHBUWW4D","2022-05-19T07:54:19.658Z","rhyme-same_different-phon_sim-task_switching","","null","rhyme","<div style=""font-size:60px;"">+</div>","null","250","","","","","","","","","","","","","","","","","","","","","","","","","","","","","","","","","",""
"","","","","","html-keyboard-response","30","71726","0.0-6.0-1.4","AFFXVHHBUWW4D","2022-05-19T07:54:19.658Z","rhyme-same_different-phon_sim-task_switching","","null","rhyme","<img src=""square.png"" width=""306"" height=""306"" style=""position: fixed;left:14%;top:30%""><img src=""square.png"" width=""306"" height=""306"" style=""position: fixed;left:64%;top:30%"">","null","","","","","","","","","","","","","","","","","","","","","","","","","","","","","","","","","","",""
"","","","","","html-keyboard-response","31","74274","0.0-6.0-2.4","AFFXVHHBUWW4D","2022-05-19T07:54:19.658Z","rhyme-same_different-phon_sim-task_switching","","2544.2000000029802","rhyme","<div style=""border: 3px solid #000000; position: fixed;left:14%;top:30%""><img src=""visual/egg.png"" width=""300""></div><div style=""border: 3px solid #000000; position: fixed;left:64%;top:30%""><img src=""visual/leg.png"" width=""300""></div>","arrowup","","true","experiment","visual/egg.png","visual/leg.png","ArrowUp","ortho","","","","","","","","","","","","","","","","","","","","","","","","","","","",""
"","","","","","html-keyboard-response","32","74775","0.0-6.0-0.5","AFFXVHHBUWW4D","2022-05-19T07:54:19.658Z","rhyme-same_different-phon_sim-task_switching","","null","rhyme","<div style=""font-size:60px;"">+</div>","null","500","","","","","","","","","","","","","","","","","","","","","","","","","","","","","","","","","",""
"","","","","","html-keyboard-response","33","75277","0.0-6.0-1.5","AFFXVHHBUWW4D","2022-05-19T07:54:19.658Z","rhyme-same_different-phon_sim-task_switching","","null","rhyme","<img src=""square.png"" width=""306"" height=""306"" style=""position: fixed;left:14%;top:30%""><img src=""square.png"" width=""306"" height=""306"" style=""position: fixed;left:64%;top:30%"">","null","","","","","","","","","","","","","","","","","","","","","","","","","","","","","","","","","","",""
"","","","","","html-keyboard-response","34","80280","0.0-6.0-2.5","AFFXVHHBUWW4D","2022-05-19T07:54:19.658Z","rhyme-same_different-phon_sim-task_switching","","null","rhyme","<div style=""border: 3px solid #000000; position: fixed;left:14%;top:30%""><img src=""visual/plane.png"" width=""300""></div><div style=""border: 3px solid #000000; position: fixed;left:64%;top:30%""><img src=""visual/train.png"" width=""300""></div>","null","","false","experiment","visual/plane.png","visual/train.png","ArrowUp","non-ortho","","","","","","","","","","","","","","","","","","","","","","","","","","","",""
"","","","","","html-keyboard-response","35","80781","0.0-6.0-0.6","AFFXVHHBUWW4D","2022-05-19T07:54:19.658Z","rhyme-same_different-phon_sim-task_switching","","null","rhyme","<div style=""font-size:60px;"">+</div>","null","500","","","","","","","","","","","","","","","","","","","","","","","","","","","","","","","","","",""
"","","","","","html-keyboard-response","36","81284","0.0-6.0-1.6","AFFXVHHBUWW4D","2022-05-19T07:54:19.658Z","rhyme-same_different-phon_sim-task_switching","","null","rhyme","<img src=""square.png"" width=""306"" height=""306"" style=""position: fixed;left:14%;top:30%""><img src=""square.png"" width=""306"" height=""306"" style=""position: fixed;left:64%;top:30%"">","null","","","","","","","","","","","","","","","","","","","","","","","","","","","","","","","","","","",""
"","","","","","html-keyboard-response","37","83371","0.0-6.0-2.6","AFFXVHHBUWW4D","2022-05-19T07:54:19.658Z","rhyme-same_different-phon_sim-task_switching","","2084.5999999940395","rhyme","<div style=""border: 3px solid #000000; position: fixed;left:14%;top:30%""><img src=""visual/egg.png"" width=""300""></div><div style=""border: 3px solid #000000; position: fixed;left:64%;top:30%""><img src=""visual/ring.png"" width=""300""></div>","arrowdown","","true","experiment","visual/egg.png","visual/ring.png","ArrowDown","NR","","","","","","","","","","","","","","","","","","","","","","","","","","","",""
"","","","","","html-keyboard-response","38","83623","0.0-6.0-0.7","AFFXVHHBUWW4D","2022-05-19T07:54:19.658Z","rhyme-same_different-phon_sim-task_switching","","null","rhyme","<div style=""font-size:60px;"">+</div>","null","250","","","","","","","","","","","","","","","","","","","","","","","","","","","","","","","","","",""
"","","","","","html-keyboard-response","39","84126","0.0-6.0-1.7","AFFXVHHBUWW4D","2022-05-19T07:54:19.658Z","rhyme-same_different-phon_sim-task_switching","","null","rhyme","<img src=""square.png"" width=""306"" height=""306"" style=""position: fixed;left:14%;top:30%""><img src=""square.png"" width=""306"" height=""306"" style=""position: fixed;left:64%;top:30%"">","null","","","","","","","","","","","","","","","","","","","","","","","","","","","","","","","","","","",""
"","","","","","html-keyboard-response","40","86617","0.0-6.0-2.7","AFFXVHHBUWW4D","2022-05-19T07:54:19.658Z","rhyme-same_different-phon_sim-task_switching","","2484.9000000059605","rhyme","<div style=""border: 3px solid #000000; position: fixed;left:14%;top:30%""><img src=""visual/well.png"" width=""300""></div><div style=""border: 3px solid #000000; position: fixed;left:64%;top:30%""><img src=""visual/rose.png"" width=""300""></div>","arrowdown","","true","experiment","visual/well.png","visual/rose.png","ArrowDown","NR","","","","","","","","","","","","","","","","","","","","","","","","","","","",""
"","","","","","html-keyboard-response","41","87119","0.0-6.0-0.8","AFFXVHHBUWW4D","2022-05-19T07:54:19.658Z","rhyme-same_different-phon_sim-task_switching","","null","rhyme","<div style=""font-size:60px;"">+</div>","null","500","","","","","","","","","","","","","","","","","","","","","","","","","","","","","","","","","",""
"","","","","","html-keyboard-response","42","87624","0.0-6.0-1.8","AFFXVHHBUWW4D","2022-05-19T07:54:19.658Z","rhyme-same_different-phon_sim-task_switching","","null","rhyme","<img src=""square.png"" width=""306"" height=""306"" style=""position: fixed;left:14%;top:30%""><img src=""square.png"" width=""306"" height=""306"" style=""position: fixed;left:64%;top:30%"">","null","","","","","","","","","","","","","","","","","","","","","","","","","","","","","","","","","","",""
"","","","","","html-keyboard-response","43","90272","0.0-6.0-2.8","AFFXVHHBUWW4D","2022-05-19T07:54:19.658Z","rhyme-same_different-phon_sim-task_switching","","2645.0999999940395","rhyme","<div style=""border: 3px solid #000000; position: fixed;left:14%;top:30%""><img src=""visual/spoon.png"" width=""300""></div><div style=""border: 3px solid #000000; position: fixed;left:64%;top:30%""><img src=""visual/moon.png"" width=""300""></div>","arrowup","","true","experiment","visual/spoon.png","visual/moon.png","ArrowUp","ortho","","","","","","","","","","","","","","","","","","","","","","","","","","","",""
"","","","","","html-keyboard-response","44","91024","0.0-6.0-0.9","AFFXVHHBUWW4D","2022-05-19T07:54:19.658Z","rhyme-same_different-phon_sim-task_switching","","null","rhyme","<div style=""font-size:60px;"">+</div>","null","750","","","","","","","","","","","","","","","","","","","","","","","","","","","","","","","","","",""
"","","","","","html-keyboard-response","45","91527","0.0-6.0-1.9","AFFXVHHBUWW4D","2022-05-19T07:54:19.658Z","rhyme-same_different-phon_sim-task_switching","","null","rhyme","<img src=""square.png"" width=""306"" height=""306"" style=""position: fixed;left:14%;top:30%""><img src=""square.png"" width=""306"" height=""306"" style=""position: fixed;left:64%;top:30%"">","null","","","","","","","","","","","","","","","","","","","","","","","","","","","","","","","","","","",""
"","","","","","html-keyboard-response","46","93806","0.0-6.0-2.9","AFFXVHHBUWW4D","2022-05-19T07:54:19.658Z","rhyme-same_different-phon_sim-task_switching","","2275","rhyme","<div style=""border: 3px solid #000000; position: fixed;left:14%;top:30%""><img src=""visual/chain.png"" width=""300""></div><div style=""border: 3px solid #000000; position: fixed;left:64%;top:30%""><img src=""visual/brain.png"" width=""300""></div>","arrowup","","true","experiment","visual/chain.png","visual/brain.png","ArrowUp","ortho","","","","","","","","","","","","","","","","","","","","","","","","","","","",""
"","","","","","html-keyboard-response","47","94309","0.0-6.0-0.10","AFFXVHHBUWW4D","2022-05-19T07:54:19.658Z","rhyme-same_different-phon_sim-task_switching","","null","rhyme","<div style=""font-size:60px;"">+</div>","null","500","","","","","","","","","","","","","","","","","","","","","","","","","","","","","","","","","",""
"","","","","","html-keyboard-response","48","94814","0.0-6.0-1.10","AFFXVHHBUWW4D","2022-05-19T07:54:19.658Z","rhyme-same_different-phon_sim-task_switching","","null","rhyme","<img src=""square.png"" width=""306"" height=""306"" style=""position: fixed;left:14%;top:30%""><img src=""square.png"" width=""306"" height=""306"" style=""position: fixed;left:64%;top:30%"">","null","","","","","","","","","","","","","","","","","","","","","","","","","","","","","","","","","","",""
"","","","","","html-keyboard-response","49","97603","0.0-6.0-2.10","AFFXVHHBUWW4D","2022-05-19T07:54:19.658Z","rhyme-same_different-phon_sim-task_switching","","2787.2000000029802","rhyme","<div style=""border: 3px solid #000000; position: fixed;left:14%;top:30%""><img src=""visual/bear.png"" width=""300""></div><div style=""border: 3px solid #000000; position: fixed;left:64%;top:30%""><img src=""visual/hair.png"" width=""300""></div>","arrowdown","","false","experiment","visual/bear.png","visual/hair.png","ArrowUp","non-ortho","","","","","","","","","","","","","","","","","","","","","","","","","","","",""
"","","","","","html-keyboard-response","50","97854","0.0-6.0-0.11","AFFXVHHBUWW4D","2022-05-19T07:54:19.658Z","rhyme-same_different-phon_sim-task_switching","","null","rhyme","<div style=""font-size:60px;"">+</div>","null","250","","","","","","","","","","","","","","","","","","","","","","","","","","","","","","","","","",""
"","","","","","html-keyboard-response","51","98357","0.0-6.0-1.11","AFFXVHHBUWW4D","2022-05-19T07:54:19.658Z","rhyme-same_different-phon_sim-task_switching","","null","rhyme","<img src=""square.png"" width=""306"" height=""306"" style=""position: fixed;left:14%;top:30%""><img src=""square.png"" width=""306"" height=""306"" style=""position: fixed;left:64%;top:30%"">","null","","","","","","","","","","","","","","","","","","","","","","","","","","","","","","","","","","",""
"","","","","","html-keyboard-response","52","100597","0.0-6.0-2.11","AFFXVHHBUWW4D","2022-05-19T07:54:19.658Z","rhyme-same_different-phon_sim-task_switching","","2237.0999999940395","rhyme","<div style=""border: 3px solid #000000; position: fixed;left:14%;top:30%""><img src=""visual/snail.png"" width=""300""></div><div style=""border: 3px solid #000000; position: fixed;left:64%;top:30%""><img src=""visual/whale.png"" width=""300""></div>","arrowup","","true","experiment","visual/snail.png","visual/whale.png","ArrowUp","non-ortho","","","","","","","","","","","","","","","","","","","","","","","","","","","",""
"","","","","","html-keyboard-response","53","101098","0.0-6.0-0.12","AFFXVHHBUWW4D","2022-05-19T07:54:19.658Z","rhyme-same_different-phon_sim-task_switching","","null","rhyme","<div style=""font-size:60px;"">+</div>","null","500","","","","","","","","","","","","","","","","","","","","","","","","","","","","","","","","","",""
"","","","","","html-keyboard-response","54","101601","0.0-6.0-1.12","AFFXVHHBUWW4D","2022-05-19T07:54:19.658Z","rhyme-same_different-phon_sim-task_switching","","null","rhyme","<img src=""square.png"" width=""306"" height=""306"" style=""position: fixed;left:14%;top:30%""><img src=""square.png"" width=""306"" height=""306"" style=""position: fixed;left:64%;top:30%"">","null","","","","","","","","","","","","","","","","","","","","","","","","","","","","","","","","","","",""
"","","","","","html-keyboard-response","55","103519","0.0-6.0-2.12","AFFXVHHBUWW4D","2022-05-19T07:54:19.658Z","rhyme-same_different-phon_sim-task_switching","","1914.2000000029802","rhyme","<div style=""border: 3px solid #000000; position: fixed;left:14%;top:30%""><img src=""visual/eye.png"" width=""300""></div><div style=""border: 3px solid #000000; position: fixed;left:64%;top:30%""><img src=""visual/tie.png"" width=""300""></div>","arrowup","","true","experiment","visual/eye.png","visual/tie.png","ArrowUp","non-ortho","","","","","","","","","","","","","","","","","","","","","","","","","","","",""
"","","","","","html-keyboard-response","56","104522","0.0-6.0-0.13","AFFXVHHBUWW4D","2022-05-19T07:54:19.658Z","rhyme-same_different-phon_sim-task_switching","","null","rhyme","<div style=""font-size:60px;"">+</div>","null","1000","","","","","","","","","","","","","","","","","","","","","","","","","","","","","","","","","",""
"","","","","","html-keyboard-response","57","105025","0.0-6.0-1.13","AFFXVHHBUWW4D","2022-05-19T07:54:19.658Z","rhyme-same_different-phon_sim-task_switching","","null","rhyme","<img src=""square.png"" width=""306"" height=""306"" style=""position: fixed;left:14%;top:30%""><img src=""square.png"" width=""306"" height=""306"" style=""position: fixed;left:64%;top:30%"">","null","","","","","","","","","","","","","","","","","","","","","","","","","","","","","","","","","","",""
"","","","","","html-keyboard-response","58","108950","0.0-6.0-2.13","AFFXVHHBUWW4D","2022-05-19T07:54:19.658Z","rhyme-same_different-phon_sim-task_switching","","3920.8999999910593","rhyme","<div style=""border: 3px solid #000000; position: fixed;left:14%;top:30%""><img src=""visual/pope.png"" width=""300""></div><div style=""border: 3px solid #000000; position: fixed;left:64%;top:30%""><img src=""visual/soap.png"" width=""300""></div>","arrowdown","","false","experiment","visual/pope.png","visual/soap.png","ArrowUp","non-ortho","","","","","","","","","","","","","","","","","","","","","","","","","","","",""
"","","","","","html-keyboard-response","59","109451","0.0-6.0-0.14","AFFXVHHBUWW4D","2022-05-19T07:54:19.658Z","rhyme-same_different-phon_sim-task_switching","","null","rhyme","<div style=""font-size:60px;"">+</div>","null","500","","","","","","","","","","","","","","","","","","","","","","","","","","","","","","","","","",""
"","","","","","html-keyboard-response","60","109954","0.0-6.0-1.14","AFFXVHHBUWW4D","2022-05-19T07:54:19.658Z","rhyme-same_different-phon_sim-task_switching","","null","rhyme","<img src=""square.png"" width=""306"" height=""306"" style=""position: fixed;left:14%;top:30%""><img src=""square.png"" width=""306"" height=""306"" style=""position: fixed;left:64%;top:30%"">","null","","","","","","","","","","","","","","","","","","","","","","","","","","","","","","","","","","",""
"","","","","","html-keyboard-response","61","112953","0.0-6.0-2.14","AFFXVHHBUWW4D","2022-05-19T07:54:19.658Z","rhyme-same_different-phon_sim-task_switching","","2994.4000000059605","rhyme","<div style=""border: 3px solid #000000; position: fixed;left:14%;top:30%""><img src=""visual/train.png"" width=""300""></div><div style=""border: 3px solid #000000; position: fixed;left:64%;top:30%""><img src=""visual/screw.png"" width=""300""></div>","arrowdown","","true","experiment","visual/train.png","visual/screw.png","ArrowDown","NR","","","","","","","","","","","","","","","","","","","","","","","","","","","",""
"","","","","","html-keyboard-response","62","113456","0.0-6.0-0.15","AFFXVHHBUWW4D","2022-05-19T07:54:19.658Z","rhyme-same_different-phon_sim-task_switching","","null","rhyme","<div style=""font-size:60px;"">+</div>","null","500","","","","","","","","","","","","","","","","","","","","","","","","","","","","","","","","","",""
"","","","","","html-keyboard-response","63","113960","0.0-6.0-1.15","AFFXVHHBUWW4D","2022-05-19T07:54:19.658Z","rhyme-same_different-phon_sim-task_switching","","null","rhyme","<img src=""square.png"" width=""306"" height=""306"" style=""position: fixed;left:14%;top:30%""><img src=""square.png"" width=""306"" height=""306"" style=""position: fixed;left:64%;top:30%"">","null","","","","","","","","","","","","","","","","","","","","","","","","","","","","","","","","","","",""
"","","","","","html-keyboard-response","64","117752","0.0-6.0-2.15","AFFXVHHBUWW4D","2022-05-19T07:54:19.658Z","rhyme-same_different-phon_sim-task_switching","","3787.0999999940395","rhyme","<div style=""border: 3px solid #000000; position: fixed;left:14%;top:30%""><img src=""visual/deer.png"" width=""300""></div><div style=""border: 3px solid #000000; position: fixed;left:64%;top:30%""><img src=""visual/beer.png"" width=""300""></div>","arrowdown","","false","experiment","visual/deer.png","visual/beer.png","ArrowUp","ortho","","","","","","","","","","","","","","","","","","","","","","","","","","","",""
"","","","","","html-keyboard-response","65","118004","0.0-6.0-0.16","AFFXVHHBUWW4D","2022-05-19T07:54:19.658Z","rhyme-same_different-phon_sim-task_switching","","null","rhyme","<div style=""font-size:60px;"">+</div>","null","250","","","","","","","","","","","","","","","","","","","","","","","","","","","","","","","","","",""
"","","","","","html-keyboard-response","66","118507","0.0-6.0-1.16","AFFXVHHBUWW4D","2022-05-19T07:54:19.658Z","rhyme-same_different-phon_sim-task_switching","","null","rhyme","<img src=""square.png"" width=""306"" height=""306"" style=""position: fixed;left:14%;top:30%""><img src=""square.png"" width=""306"" height=""306"" style=""position: fixed;left:64%;top:30%"">","null","","","","","","","","","","","","","","","","","","","","","","","","","","","","","","","","","","",""
"","","","","","html-keyboard-response","67","120711","0.0-6.0-2.16","AFFXVHHBUWW4D","2022-05-19T07:54:19.658Z","rhyme-same_different-phon_sim-task_switching","","2200.5","rhyme","<div style=""border: 3px solid #000000; position: fixed;left:14%;top:30%""><img src=""visual/key.png"" width=""300""></div><div style=""border: 3px solid #000000; position: fixed;left:64%;top:30%""><img src=""visual/tree.png"" width=""300""></div>","arrowup","","true","experiment","visual/key.png","visual/tree.png","ArrowUp","non-ortho","","","","","","","","","","","","","","","","","","","","","","","","","","","",""
"","","","","","html-keyboard-response","68","121463","0.0-6.0-0.17","AFFXVHHBUWW4D","2022-05-19T07:54:19.658Z","rhyme-same_different-phon_sim-task_switching","","null","rhyme","<div style=""font-size:60px;"">+</div>","null","750","","","","","","","","","","","","","","","","","","","","","","","","","","","","","","","","","",""
"","","","","","html-keyboard-response","69","121966","0.0-6.0-1.17","AFFXVHHBUWW4D","2022-05-19T07:54:19.658Z","rhyme-same_different-phon_sim-task_switching","","null","rhyme","<img src=""square.png"" width=""306"" height=""306"" style=""position: fixed;left:14%;top:30%""><img src=""square.png"" width=""306"" height=""306"" style=""position: fixed;left:64%;top:30%"">","null","","","","","","","","","","","","","","","","","","","","","","","","","","","","","","","","","","",""
"","","","","","html-keyboard-response","70","124802","0.0-6.0-2.17","AFFXVHHBUWW4D","2022-05-19T07:54:19.658Z","rhyme-same_different-phon_sim-task_switching","","2832","rhyme","<div style=""border: 3px solid #000000; position: fixed;left:14%;top:30%""><img src=""visual/wave.png"" width=""300""></div><div style=""border: 3px solid #000000; position: fixed;left:64%;top:30%""><img src=""visual/cave.png"" width=""300""></div>","arrowdown","","false","experiment","visual/wave.png","visual/cave.png","ArrowUp","ortho","","","","","","","","","","","","","","","","","","","","","","","","","","","",""
"","","","","","html-keyboard-response","71","125553","0.0-6.0-0.18","AFFXVHHBUWW4D","2022-05-19T07:54:19.658Z","rhyme-same_different-phon_sim-task_switching","","null","rhyme","<div style=""font-size:60px;"">+</div>","null","750","","","","","","","","","","","","","","","","","","","","","","","","","","","","","","","","","",""
"","","","","","html-keyboard-response","72","126057","0.0-6.0-1.18","AFFXVHHBUWW4D","2022-05-19T07:54:19.658Z","rhyme-same_different-phon_sim-task_switching","","null","rhyme","<img src=""square.png"" width=""306"" height=""306"" style=""position: fixed;left:14%;top:30%""><img src=""square.png"" width=""306"" height=""306"" style=""position: fixed;left:64%;top:30%"">","null","","","","","","","","","","","","","","","","","","","","","","","","","","","","","","","","","","",""
"","","","","","html-keyboard-response","73","128192","0.0-6.0-2.18","AFFXVHHBUWW4D","2022-05-19T07:54:19.658Z","rhyme-same_different-phon_sim-task_switching","","2128.0999999940395","rhyme","<div style=""border: 3px solid #000000; position: fixed;left:14%;top:30%""><img src=""visual/cat.png"" width=""300""></div><div style=""border: 3px solid #000000; position: fixed;left:64%;top:30%""><img src=""visual/hat.png"" width=""300""></div>","arrowup","","true","experiment","visual/cat.png","visual/hat.png","ArrowUp","ortho","","","","","","","","","","","","","","","","","","","","","","","","","","","",""
"","","","","","html-keyboard-response","74","128695","0.0-6.0-0.19","AFFXVHHBUWW4D","2022-05-19T07:54:19.658Z","rhyme-same_different-phon_sim-task_switching","","null","rhyme","<div style=""font-size:60px;"">+</div>","null","500","","","","","","","","","","","","","","","","","","","","","","","","","","","","","","","","","",""
"","","","","","html-keyboard-response","75","129197","0.0-6.0-1.19","AFFXVHHBUWW4D","2022-05-19T07:54:19.658Z","rhyme-same_different-phon_sim-task_switching","","null","rhyme","<img src=""square.png"" width=""306"" height=""306"" style=""position: fixed;left:14%;top:30%""><img src=""square.png"" width=""306"" height=""306"" style=""position: fixed;left:64%;top:30%"">","null","","","","","","","","","","","","","","","","","","","","","","","","","","","","","","","","","","",""
"","","","","","html-keyboard-response","76","131448","0.0-6.0-2.19","AFFXVHHBUWW4D","2022-05-19T07:54:19.658Z","rhyme-same_different-phon_sim-task_switching","","2249.0999999940395","rhyme","<div style=""border: 3px solid #000000; position: fixed;left:14%;top:30%""><img src=""visual/fan.png"" width=""300""></div><div style=""border: 3px solid #000000; position: fixed;left:64%;top:30%""><img src=""visual/man.png"" width=""300""></div>","arrowdown","","false","experiment","visual/fan.png","visual/man.png","ArrowUp","ortho","","","","","","","","","","","","","","","","","","","","","","","","","","","",""
"","","","","","html-keyboard-response","77","132200","0.0-6.0-0.20","AFFXVHHBUWW4D","2022-05-19T07:54:19.658Z","rhyme-same_different-phon_sim-task_switching","","null","rhyme","<div style=""font-size:60px;"">+</div>","null","750","","","","","","","","","","","","","","","","","","","","","","","","","","","","","","","","","",""
"","","","","","html-keyboard-response","78","132703","0.0-6.0-1.20","AFFXVHHBUWW4D","2022-05-19T07:54:19.658Z","rhyme-same_different-phon_sim-task_switching","","null","rhyme","<img src=""square.png"" width=""306"" height=""306"" style=""position: fixed;left:14%;top:30%""><img src=""square.png"" width=""306"" height=""306"" style=""position: fixed;left:64%;top:30%"">","null","","","","","","","","","","","","","","","","","","","","","","","","","","","","","","","","","","",""
"","","","","","html-keyboard-response","79","134641","0.0-6.0-2.20","AFFXVHHBUWW4D","2022-05-19T07:54:19.658Z","rhyme-same_different-phon_sim-task_switching","","1935.5999999940395","rhyme","<div style=""border: 3px solid #000000; position: fixed;left:14%;top:30%""><img src=""visual/shark.png"" width=""300""></div><div style=""border: 3px solid #000000; position: fixed;left:64%;top:30%""><img src=""visual/moon.png"" width=""300""></div>","arrowdown","","true","experiment","visual/shark.png","visual/moon.png","ArrowDown","NR","","","","","","","","","","","","","","","","","","","","","","","","","","","",""
"","","","","","html-keyboard-response","80","135143","0.0-6.0-0.21","AFFXVHHBUWW4D","2022-05-19T07:54:19.658Z","rhyme-same_different-phon_sim-task_switching","","null","rhyme","<div style=""font-size:60px;"">+</div>","null","500","","","","","","","","","","","","","","","","","","","","","","","","","","","","","","","","","",""
"","","","","","html-keyboard-response","81","135647","0.0-6.0-1.21","AFFXVHHBUWW4D","2022-05-19T07:54:19.658Z","rhyme-same_different-phon_sim-task_switching","","null","rhyme","<img src=""square.png"" width=""306"" height=""306"" style=""position: fixed;left:14%;top:30%""><img src=""square.png"" width=""306"" height=""306"" style=""position: fixed;left:64%;top:30%"">","null","","","","","","","","","","","","","","","","","","","","","","","","","","","","","","","","","","",""
"","","","","","html-keyboard-response","82","138029","0.0-6.0-2.21","AFFXVHHBUWW4D","2022-05-19T07:54:19.658Z","rhyme-same_different-phon_sim-task_switching","","2378","rhyme","<div style=""border: 3px solid #000000; position: fixed;left:14%;top:30%""><img src=""visual/sock.png"" width=""300""></div><div style=""border: 3px solid #000000; position: fixed;left:64%;top:30%""><img src=""visual/clock.png"" width=""300""></div>","arrowup","","true","experiment","visual/sock.png","visual/clock.png","ArrowUp","ortho","","","","","","","","","","","","","","","","","","","","","","","","","","","",""
"","","","","","html-keyboard-response","83","139031","0.0-6.0-0.22","AFFXVHHBUWW4D","2022-05-19T07:54:19.658Z","rhyme-same_different-phon_sim-task_switching","","null","rhyme","<div style=""font-size:60px;"">+</div>","null","1000","","","","","","","","","","","","","","","","","","","","","","","","","","","","","","","","","",""
"","","","","","html-keyboard-response","84","139534","0.0-6.0-1.22","AFFXVHHBUWW4D","2022-05-19T07:54:19.658Z","rhyme-same_different-phon_sim-task_switching","","null","rhyme","<img src=""square.png"" width=""306"" height=""306"" style=""position: fixed;left:14%;top:30%""><img src=""square.png"" width=""306"" height=""306"" style=""position: fixed;left:64%;top:30%"">","null","","","","","","","","","","","","","","","","","","","","","","","","","","","","","","","","","","",""
"","","","","","html-keyboard-response","85","141353","0.0-6.0-2.22","AFFXVHHBUWW4D","2022-05-19T07:54:19.658Z","rhyme-same_different-phon_sim-task_switching","","1815.8999999910593","rhyme","<div style=""border: 3px solid #000000; position: fixed;left:14%;top:30%""><img src=""visual/key.png"" width=""300""></div><div style=""border: 3px solid #000000; position: fixed;left:64%;top:30%""><img src=""visual/snail.png"" width=""300""></div>","arrowdown","","true","experiment","visual/key.png","visual/snail.png","ArrowDown","NR","","","","","","","","","","","","","","","","","","","","","","","","","","","",""
"","","","","","html-keyboard-response","86","142355","0.0-6.0-0.23","AFFXVHHBUWW4D","2022-05-19T07:54:19.658Z","rhyme-same_different-phon_sim-task_switching","","null","rhyme","<div style=""font-size:60px;"">+</div>","null","1000","","","","","","","","","","","","","","","","","","","","","","","","","","","","","","","","","",""
"","","","","","html-keyboard-response","87","142858","0.0-6.0-1.23","AFFXVHHBUWW4D","2022-05-19T07:54:19.658Z","rhyme-same_different-phon_sim-task_switching","","null","rhyme","<img src=""square.png"" width=""306"" height=""306"" style=""position: fixed;left:14%;top:30%""><img src=""square.png"" width=""306"" height=""306"" style=""position: fixed;left:64%;top:30%"">","null","","","","","","","","","","","","","","","","","","","","","","","","","","","","","","","","","","",""
"","","","","","html-keyboard-response","88","145773","0.0-6.0-2.23","AFFXVHHBUWW4D","2022-05-19T07:54:19.658Z","rhyme-same_different-phon_sim-task_switching","","2910.2999999970198","rhyme","<div style=""border: 3px solid #000000; position: fixed;left:14%;top:30%""><img src=""visual/saw.png"" width=""300""></div><div style=""border: 3px solid #000000; position: fixed;left:64%;top:30%""><img src=""visual/claw.png"" width=""300""></div>","arrowup","","true","experiment","visual/saw.png","visual/claw.png","ArrowUp","ortho","","","","","","","","","","","","","","","","","","","","","","","","","","","",""
"","","","","","html-keyboard-response","89","146775","0.0-6.0-0.24","AFFXVHHBUWW4D","2022-05-19T07:54:19.658Z","rhyme-same_different-phon_sim-task_switching","","null","rhyme","<div style=""font-size:60px;"">+</div>","null","1000","","","","","","","","","","","","","","","","","","","","","","","","","","","","","","","","","",""
"","","","","","html-keyboard-response","90","147278","0.0-6.0-1.24","AFFXVHHBUWW4D","2022-05-19T07:54:19.658Z","rhyme-same_different-phon_sim-task_switching","","null","rhyme","<img src=""square.png"" width=""306"" height=""306"" style=""position: fixed;left:14%;top:30%""><img src=""square.png"" width=""306"" height=""306"" style=""position: fixed;left:64%;top:30%"">","null","","","","","","","","","","","","","","","","","","","","","","","","","","","","","","","","","","",""
"","","","","","html-keyboard-response","91","150277","0.0-6.0-2.24","AFFXVHHBUWW4D","2022-05-19T07:54:19.658Z","rhyme-same_different-phon_sim-task_switching","","2997.4000000059605","rhyme","<div style=""border: 3px solid #000000; position: fixed;left:14%;top:30%""><img src=""visual/tree.png"" width=""300""></div><div style=""border: 3px solid #000000; position: fixed;left:64%;top:30%""><img src=""visual/door.png"" width=""300""></div>","arrowdown","","true","experiment","visual/tree.png","visual/door.png","ArrowDown","NR","","","","","","","","","","","","","","","","","","","","","","","","","","","",""
"","","","","","html-keyboard-response","92","150528","0.0-6.0-0.25","AFFXVHHBUWW4D","2022-05-19T07:54:19.658Z","rhyme-same_different-phon_sim-task_switching","","null","rhyme","<div style=""font-size:60px;"">+</div>","null","250","","","","","","","","","","","","","","","","","","","","","","","","","","","","","","","","","",""
"","","","","","html-keyboard-response","93","151032","0.0-6.0-1.25","AFFXVHHBUWW4D","2022-05-19T07:54:19.658Z","rhyme-same_different-phon_sim-task_switching","","null","rhyme","<img src=""square.png"" width=""306"" height=""306"" style=""position: fixed;left:14%;top:30%""><img src=""square.png"" width=""306"" height=""306"" style=""position: fixed;left:64%;top:30%"">","null","","","","","","","","","","","","","","","","","","","","","","","","","","","","","","","","","","",""
"","","","","","html-keyboard-response","94","155947","0.0-6.0-2.25","AFFXVHHBUWW4D","2022-05-19T07:54:19.658Z","rhyme-same_different-phon_sim-task_switching","","4911.4000000059605","rhyme","<div style=""border: 3px solid #000000; position: fixed;left:14%;top:30%""><img src=""visual/cat.png"" width=""300""></div><div style=""border: 3px solid #000000; position: fixed;left:64%;top:30%""><img src=""visual/sock.png"" width=""300""></div>","arrowdown","","true","experiment","visual/cat.png","visual/sock.png","ArrowDown","NR","","","","","","","","","","","","","","","","","","","","","","","","","","","",""
"","","","","","html-keyboard-response","95","156201","0.0-6.0-0.26","AFFXVHHBUWW4D","2022-05-19T07:54:19.658Z","rhyme-same_different-phon_sim-task_switching","","null","rhyme","<div style=""font-size:60px;"">+</div>","null","250","","","","","","","","","","","","","","","","","","","","","","","","","","","","","","","","","",""
"","","","","","html-keyboard-response","96","156703","0.0-6.0-1.26","AFFXVHHBUWW4D","2022-05-19T07:54:19.658Z","rhyme-same_different-phon_sim-task_switching","","null","rhyme","<img src=""square.png"" width=""306"" height=""306"" style=""position: fixed;left:14%;top:30%""><img src=""square.png"" width=""306"" height=""306"" style=""position: fixed;left:64%;top:30%"">","null","","","","","","","","","","","","","","","","","","","","","","","","","","","","","","","","","","",""
"","","","","","html-keyboard-response","97","159960","0.0-6.0-2.26","AFFXVHHBUWW4D","2022-05-19T07:54:19.658Z","rhyme-same_different-phon_sim-task_switching","","3253","rhyme","<div style=""border: 3px solid #000000; position: fixed;left:14%;top:30%""><img src=""visual/king.png"" width=""300""></div><div style=""border: 3px solid #000000; position: fixed;left:64%;top:30%""><img src=""visual/cab.png"" width=""300""></div>","arrowdown","","true","experiment","visual/king.png","visual/cab.png","ArrowDown","NR","","","","","","","","","","","","","","","","","","","","","","","","","","","",""
"","","","","","html-keyboard-response","98","160962","0.0-6.0-0.27","AFFXVHHBUWW4D","2022-05-19T07:54:19.658Z","rhyme-same_different-phon_sim-task_switching","","null","rhyme","<div style=""font-size:60px;"">+</div>","null","1000","","","","","","","","","","","","","","","","","","","","","","","","","","","","","","","","","",""
"","","","","","html-keyboard-response","99","161466","0.0-6.0-1.27","AFFXVHHBUWW4D","2022-05-19T07:54:19.658Z","rhyme-same_different-phon_sim-task_switching","","null","rhyme","<img src=""square.png"" width=""306"" height=""306"" style=""position: fixed;left:14%;top:30%""><img src=""square.png"" width=""306"" height=""306"" style=""position: fixed;left:64%;top:30%"">","null","","","","","","","","","","","","","","","","","","","","","","","","","","","","","","","","","","",""
"","","","","","html-keyboard-response","100","165660","0.0-6.0-2.27","AFFXVHHBUWW4D","2022-05-19T07:54:19.658Z","rhyme-same_different-phon_sim-task_switching","","4189.70000000298","rhyme","<div style=""border: 3px solid #000000; position: fixed;left:14%;top:30%""><img src=""visual/tie.png"" width=""300""></div><div style=""border: 3px solid #000000; position: fixed;left:64%;top:30%""><img src=""visual/fly.png"" width=""300""></div>","arrowdown","","false","experiment","visual/tie.png","visual/fly.png","ArrowUp","non-ortho","","","","","","","","","","","","","","","","","","","","","","","","","","","",""
"","","","","","html-keyboard-response","101","166414","0.0-6.0-0.28","AFFXVHHBUWW4D","2022-05-19T07:54:19.658Z","rhyme-same_different-phon_sim-task_switching","","null","rhyme","<div style=""font-size:60px;"">+</div>","null","750","","","","","","","","","","","","","","","","","","","","","","","","","","","","","","","","","",""
"","","","","","html-keyboard-response","102","166916","0.0-6.0-1.28","AFFXVHHBUWW4D","2022-05-19T07:54:19.658Z","rhyme-same_different-phon_sim-task_switching","","null","rhyme","<img src=""square.png"" width=""306"" height=""306"" style=""position: fixed;left:14%;top:30%""><img src=""square.png"" width=""306"" height=""306"" style=""position: fixed;left:64%;top:30%"">","null","","","","","","","","","","","","","","","","","","","","","","","","","","","","","","","","","","",""
"","","","","","html-keyboard-response","103","169339","0.0-6.0-2.28","AFFXVHHBUWW4D","2022-05-19T07:54:19.658Z","rhyme-same_different-phon_sim-task_switching","","2421.0999999940395","rhyme","<div style=""border: 3px solid #000000; position: fixed;left:14%;top:30%""><img src=""visual/cab.png"" width=""300""></div><div style=""border: 3px solid #000000; position: fixed;left:64%;top:30%""><img src=""visual/crab.png"" width=""300""></div>","arrowup","","true","experiment","visual/cab.png","visual/crab.png","ArrowUp","ortho","","","","","","","","","","","","","","","","","","","","","","","","","","","",""
"","","","","","html-keyboard-response","104","169591","0.0-6.0-0.29","AFFXVHHBUWW4D","2022-05-19T07:54:19.658Z","rhyme-same_different-phon_sim-task_switching","","null","rhyme","<div style=""font-size:60px;"">+</div>","null","250","","","","","","","","","","","","","","","","","","","","","","","","","","","","","","","","","",""
"","","","","","html-keyboard-response","105","170094","0.0-6.0-1.29","AFFXVHHBUWW4D","2022-05-19T07:54:19.658Z","rhyme-same_different-phon_sim-task_switching","","null","rhyme","<img src=""square.png"" width=""306"" height=""306"" style=""position: fixed;left:14%;top:30%""><img src=""square.png"" width=""306"" height=""306"" style=""position: fixed;left:64%;top:30%"">","null","","","","","","","","","","","","","","","","","","","","","","","","","","","","","","","","","","",""
"","","","","","html-keyboard-response","106","173814","0.0-6.0-2.29","AFFXVHHBUWW4D","2022-05-19T07:54:19.658Z","rhyme-same_different-phon_sim-task_switching","","3716","rhyme","<div style=""border: 3px solid #000000; position: fixed;left:14%;top:30%""><img src=""visual/drawer.png"" width=""300""></div><div style=""border: 3px solid #000000; position: fixed;left:64%;top:30%""><img src=""visual/chair.png"" width=""300""></div>","arrowdown","","true","experiment","visual/drawer.png","visual/chair.png","ArrowDown","NR","","","","","","","","","","","","","","","","","","","","","","","","","","","",""
"","","","","","html-keyboard-response","107","174317","0.0-6.0-0.30","AFFXVHHBUWW4D","2022-05-19T07:54:19.658Z","rhyme-same_different-phon_sim-task_switching","","null","rhyme","<div style=""font-size:60px;"">+</div>","null","500","","","","","","","","","","","","","","","","","","","","","","","","","","","","","","","","","",""
"","","","","","html-keyboard-response","108","174820","0.0-6.0-1.30","AFFXVHHBUWW4D","2022-05-19T07:54:19.658Z","rhyme-same_different-phon_sim-task_switching","","null","rhyme","<img src=""square.png"" width=""306"" height=""306"" style=""position: fixed;left:14%;top:30%""><img src=""square.png"" width=""306"" height=""306"" style=""position: fixed;left:64%;top:30%"">","null","","","","","","","","","","","","","","","","","","","","","","","","","","","","","","","","","","",""
"","","","","","html-keyboard-response","109","178998","0.0-6.0-2.30","AFFXVHHBUWW4D","2022-05-19T07:54:19.658Z","rhyme-same_different-phon_sim-task_switching","","4173.399999991059","rhyme","<div style=""border: 3px solid #000000; position: fixed;left:14%;top:30%""><img src=""visual/nail.png"" width=""300""></div><div style=""border: 3px solid #000000; position: fixed;left:64%;top:30%""><img src=""visual/whale.png"" width=""300""></div>","arrowup","","true","experiment","visual/nail.png","visual/whale.png","ArrowUp","non-ortho","","","","","","","","","","","","","","","","","","","","","","","","","","","",""
"","","","","","html-keyboard-response","110","180000","0.0-6.0-0.31","AFFXVHHBUWW4D","2022-05-19T07:54:19.658Z","rhyme-same_different-phon_sim-task_switching","","null","rhyme","<div style=""font-size:60px;"">+</div>","null","1000","","","","","","","","","","","","","","","","","","","","","","","","","","","","","","","","","",""
"","","","","","html-keyboard-response","111","180503","0.0-6.0-1.31","AFFXVHHBUWW4D","2022-05-19T07:54:19.658Z","rhyme-same_different-phon_sim-task_switching","","null","rhyme","<img src=""square.png"" width=""306"" height=""306"" style=""position: fixed;left:14%;top:30%""><img src=""square.png"" width=""306"" height=""306"" style=""position: fixed;left:64%;top:30%"">","null","","","","","","","","","","","","","","","","","","","","","","","","","","","","","","","","","","",""
"","","","","","html-keyboard-response","112","183484","0.0-6.0-2.31","AFFXVHHBUWW4D","2022-05-19T07:54:19.658Z","rhyme-same_different-phon_sim-task_switching","","2976.4000000059605","rhyme","<div style=""border: 3px solid #000000; position: fixed;left:14%;top:30%""><img src=""visual/dart.png"" width=""300""></div><div style=""border: 3px solid #000000; position: fixed;left:64%;top:30%""><img src=""visual/tie.png"" width=""300""></div>","arrowdown","","true","experiment","visual/dart.png","visual/tie.png","ArrowDown","NR","","","","","","","","","","","","","","","","","","","","","","","","","","","",""
"","","","","","html-keyboard-response","113","184237","0.0-6.0-0.32","AFFXVHHBUWW4D","2022-05-19T07:54:19.658Z","rhyme-same_different-phon_sim-task_switching","","null","rhyme","<div style=""font-size:60px;"">+</div>","null","750","","","","","","","","","","","","","","","","","","","","","","","","","","","","","","","","","",""
"","","","","","html-keyboard-response","114","184739","0.0-6.0-1.32","AFFXVHHBUWW4D","2022-05-19T07:54:19.658Z","rhyme-same_different-phon_sim-task_switching","","null","rhyme","<img src=""square.png"" width=""306"" height=""306"" style=""position: fixed;left:14%;top:30%""><img src=""square.png"" width=""306"" height=""306"" style=""position: fixed;left:64%;top:30%"">","null","","","","","","","","","","","","","","","","","","","","","","","","","","","","","","","","","","",""
"","","","","","html-keyboard-response","115","187753","0.0-6.0-2.32","AFFXVHHBUWW4D","2022-05-19T07:54:19.658Z","rhyme-same_different-phon_sim-task_switching","","3010.2000000029802","rhyme","<div style=""border: 3px solid #000000; position: fixed;left:14%;top:30%""><img src=""visual/jar.png"" width=""300""></div><div style=""border: 3px solid #000000; position: fixed;left:64%;top:30%""><img src=""visual/whale.png"" width=""300""></div>","arrowdown","","true","experiment","visual/jar.png","visual/whale.png","ArrowDown","NR","","","","","","","","","","","","","","","","","","","","","","","","","","","",""
"","","","","","html-keyboard-response","116","188255","0.0-6.0-0.33","AFFXVHHBUWW4D","2022-05-19T07:54:19.658Z","rhyme-same_different-phon_sim-task_switching","","null","rhyme","<div style=""font-size:60px;"">+</div>","null","500","","","","","","","","","","","","","","","","","","","","","","","","","","","","","","","","","",""
"","","","","","html-keyboard-response","117","188758","0.0-6.0-1.33","AFFXVHHBUWW4D","2022-05-19T07:54:19.658Z","rhyme-same_different-phon_sim-task_switching","","null","rhyme","<img src=""square.png"" width=""306"" height=""306"" style=""position: fixed;left:14%;top:30%""><img src=""square.png"" width=""306"" height=""306"" style=""position: fixed;left:64%;top:30%"">","null","","","","","","","","","","","","","","","","","","","","","","","","","","","","","","","","","","",""
"","","","","","html-keyboard-response","118","190541","0.0-6.0-2.33","AFFXVHHBUWW4D","2022-05-19T07:54:19.658Z","rhyme-same_different-phon_sim-task_switching","","1778.5999999940395","rhyme","<div style=""border: 3px solid #000000; position: fixed;left:14%;top:30%""><img src=""visual/shark.png"" width=""300""></div><div style=""border: 3px solid #000000; position: fixed;left:64%;top:30%""><img src=""visual/park.png"" width=""300""></div>","arrowdown","","false","experiment","visual/shark.png","visual/park.png","ArrowUp","ortho","","","","","","","","","","","","","","","","","","","","","","","","","","","",""
"","","","","","html-keyboard-response","119","191543","0.0-6.0-0.34","AFFXVHHBUWW4D","2022-05-19T07:54:19.658Z","rhyme-same_different-phon_sim-task_switching","","null","rhyme","<div style=""font-size:60px;"">+</div>","null","1000","","","","","","","","","","","","","","","","","","","","","","","","","","","","","","","","","",""
"","","","","","html-keyboard-response","120","192047","0.0-6.0-1.34","AFFXVHHBUWW4D","2022-05-19T07:54:19.658Z","rhyme-same_different-phon_sim-task_switching","","null","rhyme","<img src=""square.png"" width=""306"" height=""306"" style=""position: fixed;left:14%;top:30%""><img src=""square.png"" width=""306"" height=""306"" style=""position: fixed;left:64%;top:30%"">","null","","","","","","","","","","","","","","","","","","","","","","","","","","","","","","","","","","",""
"","","","","","html-keyboard-response","121","194255","0.0-6.0-2.34","AFFXVHHBUWW4D","2022-05-19T07:54:19.658Z","rhyme-same_different-phon_sim-task_switching","","2204.5","rhyme","<div style=""border: 3px solid #000000; position: fixed;left:14%;top:30%""><img src=""visual/cake.png"" width=""300""></div><div style=""border: 3px solid #000000; position: fixed;left:64%;top:30%""><img src=""visual/rake.png"" width=""300""></div>","arrowdown","","false","experiment","visual/cake.png","visual/rake.png","ArrowUp","ortho","","","","","","","","","","","","","","","","","","","","","","","","","","","",""
"","","","","","html-keyboard-response","122","195257","0.0-6.0-0.35","AFFXVHHBUWW4D","2022-05-19T07:54:19.658Z","rhyme-same_different-phon_sim-task_switching","","null","rhyme","<div style=""font-size:60px;"">+</div>","null","1000","","","","","","","","","","","","","","","","","","","","","","","","","","","","","","","","","",""
"","","","","","html-keyboard-response","123","195759","0.0-6.0-1.35","AFFXVHHBUWW4D","2022-05-19T07:54:19.658Z","rhyme-same_different-phon_sim-task_switching","","null","rhyme","<img src=""square.png"" width=""306"" height=""306"" style=""position: fixed;left:14%;top:30%""><img src=""square.png"" width=""306"" height=""306"" style=""position: fixed;left:64%;top:30%"">","null","","","","","","","","","","","","","","","","","","","","","","","","","","","","","","","","","","",""
"","","","","","html-keyboard-response","124","198172","0.0-6.0-2.35","AFFXVHHBUWW4D","2022-05-19T07:54:19.658Z","rhyme-same_different-phon_sim-task_switching","","2409.1000000089407","rhyme","<div style=""border: 3px solid #000000; position: fixed;left:14%;top:30%""><img src=""visual/soap.png"" width=""300""></div><div style=""border: 3px solid #000000; position: fixed;left:64%;top:30%""><img src=""visual/rope.png"" width=""300""></div>","arrowdown","","false","experiment","visual/soap.png","visual/rope.png","ArrowUp","non-ortho","","","","","","","","","","","","","","","","","","","","","","","","","","","",""
"","","","","","html-keyboard-response","125","198673","0.0-6.0-0.36","AFFXVHHBUWW4D","2022-05-19T07:54:19.658Z","rhyme-same_different-phon_sim-task_switching","","null","rhyme","<div style=""font-size:60px;"">+</div>","null","500","","","","","","","","","","","","","","","","","","","","","","","","","","","","","","","","","",""
"","","","","","html-keyboard-response","126","199179","0.0-6.0-1.36","AFFXVHHBUWW4D","2022-05-19T07:54:19.658Z","rhyme-same_different-phon_sim-task_switching","","null","rhyme","<img src=""square.png"" width=""306"" height=""306"" style=""position: fixed;left:14%;top:30%""><img src=""square.png"" width=""306"" height=""306"" style=""position: fixed;left:64%;top:30%"">","null","","","","","","","","","","","","","","","","","","","","","","","","","","","","","","","","","","",""
"","","","","","html-keyboard-response","127","202461","0.0-6.0-2.36","AFFXVHHBUWW4D","2022-05-19T07:54:19.658Z","rhyme-same_different-phon_sim-task_switching","","3280.3999999910593","rhyme","<div style=""border: 3px solid #000000; position: fixed;left:14%;top:30%""><img src=""visual/fly.png"" width=""300""></div><div style=""border: 3px solid #000000; position: fixed;left:64%;top:30%""><img src=""visual/plane.png"" width=""300""></div>","arrowdown","","true","experiment","visual/fly.png","visual/plane.png","ArrowDown","NR","","","","","","","","","","","","","","","","","","","","","","","","","","","",""
"","","","","","html-keyboard-response","128","202962","0.0-6.0-0.37","AFFXVHHBUWW4D","2022-05-19T07:54:19.658Z","rhyme-same_different-phon_sim-task_switching","","null","rhyme","<div style=""font-size:60px;"">+</div>","null","500","","","","","","","","","","","","","","","","","","","","","","","","","","","","","","","","","",""
"","","","","","html-keyboard-response","129","203464","0.0-6.0-1.37","AFFXVHHBUWW4D","2022-05-19T07:54:19.658Z","rhyme-same_different-phon_sim-task_switching","","null","rhyme","<img src=""square.png"" width=""306"" height=""306"" style=""position: fixed;left:14%;top:30%""><img src=""square.png"" width=""306"" height=""306"" style=""position: fixed;left:64%;top:30%"">","null","","","","","","","","","","","","","","","","","","","","","","","","","","","","","","","","","","",""
"","","","","","html-keyboard-response","130","206912","0.0-6.0-2.37","AFFXVHHBUWW4D","2022-05-19T07:54:19.658Z","rhyme-same_different-phon_sim-task_switching","","3443.7999999970198","rhyme","<div style=""border: 3px solid #000000; position: fixed;left:14%;top:30%""><img src=""visual/drum.png"" width=""300""></div><div style=""border: 3px solid #000000; position: fixed;left:64%;top:30%""><img src=""visual/thumb.png"" width=""300""></div>","arrowup","","true","experiment","visual/drum.png","visual/thumb.png","ArrowUp","non-ortho","","","","","","","","","","","","","","","","","","","","","","","","","","","",""
"","","","","","html-keyboard-response","131","207413","0.0-6.0-0.38","AFFXVHHBUWW4D","2022-05-19T07:54:19.658Z","rhyme-same_different-phon_sim-task_switching","","null","rhyme","<div style=""font-size:60px;"">+</div>","null","500","","","","","","","","","","","","","","","","","","","","","","","","","","","","","","","","","",""
"","","","","","html-keyboard-response","132","207914","0.0-6.0-1.38","AFFXVHHBUWW4D","2022-05-19T07:54:19.658Z","rhyme-same_different-phon_sim-task_switching","","null","rhyme","<img src=""square.png"" width=""306"" height=""306"" style=""position: fixed;left:14%;top:30%""><img src=""square.png"" width=""306"" height=""306"" style=""position: fixed;left:64%;top:30%"">","null","","","","","","","","","","","","","","","","","","","","","","","","","","","","","","","","","","",""
"","","","","","html-keyboard-response","133","211731","0.0-6.0-2.38","AFFXVHHBUWW4D","2022-05-19T07:54:19.658Z","rhyme-same_different-phon_sim-task_switching","","3812.5","rhyme","<div style=""border: 3px solid #000000; position: fixed;left:14%;top:30%""><img src=""visual/bin.png"" width=""300""></div><div style=""border: 3px solid #000000; position: fixed;left:64%;top:30%""><img src=""visual/chin.png"" width=""300""></div>","arrowdown","","false","experiment","visual/bin.png","visual/chin.png","ArrowUp","ortho","","","","","","","","","","","","","","","","","","","","","","","","","","","",""
"","","","","","html-keyboard-response","134","212233","0.0-6.0-0.39","AFFXVHHBUWW4D","2022-05-19T07:54:19.658Z","rhyme-same_different-phon_sim-task_switching","","null","rhyme","<div style=""font-size:60px;"">+</div>","null","500","","","","","","","","","","","","","","","","","","","","","","","","","","","","","","","","","",""
"","","","","","html-keyboard-response","135","212735","0.0-6.0-1.39","AFFXVHHBUWW4D","2022-05-19T07:54:19.658Z","rhyme-same_different-phon_sim-task_switching","","null","rhyme","<img src=""square.png"" width=""306"" height=""306"" style=""position: fixed;left:14%;top:30%""><img src=""square.png"" width=""306"" height=""306"" style=""position: fixed;left:64%;top:30%"">","null","","","","","","","","","","","","","","","","","","","","","","","","","","","","","","","","","","",""
"","","","","","html-keyboard-response","136","216087","0.0-6.0-2.39","AFFXVHHBUWW4D","2022-05-19T07:54:19.658Z","rhyme-same_different-phon_sim-task_switching","","3347.5","rhyme","<div style=""border: 3px solid #000000; position: fixed;left:14%;top:30%""><img src=""visual/bone.png"" width=""300""></div><div style=""border: 3px solid #000000; position: fixed;left:64%;top:30%""><img src=""visual/cone.png"" width=""300""></div>","arrowup","","true","experiment","visual/bone.png","visual/cone.png","ArrowUp","ortho","","","","","","","","","","","","","","","","","","","","","","","","","","","",""
"","","","","","html-keyboard-response","137","216839","0.0-6.0-0.40","AFFXVHHBUWW4D","2022-05-19T07:54:19.658Z","rhyme-same_different-phon_sim-task_switching","","null","rhyme","<div style=""font-size:60px;"">+</div>","null","750","","","","","","","","","","","","","","","","","","","","","","","","","","","","","","","","","",""
"","","","","","html-keyboard-response","138","217342","0.0-6.0-1.40","AFFXVHHBUWW4D","2022-05-19T07:54:19.658Z","rhyme-same_different-phon_sim-task_switching","","null","rhyme","<img src=""square.png"" width=""306"" height=""306"" style=""position: fixed;left:14%;top:30%""><img src=""square.png"" width=""306"" height=""306"" style=""position: fixed;left:64%;top:30%"">","null","","","","","","","","","","","","","","","","","","","","","","","","","","","","","","","","","","",""
"","","","","","html-keyboard-response","139","221174","0.0-6.0-2.40","AFFXVHHBUWW4D","2022-05-19T07:54:19.658Z","rhyme-same_different-phon_sim-task_switching","","3828.9000000059605","rhyme","<div style=""border: 3px solid #000000; position: fixed;left:14%;top:30%""><img src=""visual/chair.png"" width=""300""></div><div style=""border: 3px solid #000000; position: fixed;left:64%;top:30%""><img src=""visual/pear.png"" width=""300""></div>","arrowdown","","false","experiment","visual/chair.png","visual/pear.png","ArrowUp","non-ortho","","","","","","","","","","","","","","","","","","","","","","","","","","","",""
"","","","","","html-keyboard-response","140","222176","0.0-6.0-0.41","AFFXVHHBUWW4D","2022-05-19T07:54:19.658Z","rhyme-same_different-phon_sim-task_switching","","null","rhyme","<div style=""font-size:60px;"">+</div>","null","1000","","","","","","","","","","","","","","","","","","","","","","","","","","","","","","","","","",""
"","","","","","html-keyboard-response","141","222677","0.0-6.0-1.41","AFFXVHHBUWW4D","2022-05-19T07:54:19.658Z","rhyme-same_different-phon_sim-task_switching","","null","rhyme","<img src=""square.png"" width=""306"" height=""306"" style=""position: fixed;left:14%;top:30%""><img src=""square.png"" width=""306"" height=""306"" style=""position: fixed;left:64%;top:30%"">","null","","","","","","","","","","","","","","","","","","","","","","","","","","","","","","","","","","",""
"","","","","","html-keyboard-response","142","225473","0.0-6.0-2.41","AFFXVHHBUWW4D","2022-05-19T07:54:19.658Z","rhyme-same_different-phon_sim-task_switching","","2791.7999999970198","rhyme","<div style=""border: 3px solid #000000; position: fixed;left:14%;top:30%""><img src=""visual/bear.png"" width=""300""></div><div style=""border: 3px solid #000000; position: fixed;left:64%;top:30%""><img src=""visual/crane.png"" width=""300""></div>","arrowdown","","true","experiment","visual/bear.png","visual/crane.png","ArrowDown","NR","","","","","","","","","","","","","","","","","","","","","","","","","","","",""
"","","","","","html-keyboard-response","143","225975","0.0-6.0-0.42","AFFXVHHBUWW4D","2022-05-19T07:54:19.658Z","rhyme-same_different-phon_sim-task_switching","","null","rhyme","<div style=""font-size:60px;"">+</div>","null","500","","","","","","","","","","","","","","","","","","","","","","","","","","","","","","","","","",""
"","","","","","html-keyboard-response","144","226478","0.0-6.0-1.42","AFFXVHHBUWW4D","2022-05-19T07:54:19.658Z","rhyme-same_different-phon_sim-task_switching","","null","rhyme","<img src=""square.png"" width=""306"" height=""306"" style=""position: fixed;left:14%;top:30%""><img src=""square.png"" width=""306"" height=""306"" style=""position: fixed;left:64%;top:30%"">","null","","","","","","","","","","","","","","","","","","","","","","","","","","","","","","","","","","",""
"","","","","","html-keyboard-response","145","229606","0.0-6.0-2.42","AFFXVHHBUWW4D","2022-05-19T07:54:19.658Z","rhyme-same_different-phon_sim-task_switching","","3123.2999999970198","rhyme","<div style=""border: 3px solid #000000; position: fixed;left:14%;top:30%""><img src=""visual/dart.png"" width=""300""></div><div style=""border: 3px solid #000000; position: fixed;left:64%;top:30%""><img src=""visual/heart.png"" width=""300""></div>","arrowdown","","false","experiment","visual/dart.png","visual/heart.png","ArrowUp","non-ortho","","","","","","","","","","","","","","","","","","","","","","","","","","","",""
"","","","","","html-keyboard-response","146","230608","0.0-6.0-0.43","AFFXVHHBUWW4D","2022-05-19T07:54:19.658Z","rhyme-same_different-phon_sim-task_switching","","null","rhyme","<div style=""font-size:60px;"">+</div>","null","1000","","","","","","","","","","","","","","","","","","","","","","","","","","","","","","","","","",""
"","","","","","html-keyboard-response","147","231110","0.0-6.0-1.43","AFFXVHHBUWW4D","2022-05-19T07:54:19.658Z","rhyme-same_different-phon_sim-task_switching","","null","rhyme","<img src=""square.png"" width=""306"" height=""306"" style=""position: fixed;left:14%;top:30%""><img src=""square.png"" width=""306"" height=""306"" style=""position: fixed;left:64%;top:30%"">","null","","","","","","","","","","","","","","","","","","","","","","","","","","","","","","","","","","",""
"","","","","","html-keyboard-response","148","233879","0.0-6.0-2.43","AFFXVHHBUWW4D","2022-05-19T07:54:19.658Z","rhyme-same_different-phon_sim-task_switching","","2765.2999999970198","rhyme","<div style=""border: 3px solid #000000; position: fixed;left:14%;top:30%""><img src=""visual/pear.png"" width=""300""></div><div style=""border: 3px solid #000000; position: fixed;left:64%;top:30%""><img src=""visual/rope.png"" width=""300""></div>","arrowdown","","true","experiment","visual/pear.png","visual/rope.png","ArrowDown","NR","","","","","","","","","","","","","","","","","","","","","","","","","","","",""
"","","","","","html-keyboard-response","149","234382","0.0-6.0-0.44","AFFXVHHBUWW4D","2022-05-19T07:54:19.658Z","rhyme-same_different-phon_sim-task_switching","","null","rhyme","<div style=""font-size:60px;"">+</div>","null","500","","","","","","","","","","","","","","","","","","","","","","","","","","","","","","","","","",""
"","","","","","html-keyboard-response","150","234884","0.0-6.0-1.44","AFFXVHHBUWW4D","2022-05-19T07:54:19.658Z","rhyme-same_different-phon_sim-task_switching","","null","rhyme","<img src=""square.png"" width=""306"" height=""306"" style=""position: fixed;left:14%;top:30%""><img src=""square.png"" width=""306"" height=""306"" style=""position: fixed;left:64%;top:30%"">","null","","","","","","","","","","","","","","","","","","","","","","","","","","","","","","","","","","",""
"","","","","","html-keyboard-response","151","237255","0.0-6.0-2.44","AFFXVHHBUWW4D","2022-05-19T07:54:19.658Z","rhyme-same_different-phon_sim-task_switching","","2368","rhyme","<div style=""border: 3px solid #000000; position: fixed;left:14%;top:30%""><img src=""visual/plane.png"" width=""300""></div><div style=""border: 3px solid #000000; position: fixed;left:64%;top:30%""><img src=""visual/chain.png"" width=""300""></div>","arrowup","","true","experiment","visual/plane.png","visual/chain.png","ArrowUp","non-ortho","","","","","","","","","","","","","","","","","","","","","","","","","","","",""
"","","","","","html-keyboard-response","152","237758","0.0-6.0-0.45","AFFXVHHBUWW4D","2022-05-19T07:54:19.658Z","rhyme-same_different-phon_sim-task_switching","","null","rhyme","<div style=""font-size:60px;"">+</div>","null","500","","","","","","","","","","","","","","","","","","","","","","","","","","","","","","","","","",""
"","","","","","html-keyboard-response","153","238262","0.0-6.0-1.45","AFFXVHHBUWW4D","2022-05-19T07:54:19.658Z","rhyme-same_different-phon_sim-task_switching","","null","rhyme","<img src=""square.png"" width=""306"" height=""306"" style=""position: fixed;left:14%;top:30%""><img src=""square.png"" width=""306"" height=""306"" style=""position: fixed;left:64%;top:30%"">","null","","","","","","","","","","","","","","","","","","","","","","","","","","","","","","","","","","",""
"","","","","","html-keyboard-response","154","241102","0.0-6.0-2.45","AFFXVHHBUWW4D","2022-05-19T07:54:19.658Z","rhyme-same_different-phon_sim-task_switching","","2838.5999999940395","rhyme","<div style=""border: 3px solid #000000; position: fixed;left:14%;top:30%""><img src=""visual/wheel.png"" width=""300""></div><div style=""border: 3px solid #000000; position: fixed;left:64%;top:30%""><img src=""visual/seal.png"" width=""300""></div>","arrowdown","","false","experiment","visual/wheel.png","visual/seal.png","ArrowUp","non-ortho","","","","","","","","","","","","","","","","","","","","","","","","","","","",""
"","","","","","html-keyboard-response","155","241856","0.0-6.0-0.46","AFFXVHHBUWW4D","2022-05-19T07:54:19.658Z","rhyme-same_different-phon_sim-task_switching","","null","rhyme","<div style=""font-size:60px;"">+</div>","null","750","","","","","","","","","","","","","","","","","","","","","","","","","","","","","","","","","",""
"","","","","","html-keyboard-response","156","242358","0.0-6.0-1.46","AFFXVHHBUWW4D","2022-05-19T07:54:19.658Z","rhyme-same_different-phon_sim-task_switching","","null","rhyme","<img src=""square.png"" width=""306"" height=""306"" style=""position: fixed;left:14%;top:30%""><img src=""square.png"" width=""306"" height=""306"" style=""position: fixed;left:64%;top:30%"">","null","","","","","","","","","","","","","","","","","","","","","","","","","","","","","","","","","","",""
"","","","","","html-keyboard-response","157","244097","0.0-6.0-2.46","AFFXVHHBUWW4D","2022-05-19T07:54:19.658Z","rhyme-same_different-phon_sim-task_switching","","1735.5","rhyme","<div style=""border: 3px solid #000000; position: fixed;left:14%;top:30%""><img src=""visual/train.png"" width=""300""></div><div style=""border: 3px solid #000000; position: fixed;left:64%;top:30%""><img src=""visual/crane.png"" width=""300""></div>","arrowdown","","false","experiment","visual/train.png","visual/crane.png","ArrowUp","non-ortho","","","","","","","","","","","","","","","","","","","","","","","","","","","",""
"","","","","","html-keyboard-response","158","244849","0.0-6.0-0.47","AFFXVHHBUWW4D","2022-05-19T07:54:19.658Z","rhyme-same_different-phon_sim-task_switching","","null","rhyme","<div style=""font-size:60px;"">+</div>","null","750","","","","","","","","","","","","","","","","","","","","","","","","","","","","","","","","","",""
"","","","","","html-keyboard-response","159","245353","0.0-6.0-1.47","AFFXVHHBUWW4D","2022-05-19T07:54:19.658Z","rhyme-same_different-phon_sim-task_switching","","null","rhyme","<img src=""square.png"" width=""306"" height=""306"" style=""position: fixed;left:14%;top:30%""><img src=""square.png"" width=""306"" height=""306"" style=""position: fixed;left:64%;top:30%"">","null","","","","","","","","","","","","","","","","","","","","","","","","","","","","","","","","","","",""
"","","","","","html-keyboard-response","160","247875","0.0-6.0-2.47","AFFXVHHBUWW4D","2022-05-19T07:54:19.658Z","rhyme-same_different-phon_sim-task_switching","","2517.2999999970198","rhyme","<div style=""border: 3px solid #000000; position: fixed;left:14%;top:30%""><img src=""visual/drawer.png"" width=""300""></div><div style=""border: 3px solid #000000; position: fixed;left:64%;top:30%""><img src=""visual/door.png"" width=""300""></div>","arrowdown","","false","experiment","visual/drawer.png","visual/door.png","ArrowUp","non-ortho","","","","","","","","","","","","","","","","","","","","","","","","","","","",""
"","","","","","html-keyboard-response","161","248127","0.0-6.0-0.48","AFFXVHHBUWW4D","2022-05-19T07:54:19.658Z","rhyme-same_different-phon_sim-task_switching","","null","rhyme","<div style=""font-size:60px;"">+</div>","null","250","","","","","","","","","","","","","","","","","","","","","","","","","","","","","","","","","",""
"","","","","","html-keyboard-response","162","248630","0.0-6.0-1.48","AFFXVHHBUWW4D","2022-05-19T07:54:19.658Z","rhyme-same_different-phon_sim-task_switching","","null","rhyme","<img src=""square.png"" width=""306"" height=""306"" style=""position: fixed;left:14%;top:30%""><img src=""square.png"" width=""306"" height=""306"" style=""position: fixed;left:64%;top:30%"">","null","","","","","","","","","","","","","","","","","","","","","","","","","","","","","","","","","","",""
"","","","","","html-keyboard-response","163","252329","0.0-6.0-2.48","AFFXVHHBUWW4D","2022-05-19T07:54:19.658Z","rhyme-same_different-phon_sim-task_switching","","3696.0999999940395","rhyme","<div style=""border: 3px solid #000000; position: fixed;left:14%;top:30%""><img src=""visual/brain.png"" width=""300""></div><div style=""border: 3px solid #000000; position: fixed;left:64%;top:30%""><img src=""visual/clock.png"" width=""300""></div>","arrowdown","","true","experiment","visual/brain.png","visual/clock.png","ArrowDown","NR","","","","","","","","","","","","","","","","","","","","","","","","","","","",""
"","","","","","html-keyboard-response","164","253081","0.0-6.0-0.49","AFFXVHHBUWW4D","2022-05-19T07:54:19.658Z","rhyme-same_different-phon_sim-task_switching","","null","rhyme","<div style=""font-size:60px;"">+</div>","null","750","","","","","","","","","","","","","","","","","","","","","","","","","","","","","","","","","",""
"","","","","","html-keyboard-response","165","253585","0.0-6.0-1.49","AFFXVHHBUWW4D","2022-05-19T07:54:19.658Z","rhyme-same_different-phon_sim-task_switching","","null","rhyme","<img src=""square.png"" width=""306"" height=""306"" style=""position: fixed;left:14%;top:30%""><img src=""square.png"" width=""306"" height=""306"" style=""position: fixed;left:64%;top:30%"">","null","","","","","","","","","","","","","","","","","","","","","","","","","","","","","","","","","","",""
"","","","","","html-keyboard-response","166","255812","0.0-6.0-2.49","AFFXVHHBUWW4D","2022-05-19T07:54:19.658Z","rhyme-same_different-phon_sim-task_switching","","2222","rhyme","<div style=""border: 3px solid #000000; position: fixed;left:14%;top:30%""><img src=""visual/flag.png"" width=""300""></div><div style=""border: 3px solid #000000; position: fixed;left:64%;top:30%""><img src=""visual/bag.png"" width=""300""></div>","arrowdown","","false","experiment","visual/flag.png","visual/bag.png","ArrowUp","ortho","","","","","","","","","","","","","","","","","","","","","","","","","","","",""
"","","","","","html-keyboard-response","167","256564","0.0-6.0-0.50","AFFXVHHBUWW4D","2022-05-19T07:54:19.658Z","rhyme-same_different-phon_sim-task_switching","","null","rhyme","<div style=""font-size:60px;"">+</div>","null","750","","","","","","","","","","","","","","","","","","","","","","","","","","","","","","","","","",""
"","","","","","html-keyboard-response","168","257075","0.0-6.0-1.50","AFFXVHHBUWW4D","2022-05-19T07:54:19.658Z","rhyme-same_different-phon_sim-task_switching","","null","rhyme","<img src=""square.png"" width=""306"" height=""306"" style=""position: fixed;left:14%;top:30%""><img src=""square.png"" width=""306"" height=""306"" style=""position: fixed;left:64%;top:30%"">","null","","","","","","","","","","","","","","","","","","","","","","","","","","","","","","","","","","",""
"","","","","","html-keyboard-response","169","259985","0.0-6.0-2.50","AFFXVHHBUWW4D","2022-05-19T07:54:19.658Z","rhyme-same_different-phon_sim-task_switching","","2904.8999999910593","rhyme","<div style=""border: 3px solid #000000; position: fixed;left:14%;top:30%""><img src=""visual/bed.png"" width=""300""></div><div style=""border: 3px solid #000000; position: fixed;left:64%;top:30%""><img src=""visual/bread.png"" width=""300""></div>","arrowup","","true","experiment","visual/bed.png","visual/bread.png","ArrowUp","non-ortho","","","","","","","","","","","","","","","","","","","","","","","","","","","",""
"","","","","","html-keyboard-response","170","260485","0.0-6.0-0.51","AFFXVHHBUWW4D","2022-05-19T07:54:19.658Z","rhyme-same_different-phon_sim-task_switching","","null","rhyme","<div style=""font-size:60px;"">+</div>","null","500","","","","","","","","","","","","","","","","","","","","","","","","","","","","","","","","","",""
"","","","","","html-keyboard-response","171","260989","0.0-6.0-1.51","AFFXVHHBUWW4D","2022-05-19T07:54:19.658Z","rhyme-same_different-phon_sim-task_switching","","null","rhyme","<img src=""square.png"" width=""306"" height=""306"" style=""position: fixed;left:14%;top:30%""><img src=""square.png"" width=""306"" height=""306"" style=""position: fixed;left:64%;top:30%"">","null","","","","","","","","","","","","","","","","","","","","","","","","","","","","","","","","","","",""
"","","","","","html-keyboard-response","172","262862","0.0-6.0-2.51","AFFXVHHBUWW4D","2022-05-19T07:54:19.658Z","rhyme-same_different-phon_sim-task_switching","","1869","rhyme","<div style=""border: 3px solid #000000; position: fixed;left:14%;top:30%""><img src=""visual/star.png"" width=""300""></div><div style=""border: 3px solid #000000; position: fixed;left:64%;top:30%""><img src=""visual/jar.png"" width=""300""></div>","arrowup","","true","experiment","visual/star.png","visual/jar.png","ArrowUp","ortho","","","","","","","","","","","","","","","","","","","","","","","","","","","",""
"","","","","","html-keyboard-response","173","263865","0.0-6.0-0.52","AFFXVHHBUWW4D","2022-05-19T07:54:19.658Z","rhyme-same_different-phon_sim-task_switching","","null","rhyme","<div style=""font-size:60px;"">+</div>","null","1000","","","","","","","","","","","","","","","","","","","","","","","","","","","","","","","","","",""
"","","","","","html-keyboard-response","174","264368","0.0-6.0-1.52","AFFXVHHBUWW4D","2022-05-19T07:54:19.658Z","rhyme-same_different-phon_sim-task_switching","","null","rhyme","<img src=""square.png"" width=""306"" height=""306"" style=""position: fixed;left:14%;top:30%""><img src=""square.png"" width=""306"" height=""306"" style=""position: fixed;left:64%;top:30%"">","null","","","","","","","","","","","","","","","","","","","","","","","","","","","","","","","","","","",""
"","","","","","html-keyboard-response","175","268246","0.0-6.0-2.52","AFFXVHHBUWW4D","2022-05-19T07:54:19.658Z","rhyme-same_different-phon_sim-task_switching","","3874.0999999940395","rhyme","<div style=""border: 3px solid #000000; position: fixed;left:14%;top:30%""><img src=""visual/nose.png"" width=""300""></div><div style=""border: 3px solid #000000; position: fixed;left:64%;top:30%""><img src=""visual/bell.png"" width=""300""></div>","arrowdown","","true","experiment","visual/nose.png","visual/bell.png","ArrowDown","NR","","","","","","","","","","","","","","","","","","","","","","","","","","","",""
"","","","","","html-keyboard-response","176","268749","0.0-6.0-0.53","AFFXVHHBUWW4D","2022-05-19T07:54:19.658Z","rhyme-same_different-phon_sim-task_switching","","null","rhyme","<div style=""font-size:60px;"">+</div>","null","500","","","","","","","","","","","","","","","","","","","","","","","","","","","","","","","","","",""
"","","","","","html-keyboard-response","177","269253","0.0-6.0-1.53","AFFXVHHBUWW4D","2022-05-19T07:54:19.658Z","rhyme-same_different-phon_sim-task_switching","","null","rhyme","<img src=""square.png"" width=""306"" height=""306"" style=""position: fixed;left:14%;top:30%""><img src=""square.png"" width=""306"" height=""306"" style=""position: fixed;left:64%;top:30%"">","null","","","","","","","","","","","","","","","","","","","","","","","","","","","","","","","","","","",""
"","","","","","html-keyboard-response","178","271355","0.0-6.0-2.53","AFFXVHHBUWW4D","2022-05-19T07:54:19.658Z","rhyme-same_different-phon_sim-task_switching","","2099","rhyme","<div style=""border: 3px solid #000000; position: fixed;left:14%;top:30%""><img src=""visual/claw.png"" width=""300""></div><div style=""border: 3px solid #000000; position: fixed;left:64%;top:30%""><img src=""visual/beer.png"" width=""300""></div>","arrowup","","false","experiment","visual/claw.png","visual/beer.png","ArrowDown","NR","","","","","","","","","","","","","","","","","","","","","","","","","","","",""
"","","","","","html-keyboard-response","179","271857","0.0-6.0-0.54","AFFXVHHBUWW4D","2022-05-19T07:54:19.658Z","rhyme-same_different-phon_sim-task_switching","","null","rhyme","<div style=""font-size:60px;"">+</div>","null","500","","","","","","","","","","","","","","","","","","","","","","","","","","","","","","","","","",""
"","","","","","html-keyboard-response","180","272359","0.0-6.0-1.54","AFFXVHHBUWW4D","2022-05-19T07:54:19.658Z","rhyme-same_different-phon_sim-task_switching","","null","rhyme","<img src=""square.png"" width=""306"" height=""306"" style=""position: fixed;left:14%;top:30%""><img src=""square.png"" width=""306"" height=""306"" style=""position: fixed;left:64%;top:30%"">","null","","","","","","","","","","","","","","","","","","","","","","","","","","","","","","","","","","",""
"","","","","","html-keyboard-response","181","274933","0.0-6.0-2.54","AFFXVHHBUWW4D","2022-05-19T07:54:19.658Z","rhyme-same_different-phon_sim-task_switching","","2570.8999999910593","rhyme","<div style=""border: 3px solid #000000; position: fixed;left:14%;top:30%""><img src=""visual/box.png"" width=""300""></div><div style=""border: 3px solid #000000; position: fixed;left:64%;top:30%""><img src=""visual/fox.png"" width=""300""></div>","arrowup","","true","experiment","visual/box.png","visual/fox.png","ArrowUp","ortho","","","","","","","","","","","","","","","","","","","","","","","","","","","",""
"","","","","","html-keyboard-response","182","275184","0.0-6.0-0.55","AFFXVHHBUWW4D","2022-05-19T07:54:19.658Z","rhyme-same_different-phon_sim-task_switching","","null","rhyme","<div style=""font-size:60px;"">+</div>","null","250","","","","","","","","","","","","","","","","","","","","","","","","","","","","","","","","","",""
"","","","","","html-keyboard-response","183","275686","0.0-6.0-1.55","AFFXVHHBUWW4D","2022-05-19T07:54:19.658Z","rhyme-same_different-phon_sim-task_switching","","null","rhyme","<img src=""square.png"" width=""306"" height=""306"" style=""position: fixed;left:14%;top:30%""><img src=""square.png"" width=""306"" height=""306"" style=""position: fixed;left:64%;top:30%"">","null","","","","","","","","","","","","","","","","","","","","","","","","","","","","","","","","","","",""
"","","","","","html-keyboard-response","184","279084","0.0-6.0-2.55","AFFXVHHBUWW4D","2022-05-19T07:54:19.658Z","rhyme-same_different-phon_sim-task_switching","","3393.7999999970198","rhyme","<div style=""border: 3px solid #000000; position: fixed;left:14%;top:30%""><img src=""visual/well.png"" width=""300""></div><div style=""border: 3px solid #000000; position: fixed;left:64%;top:30%""><img src=""visual/bell.png"" width=""300""></div>","arrowdown","","false","experiment","visual/well.png","visual/bell.png","ArrowUp","ortho","","","","","","","","","","","","","","","","","","","","","","","","","","","",""
"","","","","","html-keyboard-response","185","280086","0.0-6.0-0.56","AFFXVHHBUWW4D","2022-05-19T07:54:19.658Z","rhyme-same_different-phon_sim-task_switching","","null","rhyme","<div style=""font-size:60px;"">+</div>","null","1000","","","","","","","","","","","","","","","","","","","","","","","","","","","","","","","","","",""
"","","","","","html-keyboard-response","186","280589","0.0-6.0-1.56","AFFXVHHBUWW4D","2022-05-19T07:54:19.658Z","rhyme-same_different-phon_sim-task_switching","","null","rhyme","<img src=""square.png"" width=""306"" height=""306"" style=""position: fixed;left:14%;top:30%""><img src=""square.png"" width=""306"" height=""306"" style=""position: fixed;left:64%;top:30%"">","null","","","","","","","","","","","","","","","","","","","","","","","","","","","","","","","","","","",""
"","","","","","html-keyboard-response","187","284077","0.0-6.0-2.56","AFFXVHHBUWW4D","2022-05-19T07:54:19.658Z","rhyme-same_different-phon_sim-task_switching","","3484.3999999910593","rhyme","<div style=""border: 3px solid #000000; position: fixed;left:14%;top:30%""><img src=""visual/rake.png"" width=""300""></div><div style=""border: 3px solid #000000; position: fixed;left:64%;top:30%""><img src=""visual/park.png"" width=""300""></div>","arrowdown","","true","experiment","visual/rake.png","visual/park.png","ArrowDown","NR","","","","","","","","","","","","","","","","","","","","","","","","","","","",""
"","","","","","html-keyboard-response","188","284829","0.0-6.0-0.57","AFFXVHHBUWW4D","2022-05-19T07:54:19.658Z","rhyme-same_different-phon_sim-task_switching","","null","rhyme","<div style=""font-size:60px;"">+</div>","null","750","","","","","","","","","","","","","","","","","","","","","","","","","","","","","","","","","",""
"","","","","","html-keyboard-response","189","285333","0.0-6.0-1.57","AFFXVHHBUWW4D","2022-05-19T07:54:19.658Z","rhyme-same_different-phon_sim-task_switching","","null","rhyme","<img src=""square.png"" width=""306"" height=""306"" style=""position: fixed;left:14%;top:30%""><img src=""square.png"" width=""306"" height=""306"" style=""position: fixed;left:64%;top:30%"">","null","","","","","","","","","","","","","","","","","","","","","","","","","","","","","","","","","","",""
"","","","","","html-keyboard-response","190","286878","0.0-6.0-2.57","AFFXVHHBUWW4D","2022-05-19T07:54:19.658Z","rhyme-same_different-phon_sim-task_switching","","1543.2000000029802","rhyme","<div style=""border: 3px solid #000000; position: fixed;left:14%;top:30%""><img src=""visual/soap.png"" width=""300""></div><div style=""border: 3px solid #000000; position: fixed;left:64%;top:30%""><img src=""visual/shoe.png"" width=""300""></div>","arrowdown","","true","experiment","visual/soap.png","visual/shoe.png","ArrowDown","NR","","","","","","","","","","","","","","","","","","","","","","","","","","","",""
"","","","","","html-keyboard-response","191","287380","0.0-6.0-0.58","AFFXVHHBUWW4D","2022-05-19T07:54:19.658Z","rhyme-same_different-phon_sim-task_switching","","null","rhyme","<div style=""font-size:60px;"">+</div>","null","500","","","","","","","","","","","","","","","","","","","","","","","","","","","","","","","","","",""
"","","","","","html-keyboard-response","192","287883","0.0-6.0-1.58","AFFXVHHBUWW4D","2022-05-19T07:54:19.658Z","rhyme-same_different-phon_sim-task_switching","","null","rhyme","<img src=""square.png"" width=""306"" height=""306"" style=""position: fixed;left:14%;top:30%""><img src=""square.png"" width=""306"" height=""306"" style=""position: fixed;left:64%;top:30%"">","null","","","","","","","","","","","","","","","","","","","","","","","","","","","","","","","","","","",""
"","","","","","html-keyboard-response","193","290039","0.0-6.0-2.58","AFFXVHHBUWW4D","2022-05-19T07:54:19.658Z","rhyme-same_different-phon_sim-task_switching","","2152.5999999940395","rhyme","<div style=""border: 3px solid #000000; position: fixed;left:14%;top:30%""><img src=""visual/rose.png"" width=""300""></div><div style=""border: 3px solid #000000; position: fixed;left:64%;top:30%""><img src=""visual/nose.png"" width=""300""></div>","arrowdown","","false","experiment","visual/rose.png","visual/nose.png","ArrowUp","ortho","","","","","","","","","","","","","","","","","","","","","","","","","","","",""
"","","","","","html-keyboard-response","194","291042","0.0-6.0-0.59","AFFXVHHBUWW4D","2022-05-19T07:54:19.658Z","rhyme-same_different-phon_sim-task_switching","","null","rhyme","<div style=""font-size:60px;"">+</div>","null","1000","","","","","","","","","","","","","","","","","","","","","","","","","","","","","","","","","",""
"","","","","","html-keyboard-response","195","291545","0.0-6.0-1.59","AFFXVHHBUWW4D","2022-05-19T07:54:19.658Z","rhyme-same_different-phon_sim-task_switching","","null","rhyme","<img src=""square.png"" width=""306"" height=""306"" style=""position: fixed;left:14%;top:30%""><img src=""square.png"" width=""306"" height=""306"" style=""position: fixed;left:64%;top:30%"">","null","","","","","","","","","","","","","","","","","","","","","","","","","","","","","","","","","","",""
"","","","","","html-keyboard-response","196","293468","0.0-6.0-2.59","AFFXVHHBUWW4D","2022-05-19T07:54:19.658Z","rhyme-same_different-phon_sim-task_switching","","1918.5","rhyme","<div style=""border: 3px solid #000000; position: fixed;left:14%;top:30%""><img src=""visual/spoon.png"" width=""300""></div><div style=""border: 3px solid #000000; position: fixed;left:64%;top:30%""><img src=""visual/crab.png"" width=""300""></div>","arrowdown","","true","experiment","visual/spoon.png","visual/crab.png","ArrowDown","NR","","","","","","","","","","","","","","","","","","","","","","","","","","","",""
"","","","","","survey-multi-choice","197","303000","0.0-7.0","AFFXVHHBUWW4D","2022-05-19T07:54:19.658Z","rhyme-same_different-phon_sim-task_switching","","9530.20000000298","rhyme","","{""Q0"":""Yes""}","","","","","","","","[0]","Yes","","","","","","","","","","","","","","","","","","","","","","","","","",""
"","","","","","survey-text","198","306904","0.0-8.0","AFFXVHHBUWW4D","2022-05-19T07:54:19.658Z","rhyme-same_different-phon_sim-task_switching","","3901","rhyme","","{""Q0"":""No""}","","","","","","","","","","No","","","","","","","","","","","","","","","","","","","","","","","","",""
"","","","","","instructions","199","308079","0.0-9.0","AFFXVHHBUWW4D","2022-05-19T07:54:19.658Z","rhyme-same_different-phon_sim-task_switching","[{""page_index"":0,""viewing_time"":1174.4000000059605}]","1174.7000000029802","rhyme","","","","","","","","","","","","","","","","","","","","","","","","","","","","","","","","","","","","",""
"","","","","","instructions","200","310815","0.0-10.0","AFFXVHHBUWW4D","2022-05-19T07:54:19.658Z","rhyme-same_different-phon_sim-task_switching","[{""page_index"":0,""viewing_time"":2735.1000000089407}]","2735.4000000059605","same_different","","","","","","","","","","","","","","","","","","","","","","","","","","","","","","","","","","","","",""
"","","","","","instructions","201","313031","0.0-11.0","AFFXVHHBUWW4D","2022-05-19T07:54:19.658Z","rhyme-same_different-phon_sim-task_switching","[{""page_index"":0,""viewing_time"":2215.2999999970198}]","2215.5","","","","","","","","","","","","","","","","","","","","","","","","","","","","","","","","","","","","","",""
"","","","","","html-keyboard-response","202","313784","0.0-12.0-0.0","AFFXVHHBUWW4D","2022-05-19T07:54:19.658Z","rhyme-same_different-phon_sim-task_switching","","null","same_different","<div style=""font-size:60px"">+</div>","null","","","","","","","","","","","","","","","","","","","","","","","","","","","","","","","","","","",""
"","","","","","html-keyboard-response","203","318396","0.0-12.0-1.0","AFFXVHHBUWW4D","2022-05-19T07:54:19.658Z","rhyme-same_different-phon_sim-task_switching","","4606.20000000298","same_different","[""<img src=\""square.png\"" width=\""100\"" height=\""100\"" style=\""position: fixed;left:39%;top:47%\""><img src=\""square.png\"" width=\""100\"" height=\""100\"" style=\""position: fixed;left:54%;top:47%\""><img src=\""square.png\"" width=\""100\"" height=\""100\"" style=\""position: fixed;left:46.5%;top:32%\""><img src=\""square.png\"" width=\""100\"" height=\""100\"" style=\""position: fixed;left:46.5%;top:61%\""><div style=\""font-size:60px;text-align: center;margin-top:35.2%\"">+</div><div id=\""first\"" style=\""position: fixed;visibility: hidden;left:40%;top:48%\""><img src=\""same_diff_imgs/C14.gif\"" style=\""-webkit-transform: scaleX(-1);transform: scaleX(-1);\""></div><div id=\""delayed\"" style=\""position: fixed;visibility: hidden;left:55%;top:49%\""><img src=\""same_diff_imgs/D07.gif\"" style=\""-webkit-transform: scaleX(-1);transform: scaleX(-1);\""></div>""]","arrowup","","false","","","","","","","","","categorical_image","same_diff_imgs/C14.gif","same_diff_imgs/D07.gif","yes","different","1","","","","","","","","","","","","","","","","","","",""
"","","","","","html-keyboard-response","204","318902","0.0-12.0-2.0","AFFXVHHBUWW4D","2022-05-19T07:54:19.658Z","rhyme-same_different-phon_sim-task_switching","","null","","<div style=""color:darkred; font-size:40px"">Incorrect!</div>","null","","","","","","","","","","","","","","","","","","","","","","","","","","","","","","","","","","",""
"","","","","","html-keyboard-response","205","319203","0.0-12.0-3.0","AFFXVHHBUWW4D","2022-05-19T07:54:19.658Z","rhyme-same_different-phon_sim-task_switching","","null","same_different"," ","null","","","","","","","","","","","","","","","","","","","","","","","","","","","","","","","","","","",""
"","","","","","html-keyboard-response","206","319954","0.0-12.0-0.1","AFFXVHHBUWW4D","2022-05-19T07:54:19.658Z","rhyme-same_different-phon_sim-task_switching","","null","same_different","<div style=""font-size:60px"">+</div>","null","","","","","","","","","","","","","","","","","","","","","","","","","","","","","","","","","","",""
"","","","","","html-keyboard-response","207","325829","0.0-12.0-1.1","AFFXVHHBUWW4D","2022-05-19T07:54:19.658Z","rhyme-same_different-phon_sim-task_switching","","5869.9000000059605","same_different","[""<img src=\""square.png\"" width=\""100\"" height=\""100\"" style=\""position: fixed;left:39%;top:47%\""><img src=\""square.png\"" width=\""100\"" height=\""100\"" style=\""position: fixed;left:54%;top:47%\""><img src=\""square.png\"" width=\""100\"" height=\""100\"" style=\""position: fixed;left:46.5%;top:32%\""><img src=\""square.png\"" width=\""100\"" height=\""100\"" style=\""position: fixed;left:46.5%;top:61%\""><div style=\""font-size:60px; text-align: center;margin-top:35.2%\"">+</div><div id=\""first\"" style=\""position: fixed;visibility: hidden;left:40%;top:48%\""><img src=\""same_diff_imgs/D09.gif\""></div><div id=\""delayed\"" style=\""position: fixed;visibility: hidden;left:48%;top:34%\""><img src=\""same_diff_imgs/C09.gif\""></div>""]","arrowup","","false","","","","","","","","","categorical_image","same_diff_imgs/D09.gif","same_diff_imgs/C09.gif","no","different","1","","","","","","","","","","","","","","","","","","",""
"","","","","","html-keyboard-response","208","326331","0.0-12.0-2.1","AFFXVHHBUWW4D","2022-05-19T07:54:19.658Z","rhyme-same_different-phon_sim-task_switching","","null","","<div style=""color:darkred; font-size:40px"">Incorrect!</div>","null","","","","","","","","","","","","","","","","","","","","","","","","","","","","","","","","","","",""
"","","","","","html-keyboard-response","209","326633","0.0-12.0-3.1","AFFXVHHBUWW4D","2022-05-19T07:54:19.658Z","rhyme-same_different-phon_sim-task_switching","","null","same_different"," ","null","","","","","","","","","","","","","","","","","","","","","","","","","","","","","","","","","","",""
