"success","timeout","failed_images","failed_audio","failed_video","trial_type","trial_index","time_elapsed","internal_node_id","worker_id","start_time","experiment_order","view_history","rt","experiment","stimulus","response","phase","word_1","word_2","word_3","word_4","word_5","original_word_set","response_1","response_2","response_3","response_4","response_5","question_order","talk_out_loud","strategy_free_ans","condition","answer","correct","operation","trial_no","color_cue","symbol_cue","wait_time","image_1","image_2","cor_key","type","judgment_type","stim_1","stim_2","inverted","true_pos","true_neg","false_pos","false_neg"
"true","false","[]","[]","[]","preload","0","2807","0.0-0.0","AKVDK30EEV08C","2022-05-19T04:38:39.894Z","phon_sim-task_switching-rhyme-same_different","","","","","","","","","","","","","","","","","","","","","","","","","","","","","","","","","","","","","","","",""
"","","","","","instructions","1","249831","0.0-1.0","AKVDK30EEV08C","2022-05-19T04:38:39.894Z","phon_sim-task_switching-rhyme-same_different","[{""page_index"":0,""viewing_time"":247023}]","247023.19999998808","","","","","","","","","","","","","","","","","","","","","","","","","","","","","","","","","","","","","",""
"true","","","","","fullscreen","2","255699","0.0-2.0","AKVDK30EEV08C","2022-05-19T04:38:39.894Z","phon_sim-task_switching-rhyme-same_different","","","","","","","","","","","","","","","","","","","","","","","","","","","","","","","","","","","","","","","",""
"","","","","","instructions","3","342587","0.0-3.0","AKVDK30EEV08C","2022-05-19T04:38:39.894Z","phon_sim-task_switching-rhyme-same_different","[{""page_index"":0,""viewing_time"":86887.69999998808}]","86887.89999997616","phon_sim","","","","","","","","","","","","","","","","","","","","","","","","","","","","","","","","","","","","",""
"","","","","","html-keyboard-response","4","355604","0.0-4.0-0.0","AKVDK30EEV08C","2022-05-19T04:38:39.894Z","phon_sim-task_switching-rhyme-same_different","","null","phon_sim","<div style=""display:grid""><h1 id=""word_1"" style=""grid-column:1; grid-row:1"">pen</h1><h1 id=""word_2"" style=""visibility:hidden;grid-column:1; grid-row:1"">rig</h1><h1 id=""word_3"" style=""visibility:hidden;grid-column:1; grid-row:1"">day</h1><h1 id=""word_4"" style=""visibility:hidden;grid-column:1; grid-row:1"">bar</h1><h1 id=""word_5"" style=""visibility:hidden;grid-column:1; grid-row:1"">cow</h1></div>","null","training","pen","rig","day","bar","cow","training","","","","","","","","","","","","","","","","","","","","","","","","","","","",""
"","","","","","survey-text","5","371896","0.0-4.0-1.0","AKVDK30EEV08C","2022-05-19T04:38:39.894Z","phon_sim-task_switching-rhyme-same_different","","16288","phon_sim","","{""position_1"":""pen"",""position_2"":""rig"",""position_3"":""day"",""position_4"":""bar"",""position_5"":""cow""}","training","","","","","","","pen","rig","day","bar","cow","","","","","","","","","","","","","","","","","","","","","","",""
"","","","","","html-keyboard-response","6","376907","0.0-4.0-2.0","AKVDK30EEV08C","2022-05-19T04:38:39.894Z","phon_sim-task_switching-rhyme-same_different","","null","phon_sim","<h1 id=""word_1"">pen</h1><h1 id=""word_2"">rig</h1><h1 id=""word_3"">day</h1><h1 id=""word_4"">bar</h1><h1 id=""word_5"">cow</h1>","null","","","","","","","","","","","","","","","","","","","","","","","","","","","","","","","","","","",""
"","","","","","html-keyboard-response","7","389924","0.0-4.0-0.1","AKVDK30EEV08C","2022-05-19T04:38:39.894Z","phon_sim-task_switching-rhyme-same_different","","null","phon_sim","<div style=""display:grid""><h1 id=""word_1"" style=""grid-column:1; grid-row:1"">mad</h1><h1 id=""word_2"" style=""visibility:hidden;grid-column:1; grid-row:1"">man</h1><h1 id=""word_3"" style=""visibility:hidden;grid-column:1; grid-row:1"">map</h1><h1 id=""word_4"" style=""visibility:hidden;grid-column:1; grid-row:1"">mat</h1><h1 id=""word_5"" style=""visibility:hidden;grid-column:1; grid-row:1"">max</h1></div>","null","training","mad","man","map","mat","max","training","","","","","","","","","","","","","","","","","","","","","","","","","","","",""
"","","","","","survey-text","8","412392","0.0-4.0-1.1","AKVDK30EEV08C","2022-05-19T04:38:39.894Z","phon_sim-task_switching-rhyme-same_different","","22461","phon_sim","","{""position_1"":""man"",""position_2"":""map"",""position_3"":""mat"",""position_4"":""max"",""position_5"":""""}","training","","","","","","","man","map","mat","max","","","","","","","","","","","","","","","","","","","","","","","",""
"","","","","","html-keyboard-response","9","417402","0.0-4.0-2.1","AKVDK30EEV08C","2022-05-19T04:38:39.894Z","phon_sim-task_switching-rhyme-same_different","","null","phon_sim","<h1 id=""word_1"">mad</h1><h1 id=""word_2"">man</h1><h1 id=""word_3"">map</h1><h1 id=""word_4"">mat</h1><h1 id=""word_5"">max</h1>","null","","","","","","","","","","","","","","","","","","","","","","","","","","","","","","","","","","",""
"","","","","","instructions","10","421718","0.0-5.0","AKVDK30EEV08C","2022-05-19T04:38:39.894Z","phon_sim-task_switching-rhyme-same_different","[{""page_index"":0,""viewing_time"":4315}]","4315.299999952316","","","","","","","","","","","","","","","","","","","","","","","","","","","","","","","","","","","","","",""
"","","","","","html-keyboard-response","11","434729","0.0-6.0-0.0","AKVDK30EEV08C","2022-05-19T04:38:39.894Z","phon_sim-task_switching-rhyme-same_different","","null","phon_sim","<div style=""display:grid""><h1 id=""word_1"" style=""grid-column:1; grid-row:1"">rough</h1><h1 id=""word_2"" style=""visibility:hidden;grid-column:1; grid-row:1"">cough</h1><h1 id=""word_3"" style=""visibility:hidden;grid-column:1; grid-row:1"">dough</h1><h1 id=""word_4"" style=""visibility:hidden;grid-column:1; grid-row:1"">bough</h1><h1 id=""word_5"" style=""visibility:hidden;grid-column:1; grid-row:1"">through</h1></div>","null","experiment","rough","cough","dough","bough","through","orthoSet","","","","","","","","","","","","","","","","","","","","","","","","","","","",""
"","","","","","survey-text","12","471405","0.0-6.0-1.0","AKVDK30EEV08C","2022-05-19T04:38:39.894Z","phon_sim-task_switching-rhyme-same_different","","36672.80000001192","phon_sim","","{""position_1"":""rough"",""position_2"":""cough"",""position_3"":""dough"",""position_4"":""through"",""position_5"":""""}","experiment","","","","","","","rough","cough","dough","through","","","","","","","","","","","","","","","","","","","","","","","",""
"","","","","","html-keyboard-response","13","484407","0.0-6.0-0.1","AKVDK30EEV08C","2022-05-19T04:38:39.894Z","phon_sim-task_switching-rhyme-same_different","","null","phon_sim","<div style=""display:grid""><h1 id=""word_1"" style=""grid-column:1; grid-row:1"">plea</h1><h1 id=""word_2"" style=""visibility:hidden;grid-column:1; grid-row:1"">board</h1><h1 id=""word_3"" style=""visibility:hidden;grid-column:1; grid-row:1"">sleigh</h1><h1 id=""word_4"" style=""visibility:hidden;grid-column:1; grid-row:1"">friend</h1><h1 id=""word_5"" style=""visibility:hidden;grid-column:1; grid-row:1"">row</h1></div>","null","experiment","plea","board","sleigh","friend","row","controlSet","","","","","","","","","","","","","","","","","","","","","","","","","","","",""
"","","","","","survey-text","14","511813","0.0-6.0-1.1","AKVDK30EEV08C","2022-05-19T04:38:39.894Z","phon_sim-task_switching-rhyme-same_different","","27402.69999998808","phon_sim","","{""position_1"":""plea"",""position_2"":""board"",""position_3"":""sleigh"",""position_4"":""friend"",""position_5"":""row""}","experiment","","","","","","","plea","board","sleigh","friend","row","","","","","","","","","","","","","","","","","","","","","","",""
"","","","","","html-keyboard-response","15","524815","0.0-6.0-0.2","AKVDK30EEV08C","2022-05-19T04:38:39.894Z","phon_sim-task_switching-rhyme-same_different","","null","phon_sim","<div style=""display:grid""><h1 id=""word_1"" style=""grid-column:1; grid-row:1"">board</h1><h1 id=""word_2"" style=""visibility:hidden;grid-column:1; grid-row:1"">sleigh</h1><h1 id=""word_3"" style=""visibility:hidden;grid-column:1; grid-row:1"">plea</h1><h1 id=""word_4"" style=""visibility:hidden;grid-column:1; grid-row:1"">friend</h1><h1 id=""word_5"" style=""visibility:hidden;grid-column:1; grid-row:1"">row</h1></div>","null","experiment","board","sleigh","plea","friend","row","controlSet","","","","","","","","","","","","","","","","","","","","","","","","","","","",""
"","","","","","survey-text","16","545970","0.0-6.0-1.2","AKVDK30EEV08C","2022-05-19T04:38:39.894Z","phon_sim-task_switching-rhyme-same_different","","21151.099999964237","phon_sim","","{""position_1"":""board"",""position_2"":""sleigh"",""position_3"":""plea"",""position_4"":""friend"",""position_5"":""row""}","experiment","","","","","","","board","sleigh","plea","friend","row","","","","","","","","","","","","","","","","","","","","","","",""
"","","","","","html-keyboard-response","17","558976","0.0-6.0-0.3","AKVDK30EEV08C","2022-05-19T04:38:39.894Z","phon_sim-task_switching-rhyme-same_different","","null","phon_sim","<div style=""display:grid""><h1 id=""word_1"" style=""grid-column:1; grid-row:1"">rough</h1><h1 id=""word_2"" style=""visibility:hidden;grid-column:1; grid-row:1"">cough</h1><h1 id=""word_3"" style=""visibility:hidden;grid-column:1; grid-row:1"">through</h1><h1 id=""word_4"" style=""visibility:hidden;grid-column:1; grid-row:1"">bough</h1><h1 id=""word_5"" style=""visibility:hidden;grid-column:1; grid-row:1"">dough</h1></div>","null","experiment","rough","cough","through","bough","dough","orthoSet","","","","","","","","","","","","","","","","","","","","","","","","","","","",""
"","","","","","survey-text","18","592462","0.0-6.0-1.3","AKVDK30EEV08C","2022-05-19T04:38:39.894Z","phon_sim-task_switching-rhyme-same_different","","33483.39999997616","phon_sim","","{""position_1"":""rough"",""position_2"":""cough"",""position_3"":""through"",""position_4"":""dough"",""position_5"":""""}","experiment","","","","","","","rough","cough","through","dough","","","","","","","","","","","","","","","","","","","","","","","",""
"","","","","","html-keyboard-response","19","605464","0.0-6.0-0.4","AKVDK30EEV08C","2022-05-19T04:38:39.894Z","phon_sim-task_switching-rhyme-same_different","","null","phon_sim","<div style=""display:grid""><h1 id=""word_1"" style=""grid-column:1; grid-row:1"">wart</h1><h1 id=""word_2"" style=""visibility:hidden;grid-column:1; grid-row:1"">caught</h1><h1 id=""word_3"" style=""visibility:hidden;grid-column:1; grid-row:1"">sort</h1><h1 id=""word_4"" style=""visibility:hidden;grid-column:1; grid-row:1"">taut</h1><h1 id=""word_5"" style=""visibility:hidden;grid-column:1; grid-row:1"">bought</h1></div>","null","experiment","wart","caught","sort","taut","bought","phonSet","","","","","","","","","","","","","","","","","","","","","","","","","","","",""
"","","","","","survey-text","20","642676","0.0-6.0-1.4","AKVDK30EEV08C","2022-05-19T04:38:39.894Z","phon_sim-task_switching-rhyme-same_different","","37208.09999996424","phon_sim","","{""position_1"":""wart"",""position_2"":""caught"",""position_3"":""sought"",""position_4"":""bought"",""position_5"":""""}","experiment","","","","","","","wart","caught","sought","bought","","","","","","","","","","","","","","","","","","","","","","","",""
"","","","","","html-keyboard-response","21","655694","0.0-6.0-0.5","AKVDK30EEV08C","2022-05-19T04:38:39.894Z","phon_sim-task_switching-rhyme-same_different","","null","phon_sim","<div style=""display:grid""><h1 id=""word_1"" style=""grid-column:1; grid-row:1"">sort</h1><h1 id=""word_2"" style=""visibility:hidden;grid-column:1; grid-row:1"">taut</h1><h1 id=""word_3"" style=""visibility:hidden;grid-column:1; grid-row:1"">wart</h1><h1 id=""word_4"" style=""visibility:hidden;grid-column:1; grid-row:1"">caught</h1><h1 id=""word_5"" style=""visibility:hidden;grid-column:1; grid-row:1"">bought</h1></div>","null","experiment","sort","taut","wart","caught","bought","phonSet","","","","","","","","","","","","","","","","","","","","","","","","","","","",""
"","","","","","survey-text","22","673902","0.0-6.0-1.5","AKVDK30EEV08C","2022-05-19T04:38:39.894Z","phon_sim-task_switching-rhyme-same_different","","18204.5","phon_sim","","{""position_1"":""wart"",""position_2"":""sort"",""position_3"":""caught"",""position_4"":""bought"",""position_5"":""""}","experiment","","","","","","","wart","sort","caught","bought","","","","","","","","","","","","","","","","","","","","","","","",""
"","","","","","html-keyboard-response","23","686904","0.0-6.0-0.6","AKVDK30EEV08C","2022-05-19T04:38:39.894Z","phon_sim-task_switching-rhyme-same_different","","null","phon_sim","<div style=""display:grid""><h1 id=""word_1"" style=""grid-column:1; grid-row:1"">bough</h1><h1 id=""word_2"" style=""visibility:hidden;grid-column:1; grid-row:1"">dough</h1><h1 id=""word_3"" style=""visibility:hidden;grid-column:1; grid-row:1"">cough</h1><h1 id=""word_4"" style=""visibility:hidden;grid-column:1; grid-row:1"">through</h1><h1 id=""word_5"" style=""visibility:hidden;grid-column:1; grid-row:1"">rough</h1></div>","null","experiment","bough","dough","cough","through","rough","orthoSet","","","","","","","","","","","","","","","","","","","","","","","","","","","",""
"","","","","","survey-text","24","704976","0.0-6.0-1.6","AKVDK30EEV08C","2022-05-19T04:38:39.894Z","phon_sim-task_switching-rhyme-same_different","","18069.600000023842","phon_sim","","{""position_1"":""bough"",""position_2"":""dough"",""position_3"":""through"",""position_4"":""caught"",""position_5"":""rough""}","experiment","","","","","","","bough","dough","through","caught","rough","","","","","","","","","","","","","","","","","","","","","","",""
"","","","","","html-keyboard-response","25","717978","0.0-6.0-0.7","AKVDK30EEV08C","2022-05-19T04:38:39.894Z","phon_sim-task_switching-rhyme-same_different","","null","phon_sim","<div style=""display:grid""><h1 id=""word_1"" style=""grid-column:1; grid-row:1"">friend</h1><h1 id=""word_2"" style=""visibility:hidden;grid-column:1; grid-row:1"">board</h1><h1 id=""word_3"" style=""visibility:hidden;grid-column:1; grid-row:1"">row</h1><h1 id=""word_4"" style=""visibility:hidden;grid-column:1; grid-row:1"">sleigh</h1><h1 id=""word_5"" style=""visibility:hidden;grid-column:1; grid-row:1"">plea</h1></div>","null","experiment","friend","board","row","sleigh","plea","controlSet","","","","","","","","","","","","","","","","","","","","","","","","","","","",""
"","","","","","survey-text","26","740378","0.0-6.0-1.7","AKVDK30EEV08C","2022-05-19T04:38:39.894Z","phon_sim-task_switching-rhyme-same_different","","22396.600000023842","phon_sim","","{""position_1"":""friend"",""position_2"":""board"",""position_3"":""row"",""position_4"":""sleigh"",""position_5"":""plea""}","experiment","","","","","","","friend","board","row","sleigh","plea","","","","","","","","","","","","","","","","","","","","","","",""
"","","","","","html-keyboard-response","27","753380","0.0-6.0-0.8","AKVDK30EEV08C","2022-05-19T04:38:39.894Z","phon_sim-task_switching-rhyme-same_different","","null","phon_sim","<div style=""display:grid""><h1 id=""word_1"" style=""grid-column:1; grid-row:1"">board</h1><h1 id=""word_2"" style=""visibility:hidden;grid-column:1; grid-row:1"">sleigh</h1><h1 id=""word_3"" style=""visibility:hidden;grid-column:1; grid-row:1"">friend</h1><h1 id=""word_4"" style=""visibility:hidden;grid-column:1; grid-row:1"">plea</h1><h1 id=""word_5"" style=""visibility:hidden;grid-column:1; grid-row:1"">row</h1></div>","null","experiment","board","sleigh","friend","plea","row","controlSet","","","","","","","","","","","","","","","","","","","","","","","","","","","",""
"","","","","","survey-text","28","772550","0.0-6.0-1.8","AKVDK30EEV08C","2022-05-19T04:38:39.894Z","phon_sim-task_switching-rhyme-same_different","","19168.30000001192","phon_sim","","{""position_1"":""board"",""position_2"":""sleigh"",""position_3"":""friend"",""position_4"":""plea"",""position_5"":""row""}","experiment","","","","","","","board","sleigh","friend","plea","row","","","","","","","","","","","","","","","","","","","","","","",""
"","","","","","html-keyboard-response","29","785568","0.0-6.0-0.9","AKVDK30EEV08C","2022-05-19T04:38:39.894Z","phon_sim-task_switching-rhyme-same_different","","null","phon_sim","<div style=""display:grid""><h1 id=""word_1"" style=""grid-column:1; grid-row:1"">through</h1><h1 id=""word_2"" style=""visibility:hidden;grid-column:1; grid-row:1"">rough</h1><h1 id=""word_3"" style=""visibility:hidden;grid-column:1; grid-row:1"">cough</h1><h1 id=""word_4"" style=""visibility:hidden;grid-column:1; grid-row:1"">bough</h1><h1 id=""word_5"" style=""visibility:hidden;grid-column:1; grid-row:1"">dough</h1></div>","null","experiment","through","rough","cough","bough","dough","orthoSet","","","","","","","","","","","","","","","","","","","","","","","","","","","",""
"","","","","","survey-text","30","803690","0.0-6.0-1.9","AKVDK30EEV08C","2022-05-19T04:38:39.894Z","phon_sim-task_switching-rhyme-same_different","","18119.100000023842","phon_sim","","{""position_1"":""through"",""position_2"":""rough"",""position_3"":""cough"",""position_4"":""bough"",""position_5"":""dough""}","experiment","","","","","","","through","rough","cough","bough","dough","","","","","","","","","","","","","","","","","","","","","","",""
"","","","","","html-keyboard-response","31","816704","0.0-6.0-0.10","AKVDK30EEV08C","2022-05-19T04:38:39.894Z","phon_sim-task_switching-rhyme-same_different","","null","phon_sim","<div style=""display:grid""><h1 id=""word_1"" style=""grid-column:1; grid-row:1"">caught</h1><h1 id=""word_2"" style=""visibility:hidden;grid-column:1; grid-row:1"">wart</h1><h1 id=""word_3"" style=""visibility:hidden;grid-column:1; grid-row:1"">bought</h1><h1 id=""word_4"" style=""visibility:hidden;grid-column:1; grid-row:1"">sort</h1><h1 id=""word_5"" style=""visibility:hidden;grid-column:1; grid-row:1"">taut</h1></div>","null","experiment","caught","wart","bought","sort","taut","phonSet","","","","","","","","","","","","","","","","","","","","","","","","","","","",""
"","","","","","survey-text","32","831825","0.0-6.0-1.10","AKVDK30EEV08C","2022-05-19T04:38:39.894Z","phon_sim-task_switching-rhyme-same_different","","15117.699999988079","phon_sim","","{""position_1"":""caught"",""position_2"":""board"",""position_3"":""sort"",""position_4"":""taut"",""position_5"":""""}","experiment","","","","","","","caught","board","sort","taut","","","","","","","","","","","","","","","","","","","","","","","",""
"","","","","","html-keyboard-response","33","844828","0.0-6.0-0.11","AKVDK30EEV08C","2022-05-19T04:38:39.894Z","phon_sim-task_switching-rhyme-same_different","","null","phon_sim","<div style=""display:grid""><h1 id=""word_1"" style=""grid-column:1; grid-row:1"">rough</h1><h1 id=""word_2"" style=""visibility:hidden;grid-column:1; grid-row:1"">bough</h1><h1 id=""word_3"" style=""visibility:hidden;grid-column:1; grid-row:1"">dough</h1><h1 id=""word_4"" style=""visibility:hidden;grid-column:1; grid-row:1"">through</h1><h1 id=""word_5"" style=""visibility:hidden;grid-column:1; grid-row:1"">cough</h1></div>","null","experiment","rough","bough","dough","through","cough","orthoSet","","","","","","","","","","","","","","","","","","","","","","","","","","","",""
"","","","","","survey-text","34","860472","0.0-6.0-1.11","AKVDK30EEV08C","2022-05-19T04:38:39.894Z","phon_sim-task_switching-rhyme-same_different","","15641","phon_sim","","{""position_1"":""rough"",""position_2"":""bough"",""position_3"":""dough"",""position_4"":""through"",""position_5"":""cough""}","experiment","","","","","","","rough","bough","dough","through","cough","","","","","","","","","","","","","","","","","","","","","","",""
"","","","","","html-keyboard-response","35","873489","0.0-6.0-0.12","AKVDK30EEV08C","2022-05-19T04:38:39.894Z","phon_sim-task_switching-rhyme-same_different","","null","phon_sim","<div style=""display:grid""><h1 id=""word_1"" style=""grid-column:1; grid-row:1"">rough</h1><h1 id=""word_2"" style=""visibility:hidden;grid-column:1; grid-row:1"">through</h1><h1 id=""word_3"" style=""visibility:hidden;grid-column:1; grid-row:1"">bough</h1><h1 id=""word_4"" style=""visibility:hidden;grid-column:1; grid-row:1"">cough</h1><h1 id=""word_5"" style=""visibility:hidden;grid-column:1; grid-row:1"">dough</h1></div>","null","experiment","rough","through","bough","cough","dough","orthoSet","","","","","","","","","","","","","","","","","","","","","","","","","","","",""
"","","","","","survey-text","36","895229","0.0-6.0-1.12","AKVDK30EEV08C","2022-05-19T04:38:39.894Z","phon_sim-task_switching-rhyme-same_different","","21737.200000047684","phon_sim","","{""position_1"":""rough"",""position_2"":""through"",""position_3"":""bough"",""position_4"":""cough"",""position_5"":""dough""}","experiment","","","","","","","rough","through","bough","cough","dough","","","","","","","","","","","","","","","","","","","","","","",""
"","","","","","html-keyboard-response","37","908252","0.0-6.0-0.13","AKVDK30EEV08C","2022-05-19T04:38:39.894Z","phon_sim-task_switching-rhyme-same_different","","null","phon_sim","<div style=""display:grid""><h1 id=""word_1"" style=""grid-column:1; grid-row:1"">plea</h1><h1 id=""word_2"" style=""visibility:hidden;grid-column:1; grid-row:1"">row</h1><h1 id=""word_3"" style=""visibility:hidden;grid-column:1; grid-row:1"">sleigh</h1><h1 id=""word_4"" style=""visibility:hidden;grid-column:1; grid-row:1"">board</h1><h1 id=""word_5"" style=""visibility:hidden;grid-column:1; grid-row:1"">friend</h1></div>","null","experiment","plea","row","sleigh","board","friend","controlSet","","","","","","","","","","","","","","","","","","","","","","","","","","","",""
"","","","","","survey-text","38","924587","0.0-6.0-1.13","AKVDK30EEV08C","2022-05-19T04:38:39.894Z","phon_sim-task_switching-rhyme-same_different","","16330.399999976158","phon_sim","","{""position_1"":""plea"",""position_2"":""row"",""position_3"":""sleigh"",""position_4"":""board"",""position_5"":""friend""}","experiment","","","","","","","plea","row","sleigh","board","friend","","","","","","","","","","","","","","","","","","","","","","",""
"","","","","","html-keyboard-response","39","937591","0.0-6.0-0.14","AKVDK30EEV08C","2022-05-19T04:38:39.894Z","phon_sim-task_switching-rhyme-same_different","","null","phon_sim","<div style=""display:grid""><h1 id=""word_1"" style=""grid-column:1; grid-row:1"">bought</h1><h1 id=""word_2"" style=""visibility:hidden;grid-column:1; grid-row:1"">taut</h1><h1 id=""word_3"" style=""visibility:hidden;grid-column:1; grid-row:1"">sort</h1><h1 id=""word_4"" style=""visibility:hidden;grid-column:1; grid-row:1"">wart</h1><h1 id=""word_5"" style=""visibility:hidden;grid-column:1; grid-row:1"">caught</h1></div>","null","experiment","bought","taut","sort","wart","caught","phonSet","","","","","","","","","","","","","","","","","","","","","","","","","","","",""
"","","","","","survey-text","40","958995","0.0-6.0-1.14","AKVDK30EEV08C","2022-05-19T04:38:39.894Z","phon_sim-task_switching-rhyme-same_different","","21401.5","phon_sim","","{""position_1"":""bought"",""position_2"":""taught"",""position_3"":""sort"",""position_4"":""wart"",""position_5"":""caught""}","experiment","","","","","","","bought","taught","sort","wart","caught","","","","","","","","","","","","","","","","","","","","","","",""
"","","","","","html-keyboard-response","41","972010","0.0-6.0-0.15","AKVDK30EEV08C","2022-05-19T04:38:39.894Z","phon_sim-task_switching-rhyme-same_different","","null","phon_sim","<div style=""display:grid""><h1 id=""word_1"" style=""grid-column:1; grid-row:1"">sort</h1><h1 id=""word_2"" style=""visibility:hidden;grid-column:1; grid-row:1"">taut</h1><h1 id=""word_3"" style=""visibility:hidden;grid-column:1; grid-row:1"">wart</h1><h1 id=""word_4"" style=""visibility:hidden;grid-column:1; grid-row:1"">caught</h1><h1 id=""word_5"" style=""visibility:hidden;grid-column:1; grid-row:1"">bought</h1></div>","null","experiment","sort","taut","wart","caught","bought","phonSet","","","","","","","","","","","","","","","","","","","","","","","","","","","",""
"","","","","","survey-text","42","989062","0.0-6.0-1.15","AKVDK30EEV08C","2022-05-19T04:38:39.894Z","phon_sim-task_switching-rhyme-same_different","","17049.5","phon_sim","","{""position_1"":""sort"",""position_2"":""taught"",""position_3"":""wart"",""position_4"":""caught"",""position_5"":""bought""}","experiment","","","","","","","sort","taught","wart","caught","bought","","","","","","","","","","","","","","","","","","","","","","",""
"","","","","","html-keyboard-response","43","1002068","0.0-6.0-0.16","AKVDK30EEV08C","2022-05-19T04:38:39.894Z","phon_sim-task_switching-rhyme-same_different","","null","phon_sim","<div style=""display:grid""><h1 id=""word_1"" style=""grid-column:1; grid-row:1"">through</h1><h1 id=""word_2"" style=""visibility:hidden;grid-column:1; grid-row:1"">dough</h1><h1 id=""word_3"" style=""visibility:hidden;grid-column:1; grid-row:1"">cough</h1><h1 id=""word_4"" style=""visibility:hidden;grid-column:1; grid-row:1"">rough</h1><h1 id=""word_5"" style=""visibility:hidden;grid-column:1; grid-row:1"">bough</h1></div>","null","experiment","through","dough","cough","rough","bough","orthoSet","","","","","","","","","","","","","","","","","","","","","","","","","","","",""
"","","","","","survey-text","44","1019355","0.0-6.0-1.16","AKVDK30EEV08C","2022-05-19T04:38:39.894Z","phon_sim-task_switching-rhyme-same_different","","17284.299999952316","phon_sim","","{""position_1"":""through"",""position_2"":""dough"",""position_3"":""cough"",""position_4"":""rough"",""position_5"":""bough""}","experiment","","","","","","","through","dough","cough","rough","bough","","","","","","","","","","","","","","","","","","","","","","",""
"","","","","","html-keyboard-response","45","1032358","0.0-6.0-0.17","AKVDK30EEV08C","2022-05-19T04:38:39.894Z","phon_sim-task_switching-rhyme-same_different","","null","phon_sim","<div style=""display:grid""><h1 id=""word_1"" style=""grid-column:1; grid-row:1"">caught</h1><h1 id=""word_2"" style=""visibility:hidden;grid-column:1; grid-row:1"">sort</h1><h1 id=""word_3"" style=""visibility:hidden;grid-column:1; grid-row:1"">taut</h1><h1 id=""word_4"" style=""visibility:hidden;grid-column:1; grid-row:1"">wart</h1><h1 id=""word_5"" style=""visibility:hidden;grid-column:1; grid-row:1"">bought</h1></div>","null","experiment","caught","sort","taut","wart","bought","phonSet","","","","","","","","","","","","","","","","","","","","","","","","","","","",""
"","","","","","survey-text","46","1048519","0.0-6.0-1.17","AKVDK30EEV08C","2022-05-19T04:38:39.894Z","phon_sim-task_switching-rhyme-same_different","","16158.199999988079","phon_sim","","{""position_1"":""caught"",""position_2"":""sort"",""position_3"":""taught"",""position_4"":""wart"",""position_5"":""bought""}","experiment","","","","","","","caught","sort","taught","wart","bought","","","","","","","","","","","","","","","","","","","","","","",""
"","","","","","html-keyboard-response","47","1061530","0.0-6.0-0.18","AKVDK30EEV08C","2022-05-19T04:38:39.894Z","phon_sim-task_switching-rhyme-same_different","","null","phon_sim","<div style=""display:grid""><h1 id=""word_1"" style=""grid-column:1; grid-row:1"">sort</h1><h1 id=""word_2"" style=""visibility:hidden;grid-column:1; grid-row:1"">taut</h1><h1 id=""word_3"" style=""visibility:hidden;grid-column:1; grid-row:1"">caught</h1><h1 id=""word_4"" style=""visibility:hidden;grid-column:1; grid-row:1"">bought</h1><h1 id=""word_5"" style=""visibility:hidden;grid-column:1; grid-row:1"">wart</h1></div>","null","experiment","sort","taut","caught","bought","wart","phonSet","","","","","","","","","","","","","","","","","","","","","","","","","","","",""
"","","","","","survey-text","48","1078692","0.0-6.0-1.18","AKVDK30EEV08C","2022-05-19T04:38:39.894Z","phon_sim-task_switching-rhyme-same_different","","17158.700000047684","phon_sim","","{""position_1"":""sort"",""position_2"":""caught"",""position_3"":""taught"",""position_4"":""bought"",""position_5"":""wart""}","experiment","","","","","","","sort","caught","taught","bought","wart","","","","","","","","","","","","","","","","","","","","","","",""
"","","","","","html-keyboard-response","49","1091696","0.0-6.0-0.19","AKVDK30EEV08C","2022-05-19T04:38:39.894Z","phon_sim-task_switching-rhyme-same_different","","null","phon_sim","<div style=""display:grid""><h1 id=""word_1"" style=""grid-column:1; grid-row:1"">sleigh</h1><h1 id=""word_2"" style=""visibility:hidden;grid-column:1; grid-row:1"">friend</h1><h1 id=""word_3"" style=""visibility:hidden;grid-column:1; grid-row:1"">row</h1><h1 id=""word_4"" style=""visibility:hidden;grid-column:1; grid-row:1"">board</h1><h1 id=""word_5"" style=""visibility:hidden;grid-column:1; grid-row:1"">plea</h1></div>","null","experiment","sleigh","friend","row","board","plea","controlSet","","","","","","","","","","","","","","","","","","","","","","","","","","","",""
"","","","","","survey-text","50","1106748","0.0-6.0-1.19","AKVDK30EEV08C","2022-05-19T04:38:39.894Z","phon_sim-task_switching-rhyme-same_different","","15048.5","phon_sim","","{""position_1"":""sleigh"",""position_2"":""friend"",""position_3"":""row"",""position_4"":""board"",""position_5"":""plea""}","experiment","","","","","","","sleigh","friend","row","board","plea","","","","","","","","","","","","","","","","","","","","","","",""
"","","","","","html-keyboard-response","51","1119750","0.0-6.0-0.20","AKVDK30EEV08C","2022-05-19T04:38:39.894Z","phon_sim-task_switching-rhyme-same_different","","null","phon_sim","<div style=""display:grid""><h1 id=""word_1"" style=""grid-column:1; grid-row:1"">rough</h1><h1 id=""word_2"" style=""visibility:hidden;grid-column:1; grid-row:1"">dough</h1><h1 id=""word_3"" style=""visibility:hidden;grid-column:1; grid-row:1"">bough</h1><h1 id=""word_4"" style=""visibility:hidden;grid-column:1; grid-row:1"">cough</h1><h1 id=""word_5"" style=""visibility:hidden;grid-column:1; grid-row:1"">through</h1></div>","null","experiment","rough","dough","bough","cough","through","orthoSet","","","","","","","","","","","","","","","","","","","","","","","","","","","",""
"","","","","","survey-text","52","1137585","0.0-6.0-1.20","AKVDK30EEV08C","2022-05-19T04:38:39.894Z","phon_sim-task_switching-rhyme-same_different","","17831.599999964237","phon_sim","","{""position_1"":""rough"",""position_2"":""dough"",""position_3"":""bough"",""position_4"":""cough"",""position_5"":""through""}","experiment","","","","","","","rough","dough","bough","cough","through","","","","","","","","","","","","","","","","","","","","","","",""
"","","","","","html-keyboard-response","53","1150595","0.0-6.0-0.21","AKVDK30EEV08C","2022-05-19T04:38:39.894Z","phon_sim-task_switching-rhyme-same_different","","null","phon_sim","<div style=""display:grid""><h1 id=""word_1"" style=""grid-column:1; grid-row:1"">board</h1><h1 id=""word_2"" style=""visibility:hidden;grid-column:1; grid-row:1"">sleigh</h1><h1 id=""word_3"" style=""visibility:hidden;grid-column:1; grid-row:1"">plea</h1><h1 id=""word_4"" style=""visibility:hidden;grid-column:1; grid-row:1"">row</h1><h1 id=""word_5"" style=""visibility:hidden;grid-column:1; grid-row:1"">friend</h1></div>","null","experiment","board","sleigh","plea","row","friend","controlSet","","","","","","","","","","","","","","","","","","","","","","","","","","","",""
"","","","","","survey-text","54","1167011","0.0-6.0-1.21","AKVDK30EEV08C","2022-05-19T04:38:39.894Z","phon_sim-task_switching-rhyme-same_different","","16413.399999976158","phon_sim","","{""position_1"":""board"",""position_2"":""sleigh"",""position_3"":""plea"",""position_4"":""row"",""position_5"":""friend""}","experiment","","","","","","","board","sleigh","plea","row","friend","","","","","","","","","","","","","","","","","","","","","","",""
"","","","","","html-keyboard-response","55","1180013","0.0-6.0-0.22","AKVDK30EEV08C","2022-05-19T04:38:39.894Z","phon_sim-task_switching-rhyme-same_different","","null","phon_sim","<div style=""display:grid""><h1 id=""word_1"" style=""grid-column:1; grid-row:1"">sort</h1><h1 id=""word_2"" style=""visibility:hidden;grid-column:1; grid-row:1"">taut</h1><h1 id=""word_3"" style=""visibility:hidden;grid-column:1; grid-row:1"">bought</h1><h1 id=""word_4"" style=""visibility:hidden;grid-column:1; grid-row:1"">caught</h1><h1 id=""word_5"" style=""visibility:hidden;grid-column:1; grid-row:1"">wart</h1></div>","null","experiment","sort","taut","bought","caught","wart","phonSet","","","","","","","","","","","","","","","","","","","","","","","","","","","",""
"","","","","","survey-text","56","1198742","0.0-6.0-1.22","AKVDK30EEV08C","2022-05-19T04:38:39.894Z","phon_sim-task_switching-rhyme-same_different","","18726.5","phon_sim","","{""position_1"":""sort"",""position_2"":""taught"",""position_3"":""caught"",""position_4"":""bought"",""position_5"":""wart""}","experiment","","","","","","","sort","taught","caught","bought","wart","","","","","","","","","","","","","","","","","","","","","","",""
"","","","","","html-keyboard-response","57","1211756","0.0-6.0-0.23","AKVDK30EEV08C","2022-05-19T04:38:39.894Z","phon_sim-task_switching-rhyme-same_different","","null","phon_sim","<div style=""display:grid""><h1 id=""word_1"" style=""grid-column:1; grid-row:1"">board</h1><h1 id=""word_2"" style=""visibility:hidden;grid-column:1; grid-row:1"">plea</h1><h1 id=""word_3"" style=""visibility:hidden;grid-column:1; grid-row:1"">sleigh</h1><h1 id=""word_4"" style=""visibility:hidden;grid-column:1; grid-row:1"">row</h1><h1 id=""word_5"" style=""visibility:hidden;grid-column:1; grid-row:1"">friend</h1></div>","null","experiment","board","plea","sleigh","row","friend","controlSet","","","","","","","","","","","","","","","","","","","","","","","","","","","",""
"","","","","","survey-text","58","1230210","0.0-6.0-1.23","AKVDK30EEV08C","2022-05-19T04:38:39.894Z","phon_sim-task_switching-rhyme-same_different","","18451.30000001192","phon_sim","","{""position_1"":""board"",""position_2"":""plea"",""position_3"":""sleigh"",""position_4"":""row"",""position_5"":""friend""}","experiment","","","","","","","board","plea","sleigh","row","friend","","","","","","","","","","","","","","","","","","","","","","",""
"","","","","","survey-multi-choice","59","1238098","0.0-7.0","AKVDK30EEV08C","2022-05-19T04:38:39.894Z","phon_sim-task_switching-rhyme-same_different","","7886.399999976158","phon_sim","","{""Q0"":""Yes""}","","","","","","","","","","","","","[0]","Yes","","","","","","","","","","","","","","","","","","","","",""
"","","","","","survey-text","60","1244027","0.0-8.0","AKVDK30EEV08C","2022-05-19T04:38:39.894Z","phon_sim-task_switching-rhyme-same_different","","5926.100000023842","phon_sim","","{""Q0"":""""}","","","","","","","","","","","","","","","","","","","","","","","","","","","","","","","","","","",""
"","","","","","instructions","61","1246255","0.0-9.0","AKVDK30EEV08C","2022-05-19T04:38:39.894Z","phon_sim-task_switching-rhyme-same_different","[{""page_index"":0,""viewing_time"":2226.699999988079}]","2227","phon_sim","","","","","","","","","","","","","","","","","","","","","","","","","","","","","","","","","","","","",""
"","","","","","instructions","62","1344455","0.0-10.0","AKVDK30EEV08C","2022-05-19T04:38:39.894Z","phon_sim-task_switching-rhyme-same_different","[{""page_index"":0,""viewing_time"":98199.10000002384}]","98199.40000003576","task_switching","","","","","","","","","","","","","","","","","","","","","","","","","","","","","","","","","","","","",""
"","","","","","instructions","63","1359540","0.0-11.0","AKVDK30EEV08C","2022-05-19T04:38:39.894Z","phon_sim-task_switching-rhyme-same_different","[{""page_index"":0,""viewing_time"":15084}]","15084.400000035763","task_switching","","","","","","","","","","","","","","","","","","","","","","","","","","","","","","","","","","","","",""
"","","","","","survey-text","64","1368374","0.0-12.0","AKVDK30EEV08C","2022-05-19T04:38:39.894Z","phon_sim-task_switching-rhyme-same_different","","8830.200000047684","task_switching","85","{""subtraction_ans"":""82""}","training","","","","","","","","","","","","","","","subtraction","82","true","subtract","","","","","","","","","","","","","","","",""
"","","","","","html-keyboard-response","65","1369391","0.0-13.0","AKVDK30EEV08C","2022-05-19T04:38:39.894Z","phon_sim-task_switching-rhyme-same_different","","null","task_switching","<div style=""color:darkgreen; font-size:60px"">Well done!</div>","null","training","","","","","","","","","","","","","","","subtraction","","","","","","","","","","","","","","","","","","",""
"","","","","","survey-text","66","1374630","0.0-14.0","AKVDK30EEV08C","2022-05-19T04:38:39.894Z","phon_sim-task_switching-rhyme-same_different","","5237.5","task_switching","68","{""subtraction_ans"":""65""}","training","","","","","","","","","","","","","","","subtraction","65","true","subtract","","","","","","","","","","","","","","","",""
"","","","","","html-keyboard-response","67","1375635","0.0-15.0","AKVDK30EEV08C","2022-05-19T04:38:39.894Z","phon_sim-task_switching-rhyme-same_different","","null","task_switching","<div style=""color:darkgreen; font-size:60px"">Well done!</div>","null","training","","","","","","","","","","","","","","","subtraction","","","","","","","","","","","","","","","","","","",""
"","","","","","survey-text","68","1379744","0.0-16.0","AKVDK30EEV08C","2022-05-19T04:38:39.894Z","phon_sim-task_switching-rhyme-same_different","","4106.5","task_switching","19","{""subtraction_ans"":""16""}","training","","","","","","","","","","","","","","","subtraction","16","true","subtract","","","","","","","","","","","","","","","",""
"","","","","","html-keyboard-response","69","1380760","0.0-17.0","AKVDK30EEV08C","2022-05-19T04:38:39.894Z","phon_sim-task_switching-rhyme-same_different","","null","task_switching","<div style=""color:darkgreen; font-size:60px"">Well done!</div>","null","training","","","","","","","","","","","","","","","subtraction","","","","","","","","","","","","","","","","","","",""
"","","","","","survey-text","70","1384467","0.0-18.0","AKVDK30EEV08C","2022-05-19T04:38:39.894Z","phon_sim-task_switching-rhyme-same_different","","3705.100000023842","task_switching","46","{""subtraction_ans"":""43""}","training","","","","","","","","","","","","","","","subtraction","43","true","subtract","","","","","","","","","","","","","","","",""
"","","","","","html-keyboard-response","71","1385470","0.0-19.0","AKVDK30EEV08C","2022-05-19T04:38:39.894Z","phon_sim-task_switching-rhyme-same_different","","null","task_switching","<div style=""color:darkgreen; font-size:60px"">Well done!</div>","null","training","","","","","","","","","","","","","","","subtraction","","","","","","","","","","","","","","","","","","",""
"","","","","","survey-text","72","1389962","0.0-20.0","AKVDK30EEV08C","2022-05-19T04:38:39.894Z","phon_sim-task_switching-rhyme-same_different","","4490.800000011921","task_switching","49","{""subtraction_ans"":""46""}","training","","","","","","","","","","","","","","","subtraction","46","true","subtract","","","","","","","","","","","","","","","",""
"","","","","","html-keyboard-response","73","1390966","0.0-21.0","AKVDK30EEV08C","2022-05-19T04:38:39.894Z","phon_sim-task_switching-rhyme-same_different","","null","task_switching","<div style=""color:darkgreen; font-size:60px"">Well done!</div>","null","training","","","","","","","","","","","","","","","subtraction","","","","","","","","","","","","","","","","","","",""
"","","","","","survey-text","74","1399111","0.0-22.0","AKVDK30EEV08C","2022-05-19T04:38:39.894Z","phon_sim-task_switching-rhyme-same_different","","8143.599999964237","task_switching","61","{""subtraction_ans"":""58""}","training","","","","","","","","","","","","","","","subtraction","58","true","subtract","","","","","","","","","","","","","","","",""
"","","","","","html-keyboard-response","75","1400117","0.0-23.0","AKVDK30EEV08C","2022-05-19T04:38:39.894Z","phon_sim-task_switching-rhyme-same_different","","null","task_switching","<div style=""color:darkgreen; font-size:60px"">Well done!</div>","null","training","","","","","","","","","","","","","","","subtraction","","","","","","","","","","","","","","","","","","",""
"","","","","","survey-text","76","1402694","0.0-24.0","AKVDK30EEV08C","2022-05-19T04:38:39.894Z","phon_sim-task_switching-rhyme-same_different","","2575.699999988079","task_switching","33","{""subtraction_ans"":""30""}","training","","","","","","","","","","","","","","","subtraction","30","true","subtract","","","","","","","","","","","","","","","",""
"","","","","","html-keyboard-response","77","1403707","0.0-25.0","AKVDK30EEV08C","2022-05-19T04:38:39.894Z","phon_sim-task_switching-rhyme-same_different","","null","task_switching","<div style=""color:darkgreen; font-size:60px"">Well done!</div>","null","training","","","","","","","","","","","","","","","subtraction","","","","","","","","","","","","","","","","","","",""
"","","","","","survey-text","78","1407102","0.0-26.0","AKVDK30EEV08C","2022-05-19T04:38:39.894Z","phon_sim-task_switching-rhyme-same_different","","3393.399999976158","task_switching","95","{""subtraction_ans"":""92""}","training","","","","","","","","","","","","","","","subtraction","92","true","subtract","","","","","","","","","","","","","","","",""
"","","","","","html-keyboard-response","79","1408114","0.0-27.0","AKVDK30EEV08C","2022-05-19T04:38:39.894Z","phon_sim-task_switching-rhyme-same_different","","null","task_switching","<div style=""color:darkgreen; font-size:60px"">Well done!</div>","null","training","","","","","","","","","","","","","","","subtraction","","","","","","","","","","","","","","","","","","",""
"","","","","","survey-text","80","1418166","0.0-28.0","AKVDK30EEV08C","2022-05-19T04:38:39.894Z","phon_sim-task_switching-rhyme-same_different","","10050","task_switching","71","{""subtraction_ans"":""68""}","training","","","","","","","","","","","","","","","subtraction","68","true","subtract","","","","","","","","","","","","","","","",""
"","","","","","html-keyboard-response","81","1419181","0.0-29.0","AKVDK30EEV08C","2022-05-19T04:38:39.894Z","phon_sim-task_switching-rhyme-same_different","","null","task_switching","<div style=""color:darkgreen; font-size:60px"">Well done!</div>","null","training","","","","","","","","","","","","","","","subtraction","","","","","","","","","","","","","","","","","","",""
"","","","","","survey-text","82","1423014","0.0-30.0","AKVDK30EEV08C","2022-05-19T04:38:39.894Z","phon_sim-task_switching-rhyme-same_different","","3831.2999999523163","task_switching","18","{""subtraction_ans"":""15""}","training","","","","","","","","","","","","","","","subtraction","15","true","subtract","","","","","","","","","","","","","","","",""
"","","","","","html-keyboard-response","83","1424026","0.0-31.0","AKVDK30EEV08C","2022-05-19T04:38:39.894Z","phon_sim-task_switching-rhyme-same_different","","null","task_switching","<div style=""color:darkgreen; font-size:60px"">Well done!</div>","null","training","","","","","","","","","","","","","","","subtraction","","","","","","","","","","","","","","","","","","",""
"","","","","","instructions","84","1432755","0.0-32.0","AKVDK30EEV08C","2022-05-19T04:38:39.894Z","phon_sim-task_switching-rhyme-same_different","[{""page_index"":0,""viewing_time"":8728.300000011921}]","8728.600000023842","task_switching","","","","","","","","","","","","","","","","","","","","","","","","","","","","","","","","","","","","",""
"","","","","","survey-text","85","1438886","0.0-33.0","AKVDK30EEV08C","2022-05-19T04:38:39.894Z","phon_sim-task_switching-rhyme-same_different","","6128.800000011921","task_switching","25","{""subtraction_ans"":""22""}","experiment","","","","","","","","","","","","","","","subtraction","22","true","subtract","","","","","","","","","","","","","","","",""
"","","","","","survey-text","86","1441918","0.0-34.0","AKVDK30EEV08C","2022-05-19T04:38:39.894Z","phon_sim-task_switching-rhyme-same_different","","3028.599999964237","task_switching","43","{""subtraction_ans"":""40""}","experiment","","","","","","","","","","","","","","","subtraction","40","true","subtract","","","","","","","","","","","","","","","",""
"","","","","","survey-text","87","1445142","0.0-35.0","AKVDK30EEV08C","2022-05-19T04:38:39.894Z","phon_sim-task_switching-rhyme-same_different","","3220.899999976158","task_switching","46","{""subtraction_ans"":""43""}","experiment","","","","","","","","","","","","","","","subtraction","43","true","subtract","","","","","","","","","","","","","","","",""
"","","","","","survey-text","88","1449102","0.0-36.0","AKVDK30EEV08C","2022-05-19T04:38:39.894Z","phon_sim-task_switching-rhyme-same_different","","3956.7999999523163","task_switching","35","{""subtraction_ans"":""32""}","experiment","","","","","","","","","","","","","","","subtraction","32","true","subtract","","","","","","","","","","","","","","","",""
"","","","","","survey-text","89","1455166","0.0-37.0","AKVDK30EEV08C","2022-05-19T04:38:39.894Z","phon_sim-task_switching-rhyme-same_different","","6060.299999952316","task_switching","86","{""subtraction_ans"":""83""}","experiment","","","","","","","","","","","","","","","subtraction","83","true","subtract","","","","","","","","","","","","","","","",""
"","","","","","survey-text","90","1458414","0.0-38.0","AKVDK30EEV08C","2022-05-19T04:38:39.894Z","phon_sim-task_switching-rhyme-same_different","","3245.199999988079","task_switching","16","{""subtraction_ans"":""13""}","experiment","","","","","","","","","","","","","","","subtraction","13","true","subtract","","","","","","","","","","","","","","","",""
"","","","","","survey-text","91","1462567","0.0-39.0","AKVDK30EEV08C","2022-05-19T04:38:39.894Z","phon_sim-task_switching-rhyme-same_different","","4149.199999988079","task_switching","32","{""subtraction_ans"":""29""}","experiment","","","","","","","","","","","","","","","subtraction","29","true","subtract","","","","","","","","","","","","","","","",""
"","","","","","survey-text","92","1466615","0.0-40.0","AKVDK30EEV08C","2022-05-19T04:38:39.894Z","phon_sim-task_switching-rhyme-same_different","","4045.100000023842","task_switching","27","{""subtraction_ans"":""24""}","experiment","","","","","","","","","","","","","","","subtraction","24","true","subtract","","","","","","","","","","","","","","","",""
"","","","","","survey-text","93","1469199","0.0-41.0","AKVDK30EEV08C","2022-05-19T04:38:39.894Z","phon_sim-task_switching-rhyme-same_different","","2580.5","task_switching","13","{""subtraction_ans"":""10""}","experiment","","","","","","","","","","","","","","","subtraction","10","true","subtract","","","","","","","","","","","","","","","",""
"","","","","","survey-text","94","1472399","0.0-42.0","AKVDK30EEV08C","2022-05-19T04:38:39.894Z","phon_sim-task_switching-rhyme-same_different","","3196.599999964237","task_switching","61","{""subtraction_ans"":""59""}","experiment","","","","","","","","","","","","","","","subtraction","59","false","subtract","","","","","","","","","","","","","","","",""
"","","","","","survey-text","95","1475912","0.0-43.0","AKVDK30EEV08C","2022-05-19T04:38:39.894Z","phon_sim-task_switching-rhyme-same_different","","3509.800000011921","task_switching","40","{""subtraction_ans"":""37""}","experiment","","","","","","","","","","","","","","","subtraction","37","true","subtract","","","","","","","","","","","","","","","",""
"","","","","","survey-text","96","1479063","0.0-44.0","AKVDK30EEV08C","2022-05-19T04:38:39.894Z","phon_sim-task_switching-rhyme-same_different","","3148.600000023842","task_switching","70","{""subtraction_ans"":""67""}","experiment","","","","","","","","","","","","","","","subtraction","67","true","subtract","","","","","","","","","","","","","","","",""
"","","","","","survey-text","97","1484743","0.0-45.0","AKVDK30EEV08C","2022-05-19T04:38:39.894Z","phon_sim-task_switching-rhyme-same_different","","5677.100000023842","task_switching","80","{""subtraction_ans"":""77""}","experiment","","","","","","","","","","","","","","","subtraction","77","true","subtract","","","","","","","","","","","","","","","",""
"","","","","","survey-text","98","1487367","0.0-46.0","AKVDK30EEV08C","2022-05-19T04:38:39.894Z","phon_sim-task_switching-rhyme-same_different","","2620.699999988079","task_switching","38","{""subtraction_ans"":""35""}","experiment","","","","","","","","","","","","","","","subtraction","35","true","subtract","","","","","","","","","","","","","","","",""
"","","","","","survey-text","99","1490295","0.0-47.0","AKVDK30EEV08C","2022-05-19T04:38:39.894Z","phon_sim-task_switching-rhyme-same_different","","2924.599999964237","task_switching","34","{""subtraction_ans"":""31""}","experiment","","","","","","","","","","","","","","","subtraction","31","true","subtract","","","","","","","","","","","","","","","",""
"","","","","","survey-text","100","1496143","0.0-48.0","AKVDK30EEV08C","2022-05-19T04:38:39.894Z","phon_sim-task_switching-rhyme-same_different","","5844.800000011921","task_switching","24","{""subtraction_ans"":""21""}","experiment","","","","","","","","","","","","","","","subtraction","21","true","subtract","","","","","","","","","","","","","","","",""
"","","","","","survey-text","101","1499135","0.0-49.0","AKVDK30EEV08C","2022-05-19T04:38:39.894Z","phon_sim-task_switching-rhyme-same_different","","2988.899999976158","task_switching","33","{""subtraction_ans"":""30""}","experiment","","","","","","","","","","","","","","","subtraction","30","true","subtract","","","","","","","","","","","","","","","",""
"","","","","","survey-text","102","1501903","0.0-50.0","AKVDK30EEV08C","2022-05-19T04:38:39.894Z","phon_sim-task_switching-rhyme-same_different","","2764.899999976158","task_switching","73","{""subtraction_ans"":""70""}","experiment","","","","","","","","","","","","","","","subtraction","70","true","subtract","","","","","","","","","","","","","","","",""
"","","","","","survey-text","103","1507031","0.0-51.0","AKVDK30EEV08C","2022-05-19T04:38:39.894Z","phon_sim-task_switching-rhyme-same_different","","5125","task_switching","79","{""subtraction_ans"":""76""}","experiment","","","","","","","","","","","","","","","subtraction","76","true","subtract","","","","","","","","","","","","","","","",""
"","","","","","survey-text","104","1509703","0.0-52.0","AKVDK30EEV08C","2022-05-19T04:38:39.894Z","phon_sim-task_switching-rhyme-same_different","","2668.899999976158","task_switching","84","{""subtraction_ans"":""81""}","experiment","","","","","","","","","","","","","","","subtraction","81","true","subtract","","","","","","","","","","","","","","","",""
"","","","","","survey-text","105","1513415","0.0-53.0","AKVDK30EEV08C","2022-05-19T04:38:39.894Z","phon_sim-task_switching-rhyme-same_different","","3707.5","task_switching","37","{""subtraction_ans"":""34""}","experiment","","","","","","","","","","","","","","","subtraction","34","true","subtract","","","","","","","","","","","","","","","",""
"","","","","","survey-text","106","1515975","0.0-54.0","AKVDK30EEV08C","2022-05-19T04:38:39.894Z","phon_sim-task_switching-rhyme-same_different","","2556.600000023842","task_switching","26","{""subtraction_ans"":""23""}","experiment","","","","","","","","","","","","","","","subtraction","23","true","subtract","","","","","","","","","","","","","","","",""
"","","","","","survey-text","107","1522702","0.0-55.0","AKVDK30EEV08C","2022-05-19T04:38:39.894Z","phon_sim-task_switching-rhyme-same_different","","6724.799999952316","task_switching","52","{""subtraction_ans"":""49""}","experiment","","","","","","","","","","","","","","","subtraction","49","true","subtract","","","","","","","","","","","","","","","",""
"","","","","","survey-text","108","1525399","0.0-56.0","AKVDK30EEV08C","2022-05-19T04:38:39.894Z","phon_sim-task_switching-rhyme-same_different","","2692.7999999523163","task_switching","53","{""subtraction_ans"":""50""}","experiment","","","","","","","","","","","","","","","subtraction","50","true","subtract","","","","","","","","","","","","","","","",""
"","","","","","survey-text","109","1530814","0.0-57.0","AKVDK30EEV08C","2022-05-19T04:38:39.894Z","phon_sim-task_switching-rhyme-same_different","","5412.5","task_switching","21","{""subtraction_ans"":""19""}","experiment","","","","","","","","","","","","","","","subtraction","19","false","subtract","","","","","","","","","","","","","","","",""
"","","","","","survey-text","110","1533591","0.0-58.0","AKVDK30EEV08C","2022-05-19T04:38:39.894Z","phon_sim-task_switching-rhyme-same_different","","2772.899999976158","task_switching","76","{""subtraction_ans"":""73""}","experiment","","","","","","","","","","","","","","","subtraction","73","true","subtract","","","","","","","","","","","","","","","",""
"","","","","","survey-text","111","1536526","0.0-59.0","AKVDK30EEV08C","2022-05-19T04:38:39.894Z","phon_sim-task_switching-rhyme-same_different","","2933.199999988079","task_switching","50","{""subtraction_ans"":""47""}","experiment","","","","","","","","","","","","","","","subtraction","47","true","subtract","","","","","","","","","","","","","","","",""
"","","","","","survey-text","112","1538990","0.0-60.0","AKVDK30EEV08C","2022-05-19T04:38:39.894Z","phon_sim-task_switching-rhyme-same_different","","2460.899999976158","task_switching","20","{""subtraction_ans"":""17""}","experiment","","","","","","","","","","","","","","","subtraction","17","true","subtract","","","","","","","","","","","","","","","",""
"","","","","","survey-text","113","1541063","0.0-61.0","AKVDK30EEV08C","2022-05-19T04:38:39.894Z","phon_sim-task_switching-rhyme-same_different","","2069.100000023842","task_switching","14","{""subtraction_ans"":""11""}","experiment","","","","","","","","","","","","","","","subtraction","11","true","subtract","","","","","","","","","","","","","","","",""
"","","","","","survey-text","114","1544391","0.0-62.0","AKVDK30EEV08C","2022-05-19T04:38:39.894Z","phon_sim-task_switching-rhyme-same_different","","3324.899999976158","task_switching","54","{""subtraction_ans"":""51""}","experiment","","","","","","","","","","","","","","","subtraction","51","true","subtract","","","","","","","","","","","","","","","",""
"","","","","","instructions","115","1577447","0.0-63.0","AKVDK30EEV08C","2022-05-19T04:38:39.894Z","phon_sim-task_switching-rhyme-same_different","[{""page_index"":0,""viewing_time"":33055.69999998808}]","33056.10000002384","task_switching","","","","","","","","","","","","","","","","","","","","","","","","","","","","","","","","","","","","",""
"","","","","","survey-text","116","1591944","0.0-64.0","AKVDK30EEV08C","2022-05-19T04:38:39.894Z","phon_sim-task_switching-rhyme-same_different","","14493.300000011921","task_switching","28","{""addition_ans"":""31""}","training","","","","","","","","","","","","","","","addition","31","true","add","","","","","","","","","","","","","","","",""
"","","","","","html-keyboard-response","117","1592953","0.0-65.0","AKVDK30EEV08C","2022-05-19T04:38:39.894Z","phon_sim-task_switching-rhyme-same_different","","null","task_switching","<div style=""color:darkgreen; font-size:60px"">Well done!</div>","null","training","","","","","","","","","","","","","","","addition","","","","","","","","","","","","","","","","","","",""
"","","","","","survey-text","118","1598535","0.0-66.0","AKVDK30EEV08C","2022-05-19T04:38:39.894Z","phon_sim-task_switching-rhyme-same_different","","5579.899999976158","task_switching","68","{""addition_ans"":""71""}","training","","","","","","","","","","","","","","","addition","71","true","add","","","","","","","","","","","","","","","",""
"","","","","","html-keyboard-response","119","1599555","0.0-67.0","AKVDK30EEV08C","2022-05-19T04:38:39.894Z","phon_sim-task_switching-rhyme-same_different","","null","task_switching","<div style=""color:darkgreen; font-size:60px"">Well done!</div>","null","training","","","","","","","","","","","","","","","addition","","","","","","","","","","","","","","","","","","",""
"","","","","","survey-text","120","1602543","0.0-68.0","AKVDK30EEV08C","2022-05-19T04:38:39.894Z","phon_sim-task_switching-rhyme-same_different","","2986.399999976158","task_switching","85","{""addition_ans"":""88""}","training","","","","","","","","","","","","","","","addition","88","true","add","","","","","","","","","","","","","","","",""
"","","","","","html-keyboard-response","121","1603562","0.0-69.0","AKVDK30EEV08C","2022-05-19T04:38:39.894Z","phon_sim-task_switching-rhyme-same_different","","null","task_switching","<div style=""color:darkgreen; font-size:60px"">Well done!</div>","null","training","","","","","","","","","","","","","","","addition","","","","","","","","","","","","","","","","","","",""
"","","","","","survey-text","122","1612440","0.0-70.0","AKVDK30EEV08C","2022-05-19T04:38:39.894Z","phon_sim-task_switching-rhyme-same_different","","8876","task_switching","69","{""addition_ans"":""72""}","training","","","","","","","","","","","","","","","addition","72","true","add","","","","","","","","","","","","","","","",""
"","","","","","html-keyboard-response","123","1613442","0.0-71.0","AKVDK30EEV08C","2022-05-19T04:38:39.894Z","phon_sim-task_switching-rhyme-same_different","","null","task_switching","<div style=""color:darkgreen; font-size:60px"">Well done!</div>","null","training","","","","","","","","","","","","","","","addition","","","","","","","","","","","","","","","","","","",""
"","","","","","survey-text","124","1616343","0.0-72.0","AKVDK30EEV08C","2022-05-19T04:38:39.894Z","phon_sim-task_switching-rhyme-same_different","","2899.5","task_switching","70","{""addition_ans"":""73""}","training","","","","","","","","","","","","","","","addition","73","true","add","","","","","","","","","","","","","","","",""
"","","","","","html-keyboard-response","125","1617345","0.0-73.0","AKVDK30EEV08C","2022-05-19T04:38:39.894Z","phon_sim-task_switching-rhyme-same_different","","null","task_switching","<div style=""color:darkgreen; font-size:60px"">Well done!</div>","null","training","","","","","","","","","","","","","","","addition","","","","","","","","","","","","","","","","","","",""
"","","","","","survey-text","126","1622584","0.0-74.0","AKVDK30EEV08C","2022-05-19T04:38:39.894Z","phon_sim-task_switching-rhyme-same_different","","5236.700000047684","task_switching","93","{""addition_ans"":""96""}","training","","","","","","","","","","","","","","","addition","96","true","add","","","","","","","","","","","","","","","",""
"","","","","","html-keyboard-response","127","1623608","0.0-75.0","AKVDK30EEV08C","2022-05-19T04:38:39.894Z","phon_sim-task_switching-rhyme-same_different","","null","task_switching","<div style=""color:darkgreen; font-size:60px"">Well done!</div>","null","training","","","","","","","","","","","","","","","addition","","","","","","","","","","","","","","","","","","",""
"","","","","","survey-text","128","1626711","0.0-76.0","AKVDK30EEV08C","2022-05-19T04:38:39.894Z","phon_sim-task_switching-rhyme-same_different","","3101","task_switching","67","{""addition_ans"":""70""}","training","","","","","","","","","","","","","","","addition","70","true","add","","","","","","","","","","","","","","","",""
"","","","","","html-keyboard-response","129","1627721","0.0-77.0","AKVDK30EEV08C","2022-05-19T04:38:39.894Z","phon_sim-task_switching-rhyme-same_different","","null","task_switching","<div style=""color:darkgreen; font-size:60px"">Well done!</div>","null","training","","","","","","","","","","","","","","","addition","","","","","","","","","","","","","","","","","","",""
"","","","","","survey-text","130","1631559","0.0-78.0","AKVDK30EEV08C","2022-05-19T04:38:39.894Z","phon_sim-task_switching-rhyme-same_different","","3836.399999976158","task_switching","25","{""addition_ans"":""28""}","training","","","","","","","","","","","","","","","addition","28","true","add","","","","","","","","","","","","","","","",""
"","","","","","html-keyboard-response","131","1632566","0.0-79.0","AKVDK30EEV08C","2022-05-19T04:38:39.894Z","phon_sim-task_switching-rhyme-same_different","","null","task_switching","<div style=""color:darkgreen; font-size:60px"">Well done!</div>","null","training","","","","","","","","","","","","","","","addition","","","","","","","","","","","","","","","","","","",""
"","","","","","survey-text","132","1634879","0.0-80.0","AKVDK30EEV08C","2022-05-19T04:38:39.894Z","phon_sim-task_switching-rhyme-same_different","","2311.399999976158","task_switching","31","{""addition_ans"":""34""}","training","","","","","","","","","","","","","","","addition","34","true","add","","","","","","","","","","","","","","","",""
"","","","","","html-keyboard-response","133","1635891","0.0-81.0","AKVDK30EEV08C","2022-05-19T04:38:39.894Z","phon_sim-task_switching-rhyme-same_different","","null","task_switching","<div style=""color:darkgreen; font-size:60px"">Well done!</div>","null","training","","","","","","","","","","","","","","","addition","","","","","","","","","","","","","","","","","","",""
"","","","","","survey-text","134","1639463","0.0-82.0","AKVDK30EEV08C","2022-05-19T04:38:39.894Z","phon_sim-task_switching-rhyme-same_different","","3570.800000011921","task_switching","86","{""addition_ans"":""89""}","training","","","","","","","","","","","","","","","addition","89","true","add","","","","","","","","","","","","","","","",""
"","","","","","html-keyboard-response","135","1640473","0.0-83.0","AKVDK30EEV08C","2022-05-19T04:38:39.894Z","phon_sim-task_switching-rhyme-same_different","","null","task_switching","<div style=""color:darkgreen; font-size:60px"">Well done!</div>","null","training","","","","","","","","","","","","","","","addition","","","","","","","","","","","","","","","","","","",""
"","","","","","instructions","136","1643317","0.0-84.0","AKVDK30EEV08C","2022-05-19T04:38:39.894Z","phon_sim-task_switching-rhyme-same_different","[{""page_index"":0,""viewing_time"":2843.900000035763}]","2844.199999988079","task_switching","","","","","","","","","","","","","","","","","","","","","","","","","","","","","","","","","","","","",""
"","","","","","survey-text","137","1645735","0.0-85.0","AKVDK30EEV08C","2022-05-19T04:38:39.894Z","phon_sim-task_switching-rhyme-same_different","","2415.300000011921","task_switching","36","{""addition_ans"":""39""}","experiment","","","","","","","","","","","","","","","addition","39","true","add","","","","","","","","","","","","","","","",""
"","","","","","survey-text","138","1648687","0.0-86.0","AKVDK30EEV08C","2022-05-19T04:38:39.894Z","phon_sim-task_switching-rhyme-same_different","","2947.300000011921","task_switching","16","{""addition_ans"":""19""}","experiment","","","","","","","","","","","","","","","addition","19","true","add","","","","","","","","","","","","","","","",""
"","","","","","survey-text","139","1651087","0.0-87.0","AKVDK30EEV08C","2022-05-19T04:38:39.894Z","phon_sim-task_switching-rhyme-same_different","","2396.699999988079","task_switching","67","{""addition_ans"":""70""}","experiment","","","","","","","","","","","","","","","addition","70","true","add","","","","","","","","","","","","","","","",""
"","","","","","survey-text","140","1654279","0.0-88.0","AKVDK30EEV08C","2022-05-19T04:38:39.894Z","phon_sim-task_switching-rhyme-same_different","","3188.800000011921","task_switching","18","{""addition_ans"":""21""}","experiment","","","","","","","","","","","","","","","addition","21","true","add","","","","","","","","","","","","","","","",""
"","","","","","survey-text","141","1660527","0.0-89.0","AKVDK30EEV08C","2022-05-19T04:38:39.894Z","phon_sim-task_switching-rhyme-same_different","","6244.699999988079","task_switching","21","{""addition_ans"":""24""}","experiment","","","","","","","","","","","","","","","addition","24","true","add","","","","","","","","","","","","","","","",""
"","","","","","survey-text","142","1663887","0.0-90.0","AKVDK30EEV08C","2022-05-19T04:38:39.894Z","phon_sim-task_switching-rhyme-same_different","","3357.100000023842","task_switching","49","{""addition_ans"":""52""}","experiment","","","","","","","","","","","","","","","addition","52","true","add","","","","","","","","","","","","","","","",""
"","","","","","survey-text","143","1667159","0.0-91.0","AKVDK30EEV08C","2022-05-19T04:38:39.894Z","phon_sim-task_switching-rhyme-same_different","","3269.199999988079","task_switching","28","{""addition_ans"":""31""}","experiment","","","","","","","","","","","","","","","addition","31","true","add","","","","","","","","","","","","","","","",""
"","","","","","survey-text","144","1669631","0.0-92.0","AKVDK30EEV08C","2022-05-19T04:38:39.894Z","phon_sim-task_switching-rhyme-same_different","","2469","task_switching","93","{""addition_ans"":""96""}","experiment","","","","","","","","","","","","","","","addition","96","true","add","","","","","","","","","","","","","","","",""
"","","","","","survey-text","145","1673615","0.0-93.0","AKVDK30EEV08C","2022-05-19T04:38:39.894Z","phon_sim-task_switching-rhyme-same_different","","3981","task_switching","34","{""addition_ans"":""37""}","experiment","","","","","","","","","","","","","","","addition","37","true","add","","","","","","","","","","","","","","","",""
"","","","","","survey-text","146","1676287","0.0-94.0","AKVDK30EEV08C","2022-05-19T04:38:39.894Z","phon_sim-task_switching-rhyme-same_different","","2668","task_switching","86","{""addition_ans"":""89""}","experiment","","","","","","","","","","","","","","","addition","89","true","add","","","","","","","","","","","","","","","",""
"","","","","","survey-text","147","1679463","0.0-95.0","AKVDK30EEV08C","2022-05-19T04:38:39.894Z","phon_sim-task_switching-rhyme-same_different","","3173","task_switching","62","{""addition_ans"":""65""}","experiment","","","","","","","","","","","","","","","addition","65","true","add","","","","","","","","","","","","","","","",""
"","","","","","survey-text","148","1681999","0.0-96.0","AKVDK30EEV08C","2022-05-19T04:38:39.894Z","phon_sim-task_switching-rhyme-same_different","","2533.100000023842","task_switching","44","{""addition_ans"":""47""}","experiment","","","","","","","","","","","","","","","addition","47","true","add","","","","","","","","","","","","","","","",""
"","","","","","survey-text","149","1686951","0.0-97.0","AKVDK30EEV08C","2022-05-19T04:38:39.894Z","phon_sim-task_switching-rhyme-same_different","","4949.100000023842","task_switching","79","{""addition_ans"":""82""}","experiment","","","","","","","","","","","","","","","addition","82","true","add","","","","","","","","","","","","","","","",""
"","","","","","survey-text","150","1692359","0.0-98.0","AKVDK30EEV08C","2022-05-19T04:38:39.894Z","phon_sim-task_switching-rhyme-same_different","","5405","task_switching","54","{""addition_ans"":""57""}","experiment","","","","","","","","","","","","","","","addition","57","true","add","","","","","","","","","","","","","","","",""
"","","","","","survey-text","151","1695535","0.0-99.0","AKVDK30EEV08C","2022-05-19T04:38:39.894Z","phon_sim-task_switching-rhyme-same_different","","3172.5","task_switching","29","{""addition_ans"":""32""}","experiment","","","","","","","","","","","","","","","addition","32","true","add","","","","","","","","","","","","","","","",""
"","","","","","survey-text","152","1698599","0.0-100.0","AKVDK30EEV08C","2022-05-19T04:38:39.894Z","phon_sim-task_switching-rhyme-same_different","","3060.899999976158","task_switching","88","{""addition_ans"":""91""}","experiment","","","","","","","","","","","","","","","addition","91","true","add","","","","","","","","","","","","","","","",""
"","","","","","survey-text","153","1700791","0.0-101.0","AKVDK30EEV08C","2022-05-19T04:38:39.894Z","phon_sim-task_switching-rhyme-same_different","","2189.100000023842","task_switching","22","{""addition_ans"":""25""}","experiment","","","","","","","","","","","","","","","addition","25","true","add","","","","","","","","","","","","","","","",""
"","","","","","survey-text","154","1705079","0.0-102.0","AKVDK30EEV08C","2022-05-19T04:38:39.894Z","phon_sim-task_switching-rhyme-same_different","","4284.699999988079","task_switching","35","{""addition_ans"":""38""}","experiment","","","","","","","","","","","","","","","addition","38","true","add","","","","","","","","","","","","","","","",""
"","","","","","survey-text","155","1709311","0.0-103.0","AKVDK30EEV08C","2022-05-19T04:38:39.894Z","phon_sim-task_switching-rhyme-same_different","","4229.200000047684","task_switching","78","{""addition_ans"":""81""}","experiment","","","","","","","","","","","","","","","addition","81","true","add","","","","","","","","","","","","","","","",""
"","","","","","survey-text","156","1711879","0.0-104.0","AKVDK30EEV08C","2022-05-19T04:38:39.894Z","phon_sim-task_switching-rhyme-same_different","","2564.899999976158","task_switching","82","{""addition_ans"":""85""}","experiment","","","","","","","","","","","","","","","addition","85","true","add","","","","","","","","","","","","","","","",""
"","","","","","survey-text","157","1714072","0.0-105.0","AKVDK30EEV08C","2022-05-19T04:38:39.894Z","phon_sim-task_switching-rhyme-same_different","","2189.300000011921","task_switching","47","{""addition_ans"":""50""}","experiment","","","","","","","","","","","","","","","addition","50","true","add","","","","","","","","","","","","","","","",""
"","","","","","survey-text","158","1719215","0.0-106.0","AKVDK30EEV08C","2022-05-19T04:38:39.894Z","phon_sim-task_switching-rhyme-same_different","","5140.5","task_switching","92","{""addition_ans"":""95""}","experiment","","","","","","","","","","","","","","","addition","95","true","add","","","","","","","","","","","","","","","",""
"","","","","","survey-text","159","1721560","0.0-107.0","AKVDK30EEV08C","2022-05-19T04:38:39.894Z","phon_sim-task_switching-rhyme-same_different","","2341.099999964237","task_switching","65","{""addition_ans"":""68""}","experiment","","","","","","","","","","","","","","","addition","68","true","add","","","","","","","","","","","","","","","",""
"","","","","","survey-text","160","1724176","0.0-108.0","AKVDK30EEV08C","2022-05-19T04:38:39.894Z","phon_sim-task_switching-rhyme-same_different","","2613.199999988079","task_switching","72","{""addition_ans"":""75""}","experiment","","","","","","","","","","","","","","","addition","75","true","add","","","","","","","","","","","","","","","",""
"","","","","","survey-text","161","1726919","0.0-109.0","AKVDK30EEV08C","2022-05-19T04:38:39.894Z","phon_sim-task_switching-rhyme-same_different","","2740.599999964237","task_switching","27","{""addition_ans"":""30""}","experiment","","","","","","","","","","","","","","","addition","30","true","add","","","","","","","","","","","","","","","",""
"","","","","","survey-text","162","1729303","0.0-110.0","AKVDK30EEV08C","2022-05-19T04:38:39.894Z","phon_sim-task_switching-rhyme-same_different","","2380.900000035763","task_switching","12","{""addition_ans"":""15""}","experiment","","","","","","","","","","","","","","","addition","15","true","add","","","","","","","","","","","","","","","",""
"","","","","","survey-text","163","1737143","0.0-111.0","AKVDK30EEV08C","2022-05-19T04:38:39.894Z","phon_sim-task_switching-rhyme-same_different","","7836.5","task_switching","58","{""addition_ans"":""61""}","experiment","","","","","","","","","","","","","","","addition","61","true","add","","","","","","","","","","","","","","","",""
"","","","","","survey-text","164","1739799","0.0-112.0","AKVDK30EEV08C","2022-05-19T04:38:39.894Z","phon_sim-task_switching-rhyme-same_different","","2652.900000035763","task_switching","80","{""addition_ans"":""83""}","experiment","","","","","","","","","","","","","","","addition","83","true","add","","","","","","","","","","","","","","","",""
"","","","","","survey-text","165","1742423","0.0-113.0","AKVDK30EEV08C","2022-05-19T04:38:39.894Z","phon_sim-task_switching-rhyme-same_different","","2621","task_switching","46","{""addition_ans"":""49""}","experiment","","","","","","","","","","","","","","","addition","49","true","add","","","","","","","","","","","","","","","",""
"","","","","","survey-text","166","1745247","0.0-114.0","AKVDK30EEV08C","2022-05-19T04:38:39.894Z","phon_sim-task_switching-rhyme-same_different","","2820.699999988079","task_switching","96","{""addition_ans"":""99""}","experiment","","","","","","","","","","","","","","","addition","99","true","add","","","","","","","","","","","","","","","",""
"","","","","","instructions","167","1952197","0.0-115.0","AKVDK30EEV08C","2022-05-19T04:38:39.894Z","phon_sim-task_switching-rhyme-same_different","[{""page_index"":0,""viewing_time"":206948.89999997616}]","206949.30000001192","task_switching","","","","","","","","","","","","","","","","","","","","","","","","","","","","","","","","","","","","",""
"","","","","","survey-text","168","1958463","0.0-116.0","AKVDK30EEV08C","2022-05-19T04:38:39.894Z","phon_sim-task_switching-rhyme-same_different","","6263.899999976158","task_switching","22","{""uncued_switch_ans"":""25""}","training","","","","","","","","","","","","","","","uncued_switch","25","true","add","0","","","","","","","","","","","","","","",""
"","","","","","html-keyboard-response","169","1959469","0.0-117.0","AKVDK30EEV08C","2022-05-19T04:38:39.894Z","phon_sim-task_switching-rhyme-same_different","","null","task_switching","<div style=""color:darkgreen; font-size:60px"">Well done!</div>","null","training","","","","","","","","","","","","","","","uncued_switch","","","","","","","","","","","","","","","","","","",""
"","","","","","survey-text","170","1963760","0.0-118.0","AKVDK30EEV08C","2022-05-19T04:38:39.894Z","phon_sim-task_switching-rhyme-same_different","","4289.100000023842","task_switching","56","{""uncued_switch_ans"":""53""}","training","","","","","","","","","","","","","","","uncued_switch","53","true","subtract","1","","","","","","","","","","","","","","",""
"","","","","","html-keyboard-response","171","1964778","0.0-119.0","AKVDK30EEV08C","2022-05-19T04:38:39.894Z","phon_sim-task_switching-rhyme-same_different","","null","task_switching","<div style=""color:darkgreen; font-size:60px"">Well done!</div>","null","training","","","","","","","","","","","","","","","uncued_switch","","","","","","","","","","","","","","","","","","",""
"","","","","","survey-text","172","1967815","0.0-120.0","AKVDK30EEV08C","2022-05-19T04:38:39.894Z","phon_sim-task_switching-rhyme-same_different","","3035.400000035763","task_switching","85","{""uncued_switch_ans"":""88""}","training","","","","","","","","","","","","","","","uncued_switch","88","true","add","2","","","","","","","","","","","","","","",""
"","","","","","html-keyboard-response","173","1968837","0.0-121.0","AKVDK30EEV08C","2022-05-19T04:38:39.894Z","phon_sim-task_switching-rhyme-same_different","","null","task_switching","<div style=""color:darkgreen; font-size:60px"">Well done!</div>","null","training","","","","","","","","","","","","","","","uncued_switch","","","","","","","","","","","","","","","","","","",""
"","","","","","survey-text","174","1971463","0.0-122.0","AKVDK30EEV08C","2022-05-19T04:38:39.894Z","phon_sim-task_switching-rhyme-same_different","","2623.600000023842","task_switching","70","{""uncued_switch_ans"":""67""}","training","","","","","","","","","","","","","","","uncued_switch","67","true","subtract","3","","","","","","","","","","","","","","",""
"","","","","","html-keyboard-response","175","1972475","0.0-123.0","AKVDK30EEV08C","2022-05-19T04:38:39.894Z","phon_sim-task_switching-rhyme-same_different","","null","task_switching","<div style=""color:darkgreen; font-size:60px"">Well done!</div>","null","training","","","","","","","","","","","","","","","uncued_switch","","","","","","","","","","","","","","","","","","",""
"","","","","","survey-text","176","1974839","0.0-124.0","AKVDK30EEV08C","2022-05-19T04:38:39.894Z","phon_sim-task_switching-rhyme-same_different","","2362.2000000476837","task_switching","74","{""uncued_switch_ans"":""77""}","training","","","","","","","","","","","","","","","uncued_switch","77","true","add","4","","","","","","","","","","","","","","",""
"","","","","","html-keyboard-response","177","1975849","0.0-125.0","AKVDK30EEV08C","2022-05-19T04:38:39.894Z","phon_sim-task_switching-rhyme-same_different","","null","task_switching","<div style=""color:darkgreen; font-size:60px"">Well done!</div>","null","training","","","","","","","","","","","","","","","uncued_switch","","","","","","","","","","","","","","","","","","",""
"","","","","","survey-text","178","1978447","0.0-126.0","AKVDK30EEV08C","2022-05-19T04:38:39.894Z","phon_sim-task_switching-rhyme-same_different","","2595.800000011921","task_switching","84","{""uncued_switch_ans"":""81""}","training","","","","","","","","","","","","","","","uncued_switch","81","true","subtract","5","","","","","","","","","","","","","","",""
"","","","","","html-keyboard-response","179","1979456","0.0-127.0","AKVDK30EEV08C","2022-05-19T04:38:39.894Z","phon_sim-task_switching-rhyme-same_different","","null","task_switching","<div style=""color:darkgreen; font-size:60px"">Well done!</div>","null","training","","","","","","","","","","","","","","","uncued_switch","","","","","","","","","","","","","","","","","","",""
"","","","","","survey-text","180","1982631","0.0-128.0","AKVDK30EEV08C","2022-05-19T04:38:39.894Z","phon_sim-task_switching-rhyme-same_different","","3173.399999976158","task_switching","86","{""uncued_switch_ans"":""89""}","training","","","","","","","","","","","","","","","uncued_switch","89","true","add","6","","","","","","","","","","","","","","",""
"","","","","","html-keyboard-response","181","1983642","0.0-129.0","AKVDK30EEV08C","2022-05-19T04:38:39.894Z","phon_sim-task_switching-rhyme-same_different","","null","task_switching","<div style=""color:darkgreen; font-size:60px"">Well done!</div>","null","training","","","","","","","","","","","","","","","uncued_switch","","","","","","","","","","","","","","","","","","",""
"","","","","","survey-text","182","1986519","0.0-130.0","AKVDK30EEV08C","2022-05-19T04:38:39.894Z","phon_sim-task_switching-rhyme-same_different","","2875.099999964237","task_switching","59","{""uncued_switch_ans"":""56""}","training","","","","","","","","","","","","","","","uncued_switch","56","true","subtract","7","","","","","","","","","","","","","","",""
"","","","","","html-keyboard-response","183","1987521","0.0-131.0","AKVDK30EEV08C","2022-05-19T04:38:39.894Z","phon_sim-task_switching-rhyme-same_different","","null","task_switching","<div style=""color:darkgreen; font-size:60px"">Well done!</div>","null","training","","","","","","","","","","","","","","","uncued_switch","","","","","","","","","","","","","","","","","","",""
"","","","","","survey-text","184","1991335","0.0-132.0","AKVDK30EEV08C","2022-05-19T04:38:39.894Z","phon_sim-task_switching-rhyme-same_different","","3812.300000011921","task_switching","28","{""uncued_switch_ans"":""31""}","training","","","","","","","","","","","","","","","uncued_switch","31","true","add","8","","","","","","","","","","","","","","",""
"","","","","","html-keyboard-response","185","1992349","0.0-133.0","AKVDK30EEV08C","2022-05-19T04:38:39.894Z","phon_sim-task_switching-rhyme-same_different","","null","task_switching","<div style=""color:darkgreen; font-size:60px"">Well done!</div>","null","training","","","","","","","","","","","","","","","uncued_switch","","","","","","","","","","","","","","","","","","",""
"","","","","","survey-text","186","1995087","0.0-134.0","AKVDK30EEV08C","2022-05-19T04:38:39.894Z","phon_sim-task_switching-rhyme-same_different","","2736","task_switching","54","{""uncued_switch_ans"":""51""}","training","","","","","","","","","","","","","","","uncued_switch","51","true","subtract","9","","","","","","","","","","","","","","",""
"","","","","","html-keyboard-response","187","1996097","0.0-135.0","AKVDK30EEV08C","2022-05-19T04:38:39.894Z","phon_sim-task_switching-rhyme-same_different","","null","task_switching","<div style=""color:darkgreen; font-size:60px"">Well done!</div>","null","training","","","","","","","","","","","","","","","uncued_switch","","","","","","","","","","","","","","","","","","",""
"","","","","","instructions","188","1999334","0.0-136.0","AKVDK30EEV08C","2022-05-19T04:38:39.894Z","phon_sim-task_switching-rhyme-same_different","[{""page_index"":0,""viewing_time"":3236.099999964237}]","3236.5","task_switching","","","","","","","","","","","","","","","","","","","","","","","","","","","","","","","","","","","","",""
"","","","","","survey-text","189","2003063","0.0-137.0","AKVDK30EEV08C","2022-05-19T04:38:39.894Z","phon_sim-task_switching-rhyme-same_different","","3727","task_switching","32","{""uncued_switch_ans"":""35""}","experiment","","","","","","","","","","","","","","","uncued_switch","35","true","add","0","","","","","","","","","","","","","","",""
"","","","","","survey-text","190","2005743","0.0-138.0","AKVDK30EEV08C","2022-05-19T04:38:39.894Z","phon_sim-task_switching-rhyme-same_different","","2676.899999976158","task_switching","14","{""uncued_switch_ans"":""11""}","experiment","","","","","","","","","","","","","","","uncued_switch","11","true","subtract","1","","","","","","","","","","","","","","",""
"","","","","","survey-text","191","2016663","0.0-139.0","AKVDK30EEV08C","2022-05-19T04:38:39.894Z","phon_sim-task_switching-rhyme-same_different","","10916.700000047684","task_switching","65","{""uncued_switch_ans"":""68""}","experiment","","","","","","","","","","","","","","","uncued_switch","68","true","add","2","","","","","","","","","","","","","","",""
"","","","","","survey-text","192","2022087","0.0-140.0","AKVDK30EEV08C","2022-05-19T04:38:39.894Z","phon_sim-task_switching-rhyme-same_different","","5421","task_switching","50","{""uncued_switch_ans"":""47""}","experiment","","","","","","","","","","","","","","","uncued_switch","47","true","subtract","3","","","","","","","","","","","","","","",""
"","","","","","survey-text","193","2024559","0.0-141.0","AKVDK30EEV08C","2022-05-19T04:38:39.894Z","phon_sim-task_switching-rhyme-same_different","","2468.7000000476837","task_switching","92","{""uncued_switch_ans"":""95""}","experiment","","","","","","","","","","","","","","","uncued_switch","95","true","add","4","","","","","","","","","","","","","","",""
"","","","","","survey-text","194","2029399","0.0-142.0","AKVDK30EEV08C","2022-05-19T04:38:39.894Z","phon_sim-task_switching-rhyme-same_different","","4836.599999964237","task_switching","42","{""uncued_switch_ans"":""38""}","experiment","","","","","","","","","","","","","","","uncued_switch","38","false","subtract","5","","","","","","","","","","","","","","",""
"","","","","","survey-text","195","2032567","0.0-143.0","AKVDK30EEV08C","2022-05-19T04:38:39.894Z","phon_sim-task_switching-rhyme-same_different","","3165","task_switching","95","{""uncued_switch_ans"":""98""}","experiment","","","","","","","","","","","","","","","uncued_switch","98","true","add","6","","","","","","","","","","","","","","",""
"","","","","","survey-text","196","2035743","0.0-144.0","AKVDK30EEV08C","2022-05-19T04:38:39.894Z","phon_sim-task_switching-rhyme-same_different","","3172.899999976158","task_switching","35","{""uncued_switch_ans"":""32""}","experiment","","","","","","","","","","","","","","","uncued_switch","32","true","subtract","7","","","","","","","","","","","","","","",""
"","","","","","survey-text","197","2044887","0.0-145.0","AKVDK30EEV08C","2022-05-19T04:38:39.894Z","phon_sim-task_switching-rhyme-same_different","","9140.800000011921","task_switching","38","{""uncued_switch_ans"":""41""}","experiment","","","","","","","","","","","","","","","uncued_switch","41","true","add","8","","","","","","","","","","","","","","",""
"","","","","","survey-text","198","2050503","0.0-146.0","AKVDK30EEV08C","2022-05-19T04:38:39.894Z","phon_sim-task_switching-rhyme-same_different","","5613.099999964237","task_switching","54","{""uncued_switch_ans"":""51""}","experiment","","","","","","","","","","","","","","","uncued_switch","51","true","subtract","9","","","","","","","","","","","","","","",""
"","","","","","survey-text","199","2053287","0.0-147.0","AKVDK30EEV08C","2022-05-19T04:38:39.894Z","phon_sim-task_switching-rhyme-same_different","","2781.199999988079","task_switching","66","{""uncued_switch_ans"":""69""}","experiment","","","","","","","","","","","","","","","uncued_switch","69","true","add","10","","","","","","","","","","","","","","",""
"","","","","","survey-text","200","2055375","0.0-148.0","AKVDK30EEV08C","2022-05-19T04:38:39.894Z","phon_sim-task_switching-rhyme-same_different","","2084.899999976158","task_switching","33","{""uncued_switch_ans"":""30""}","experiment","","","","","","","","","","","","","","","uncued_switch","30","true","subtract","11","","","","","","","","","","","","","","",""
"","","","","","survey-text","201","2061607","0.0-149.0","AKVDK30EEV08C","2022-05-19T04:38:39.894Z","phon_sim-task_switching-rhyme-same_different","","6228.899999976158","task_switching","93","{""uncued_switch_ans"":""96""}","experiment","","","","","","","","","","","","","","","uncued_switch","96","true","add","12","","","","","","","","","","","","","","",""
"","","","","","survey-text","202","2063991","0.0-150.0","AKVDK30EEV08C","2022-05-19T04:38:39.894Z","phon_sim-task_switching-rhyme-same_different","","2381.100000023842","task_switching","36","{""uncued_switch_ans"":""33""}","experiment","","","","","","","","","","","","","","","uncued_switch","33","true","subtract","13","","","","","","","","","","","","","","",""
"","","","","","survey-text","203","2067943","0.0-151.0","AKVDK30EEV08C","2022-05-19T04:38:39.894Z","phon_sim-task_switching-rhyme-same_different","","3948.699999988079","task_switching","25","{""uncued_switch_ans"":""28""}","experiment","","","","","","","","","","","","","","","uncued_switch","28","true","add","14","","","","","","","","","","","","","","",""
"","","","","","survey-text","204","2070343","0.0-152.0","AKVDK30EEV08C","2022-05-19T04:38:39.894Z","phon_sim-task_switching-rhyme-same_different","","2396.900000035763","task_switching","63","{""uncued_switch_ans"":""60""}","experiment","","","","","","","","","","","","","","","uncued_switch","60","true","subtract","15","","","","","","","","","","","","","","",""
"","","","","","survey-text","205","2074071","0.0-153.0","AKVDK30EEV08C","2022-05-19T04:38:39.894Z","phon_sim-task_switching-rhyme-same_different","","3725.100000023842","task_switching","58","{""uncued_switch_ans"":""61""}","experiment","","","","","","","","","","","","","","","uncued_switch","61","true","add","16","","","","","","","","","","","","","","",""
"","","","","","survey-text","206","2076343","0.0-154.0","AKVDK30EEV08C","2022-05-19T04:38:39.894Z","phon_sim-task_switching-rhyme-same_different","","2269","task_switching","53","{""uncued_switch_ans"":""50""}","experiment","","","","","","","","","","","","","","","uncued_switch","50","true","subtract","17","","","","","","","","","","","","","","",""
"","","","","","survey-text","207","2078639","0.0-155.0","AKVDK30EEV08C","2022-05-19T04:38:39.894Z","phon_sim-task_switching-rhyme-same_different","","2293.099999964237","task_switching","44","{""uncued_switch_ans"":""47""}","experiment","","","","","","","","","","","","","","","uncued_switch","47","true","add","18","","","","","","","","","","","","","","",""
"","","","","","survey-text","208","2081543","0.0-156.0","AKVDK30EEV08C","2022-05-19T04:38:39.894Z","phon_sim-task_switching-rhyme-same_different","","2900.800000011921","task_switching","23","{""uncued_switch_ans"":""20""}","experiment","","","","","","","","","","","","","","","uncued_switch","20","true","subtract","19","","","","","","","","","","","","","","",""
"","","","","","survey-text","209","2084111","0.0-157.0","AKVDK30EEV08C","2022-05-19T04:38:39.894Z","phon_sim-task_switching-rhyme-same_different","","2564.800000011921","task_switching","17","{""uncued_switch_ans"":""20""}","experiment","","","","","","","","","","","","","","","uncued_switch","20","true","add","20","","","","","","","","","","","","","","",""
"","","","","","survey-text","210","2086455","0.0-158.0","AKVDK30EEV08C","2022-05-19T04:38:39.894Z","phon_sim-task_switching-rhyme-same_different","","2341","task_switching","43","{""uncued_switch_ans"":""40""}","experiment","","","","","","","","","","","","","","","uncued_switch","40","true","subtract","21","","","","","","","","","","","","","","",""
"","","","","","survey-text","211","2089263","0.0-159.0","AKVDK30EEV08C","2022-05-19T04:38:39.894Z","phon_sim-task_switching-rhyme-same_different","","2804.800000011921","task_switching","78","{""uncued_switch_ans"":""81""}","experiment","","","","","","","","","","","","","","","uncued_switch","81","true","add","22","","","","","","","","","","","","","","",""
"","","","","","survey-text","212","2096863","0.0-160.0","AKVDK30EEV08C","2022-05-19T04:38:39.894Z","phon_sim-task_switching-rhyme-same_different","","7597.100000023842","task_switching","71","{""uncued_switch_ans"":""68""}","experiment","","","","","","","","","","","","","","","uncued_switch","68","true","subtract","23","","","","","","","","","","","","","","",""
"","","","","","survey-text","213","2099695","0.0-161.0","AKVDK30EEV08C","2022-05-19T04:38:39.894Z","phon_sim-task_switching-rhyme-same_different","","2828.800000011921","task_switching","16","{""uncued_switch_ans"":""19""}","experiment","","","","","","","","","","","","","","","uncued_switch","19","true","add","24","","","","","","","","","","","","","","",""
"","","","","","survey-text","214","2102318","0.0-162.0","AKVDK30EEV08C","2022-05-19T04:38:39.894Z","phon_sim-task_switching-rhyme-same_different","","2619.699999988079","task_switching","40","{""uncued_switch_ans"":""37""}","experiment","","","","","","","","","","","","","","","uncued_switch","37","true","subtract","25","","","","","","","","","","","","","","",""
"","","","","","survey-text","215","2106223","0.0-163.0","AKVDK30EEV08C","2022-05-19T04:38:39.894Z","phon_sim-task_switching-rhyme-same_different","","3901.800000011921","task_switching","39","{""uncued_switch_ans"":""42""}","experiment","","","","","","","","","","","","","","","uncued_switch","42","true","add","26","","","","","","","","","","","","","","",""
"","","","","","survey-text","216","2109191","0.0-164.0","AKVDK30EEV08C","2022-05-19T04:38:39.894Z","phon_sim-task_switching-rhyme-same_different","","2964.300000011921","task_switching","57","{""uncued_switch_ans"":""54""}","experiment","","","","","","","","","","","","","","","uncued_switch","54","true","subtract","27","","","","","","","","","","","","","","",""
"","","","","","survey-text","217","2112895","0.0-165.0","AKVDK30EEV08C","2022-05-19T04:38:39.894Z","phon_sim-task_switching-rhyme-same_different","","3700.5","task_switching","24","{""uncued_switch_ans"":""27""}","experiment","","","","","","","","","","","","","","","uncued_switch","27","true","add","28","","","","","","","","","","","","","","",""
"","","","","","survey-text","218","2116551","0.0-166.0","AKVDK30EEV08C","2022-05-19T04:38:39.894Z","phon_sim-task_switching-rhyme-same_different","","3653.699999988079","task_switching","41","{""uncued_switch_ans"":""38""}","experiment","","","","","","","","","","","","","","","uncued_switch","38","true","subtract","29","","","","","","","","","","","","","","",""
"","","","","","instructions","219","2169829","0.0-167.0","AKVDK30EEV08C","2022-05-19T04:38:39.894Z","phon_sim-task_switching-rhyme-same_different","[{""page_index"":0,""viewing_time"":53276}]","53276.30000001192","task_switching","","","","","","","","","","","","","","","","","","","","","","","","","","","","","","","","","","","","",""
"","","","","","survey-text","220","2174863","0.0-168.0","AKVDK30EEV08C","2022-05-19T04:38:39.894Z","phon_sim-task_switching-rhyme-same_different","","5031.899999976158","task_switching","71","{""colorcue_switch_ans"":""74""}","training","","","","","","","","","","","","","","","colorcue_switch","74","true","add","0","red","","","","","","","","","","","","","",""
"","","","","","html-keyboard-response","221","2175874","0.0-169.0","AKVDK30EEV08C","2022-05-19T04:38:39.894Z","phon_sim-task_switching-rhyme-same_different","","null","task_switching","<div style=""color:darkgreen; font-size:60px"">Well done!</div>","null","training","","","","","","","","","","","","","","","colorcue_switch","","","","","","","","","","","","","","","","","","",""
"","","","","","survey-text","222","2184287","0.0-170.0","AKVDK30EEV08C","2022-05-19T04:38:39.894Z","phon_sim-task_switching-rhyme-same_different","","8411","task_switching","51","{""colorcue_switch_ans"":""48""}","training","","","","","","","","","","","","","","","colorcue_switch","48","true","subtract","1","blue","","","","","","","","","","","","","",""
"","","","","","html-keyboard-response","223","2185296","0.0-171.0","AKVDK30EEV08C","2022-05-19T04:38:39.894Z","phon_sim-task_switching-rhyme-same_different","","null","task_switching","<div style=""color:darkgreen; font-size:60px"">Well done!</div>","null","training","","","","","","","","","","","","","","","colorcue_switch","","","","","","","","","","","","","","","","","","",""
"","","","","","survey-text","224","2190807","0.0-172.0","AKVDK30EEV08C","2022-05-19T04:38:39.894Z","phon_sim-task_switching-rhyme-same_different","","5509.800000011921","task_switching","49","{""colorcue_switch_ans"":""52""}","training","","","","","","","","","","","","","","","colorcue_switch","52","true","add","2","red","","","","","","","","","","","","","",""
"","","","","","html-keyboard-response","225","2191822","0.0-173.0","AKVDK30EEV08C","2022-05-19T04:38:39.894Z","phon_sim-task_switching-rhyme-same_different","","null","task_switching","<div style=""color:darkgreen; font-size:60px"">Well done!</div>","null","training","","","","","","","","","","","","","","","colorcue_switch","","","","","","","","","","","","","","","","","","",""
"","","","","","survey-text","226","2202680","0.0-174.0","AKVDK30EEV08C","2022-05-19T04:38:39.894Z","phon_sim-task_switching-rhyme-same_different","","10855.799999952316","task_switching","41","{""colorcue_switch_ans"":""38""}","training","","","","","","","","","","","","","","","colorcue_switch","38","true","subtract","3","blue","","","","","","","","","","","","","",""
"","","","","","html-keyboard-response","227","2203689","0.0-175.0","AKVDK30EEV08C","2022-05-19T04:38:39.894Z","phon_sim-task_switching-rhyme-same_different","","null","task_switching","<div style=""color:darkgreen; font-size:60px"">Well done!</div>","null","training","","","","","","","","","","","","","","","colorcue_switch","","","","","","","","","","","","","","","","","","",""
"","","","","","survey-text","228","2210888","0.0-176.0","AKVDK30EEV08C","2022-05-19T04:38:39.894Z","phon_sim-task_switching-rhyme-same_different","","7196.699999988079","task_switching","24","{""colorcue_switch_ans"":""27""}","training","","","","","","","","","","","","","","","colorcue_switch","27","true","add","4","red","","","","","","","","","","","","","",""
"","","","","","html-keyboard-response","229","2211910","0.0-177.0","AKVDK30EEV08C","2022-05-19T04:38:39.894Z","phon_sim-task_switching-rhyme-same_different","","null","task_switching","<div style=""color:darkgreen; font-size:60px"">Well done!</div>","null","training","","","","","","","","","","","","","","","colorcue_switch","","","","","","","","","","","","","","","","","","",""
"","","","","","survey-text","230","2218087","0.0-178.0","AKVDK30EEV08C","2022-05-19T04:38:39.894Z","phon_sim-task_switching-rhyme-same_different","","6175.099999964237","task_switching","77","{""colorcue_switch_ans"":""74""}","training","","","","","","","","","","","","","","","colorcue_switch","74","true","subtract","5","blue","","","","","","","","","","","","","",""
"","","","","","html-keyboard-response","231","2219100","0.0-179.0","AKVDK30EEV08C","2022-05-19T04:38:39.894Z","phon_sim-task_switching-rhyme-same_different","","null","task_switching","<div style=""color:darkgreen; font-size:60px"">Well done!</div>","null","training","","","","","","","","","","","","","","","colorcue_switch","","","","","","","","","","","","","","","","","","",""
"","","","","","survey-text","232","2224479","0.0-180.0","AKVDK30EEV08C","2022-05-19T04:38:39.894Z","phon_sim-task_switching-rhyme-same_different","","5377.5","task_switching","44","{""colorcue_switch_ans"":""47""}","training","","","","","","","","","","","","","","","colorcue_switch","47","true","add","6","red","","","","","","","","","","","","","",""
"","","","","","html-keyboard-response","233","2225495","0.0-181.0","AKVDK30EEV08C","2022-05-19T04:38:39.894Z","phon_sim-task_switching-rhyme-same_different","","null","task_switching","<div style=""color:darkgreen; font-size:60px"">Well done!</div>","null","training","","","","","","","","","","","","","","","colorcue_switch","","","","","","","","","","","","","","","","","","",""
"","","","","","survey-text","234","2228447","0.0-182.0","AKVDK30EEV08C","2022-05-19T04:38:39.894Z","phon_sim-task_switching-rhyme-same_different","","2950.5","task_switching","63","{""colorcue_switch_ans"":""60""}","training","","","","","","","","","","","","","","","colorcue_switch","60","true","subtract","7","blue","","","","","","","","","","","","","",""
"","","","","","html-keyboard-response","235","2229455","0.0-183.0","AKVDK30EEV08C","2022-05-19T04:38:39.894Z","phon_sim-task_switching-rhyme-same_different","","null","task_switching","<div style=""color:darkgreen; font-size:60px"">Well done!</div>","null","training","","","","","","","","","","","","","","","colorcue_switch","","","","","","","","","","","","","","","","","","",""
"","","","","","survey-text","236","2233023","0.0-184.0","AKVDK30EEV08C","2022-05-19T04:38:39.894Z","phon_sim-task_switching-rhyme-same_different","","3566.5","task_switching","30","{""colorcue_switch_ans"":""33""}","training","","","","","","","","","","","","","","","colorcue_switch","33","true","add","8","red","","","","","","","","","","","","","",""
"","","","","","html-keyboard-response","237","2234047","0.0-185.0","AKVDK30EEV08C","2022-05-19T04:38:39.894Z","phon_sim-task_switching-rhyme-same_different","","null","task_switching","<div style=""color:darkgreen; font-size:60px"">Well done!</div>","null","training","","","","","","","","","","","","","","","colorcue_switch","","","","","","","","","","","","","","","","","","",""
"","","","","","survey-text","238","2237759","0.0-186.0","AKVDK30EEV08C","2022-05-19T04:38:39.894Z","phon_sim-task_switching-rhyme-same_different","","3710.600000023842","task_switching","88","{""colorcue_switch_ans"":""85""}","training","","","","","","","","","","","","","","","colorcue_switch","85","true","subtract","9","blue","","","","","","","","","","","","","",""
