"success","timeout","failed_images","failed_audio","failed_video","trial_type","trial_index","time_elapsed","internal_node_id","worker_id","start_time","experiment_order","view_history","rt","experiment","stimulus","response","judgment_type","stim_1","stim_2","inverted","answer","true_pos","correct","true_neg","false_neg","false_pos","question_order","talk_out_loud","strategy_free_ans","phase","word_1","word_2","word_3","word_4","word_5","original_word_set","response_1","response_2","response_3","response_4","response_5","condition","operation","trial_no","symbol_cue","color_cue","wait_time","image_1","image_2","cor_key","type"
"true","false","[]","[]","[]","preload","0","2319","0.0-0.0","A3F90N8YVKJ4I7","2022-05-19T11:51:02.430Z","same_different-phon_sim-task_switching-rhyme","","","","","","","","","","","","","","","","","","","","","","","","","","","","","","","","","","","","","","","",""
"","","","","","instructions","1","11152","0.0-1.0","A3F90N8YVKJ4I7","2022-05-19T11:51:02.430Z","same_different-phon_sim-task_switching-rhyme","[{""page_index"":0,""viewing_time"":8832}]","8832.29999999993","","","","","","","","","","","","","","","","","","","","","","","","","","","","","","","","","","","","","",""
"true","","","","","fullscreen","2","586767","0.0-2.0","A3F90N8YVKJ4I7","2022-05-19T11:51:02.430Z","same_different-phon_sim-task_switching-rhyme","","","","","","","","","","","","","","","","","","","","","","","","","","","","","","","","","","","","","","","",""
"","","","","","instructions","3","603620","0.0-3.0","A3F90N8YVKJ4I7","2022-05-19T11:51:02.430Z","same_different-phon_sim-task_switching-rhyme","[{""page_index"":0,""viewing_time"":16852.5}]","16852.699999999953","same_different","","","","","","","","","","","","","","","","","","","","","","","","","","","","","","","","","","","","",""
"","","","","","instructions","4","629704","0.0-4.0","A3F90N8YVKJ4I7","2022-05-19T11:51:02.430Z","same_different-phon_sim-task_switching-rhyme","[{""page_index"":0,""viewing_time"":26081.5}]","26081.699999999953","","","","","","","","","","","","","","","","","","","","","","","","","","","","","","","","","","","","","",""
"","","","","","html-keyboard-response","5","630456","0.0-5.0-0.0","A3F90N8YVKJ4I7","2022-05-19T11:51:02.430Z","same_different-phon_sim-task_switching-rhyme","","null","same_different","<div style=""font-size:60px"">+</div>","null","","","","","","","","","","","","","","","","","","","","","","","","","","","","","","","","","","",""
"","","","","","html-keyboard-response","6","632835","0.0-5.0-1.0","A3F90N8YVKJ4I7","2022-05-19T11:51:02.430Z","same_different-phon_sim-task_switching-rhyme","","2375.6999999999534","same_different","[""<img src=\""square.png\"" width=\""100\"" height=\""100\"" style=\""position: fixed;left:39%;top:47%\""><img src=\""square.png\"" width=\""100\"" height=\""100\"" style=\""position: fixed;left:54%;top:47%\""><img src=\""square.png\"" width=\""100\"" height=\""100\"" style=\""position: fixed;left:46.5%;top:32%\""><img src=\""square.png\"" width=\""100\"" height=\""100\"" style=\""position: fixed;left:46.5%;top:61%\""><div style=\""font-size:60px;text-align: center;margin-top:35.2%\"">+</div><div id=\""first\"" style=\""position: fixed;visibility: hidden;left:48%;top:62%\""><img src=\""same_diff_imgs/C09.gif\"" style=\""-webkit-transform: scaleX(-1);transform: scaleX(-1);\""></div><div id=\""delayed\"" style=\""position: fixed;visibility: hidden;left:40%;top:48%\""><img src=\""same_diff_imgs/C04.gif\"" style=\""-webkit-transform: scaleX(-1);transform: scaleX(-1);\""></div>""]","arrowup","categorical_image","same_diff_imgs/C09.gif","same_diff_imgs/C04.gif","yes","same","1","true","","","","","","","","","","","","","","","","","","","","","","","","","","","",""
"","","","","","html-keyboard-response","7","632839","0.0-5.0-2.0","A3F90N8YVKJ4I7","2022-05-19T11:51:02.430Z","same_different-phon_sim-task_switching-rhyme","","null",""," ","null","","","","","","","","","","","","","","","","","","","","","","","","","","","","","","","","","","",""
"","","","","","html-keyboard-response","8","633145","0.0-5.0-3.0","A3F90N8YVKJ4I7","2022-05-19T11:51:02.430Z","same_different-phon_sim-task_switching-rhyme","","null","same_different"," ","null","","","","","","","","","","","","","","","","","","","","","","","","","","","","","","","","","","",""
"","","","","","html-keyboard-response","9","633908","0.0-5.0-0.1","A3F90N8YVKJ4I7","2022-05-19T11:51:02.430Z","same_different-phon_sim-task_switching-rhyme","","null","same_different","<div style=""font-size:60px"">+</div>","null","","","","","","","","","","","","","","","","","","","","","","","","","","","","","","","","","","",""
"","","","","","html-keyboard-response","10","635347","0.0-5.0-1.1","A3F90N8YVKJ4I7","2022-05-19T11:51:02.430Z","same_different-phon_sim-task_switching-rhyme","","1435.5","same_different","[""<img src=\""square.png\"" width=\""100\"" height=\""100\"" style=\""position: fixed;left:39%;top:47%\""><img src=\""square.png\"" width=\""100\"" height=\""100\"" style=\""position: fixed;left:54%;top:47%\""><img src=\""square.png\"" width=\""100\"" height=\""100\"" style=\""position: fixed;left:46.5%;top:32%\""><img src=\""square.png\"" width=\""100\"" height=\""100\"" style=\""position: fixed;left:46.5%;top:61%\""><div style=\""font-size:60px; text-align: center;margin-top:35.2%\"">+</div><div id=\""first\"" style=\""position: fixed;visibility: hidden;left:40%;top:48%\""><img src=\""same_diff_imgs/C09.gif\""></div><div id=\""delayed\"" style=\""position: fixed;visibility: hidden;left:55%;top:49%\""><img src=\""same_diff_imgs/C09.gif\""></div>""]","arrowup","categorical_image","same_diff_imgs/C09.gif","same_diff_imgs/C09.gif","no","same","1","true","","","","","","","","","","","","","","","","","","","","","","","","","","","",""
"","","","","","html-keyboard-response","11","635350","0.0-5.0-2.1","A3F90N8YVKJ4I7","2022-05-19T11:51:02.430Z","same_different-phon_sim-task_switching-rhyme","","null",""," ","null","","","","","","","","","","","","","","","","","","","","","","","","","","","","","","","","","","",""
"","","","","","html-keyboard-response","12","635662","0.0-5.0-3.1","A3F90N8YVKJ4I7","2022-05-19T11:51:02.430Z","same_different-phon_sim-task_switching-rhyme","","null","same_different"," ","null","","","","","","","","","","","","","","","","","","","","","","","","","","","","","","","","","","",""
"","","","","","html-keyboard-response","13","636421","0.0-5.0-0.2","A3F90N8YVKJ4I7","2022-05-19T11:51:02.430Z","same_different-phon_sim-task_switching-rhyme","","null","same_different","<div style=""font-size:60px"">+</div>","null","","","","","","","","","","","","","","","","","","","","","","","","","","","","","","","","","","",""
"","","","","","html-keyboard-response","14","638045","0.0-5.0-1.2","A3F90N8YVKJ4I7","2022-05-19T11:51:02.430Z","same_different-phon_sim-task_switching-rhyme","","1622.2000000001863","same_different","[""<img src=\""square.png\"" width=\""100\"" height=\""100\"" style=\""position: fixed;left:39%;top:47%\""><img src=\""square.png\"" width=\""100\"" height=\""100\"" style=\""position: fixed;left:54%;top:47%\""><img src=\""square.png\"" width=\""100\"" height=\""100\"" style=\""position: fixed;left:46.5%;top:32%\""><img src=\""square.png\"" width=\""100\"" height=\""100\"" style=\""position: fixed;left:46.5%;top:61%\""><div style=\""font-size:60px;text-align: center;margin-top:35.2%\"">+</div><div id=\""first\"" style=\""position: fixed;visibility: hidden;left:40%;top:48%\""><img src=\""same_diff_imgs/D07.gif\"" style=\""-webkit-transform: scaleX(-1);transform: scaleX(-1);\""></div><div id=\""delayed\"" style=\""position: fixed;visibility: hidden;left:48%;top:62%\""><img src=\""same_diff_imgs/C04.gif\"" style=\""-webkit-transform: scaleX(-1);transform: scaleX(-1);\""></div>""]","arrowdown","categorical_image","same_diff_imgs/D07.gif","same_diff_imgs/C04.gif","yes","different","","true","1","","","","","","","","","","","","","","","","","","","","","","","","","","",""
"","","","","","html-keyboard-response","15","638048","0.0-5.0-2.2","A3F90N8YVKJ4I7","2022-05-19T11:51:02.430Z","same_different-phon_sim-task_switching-rhyme","","null",""," ","null","","","","","","","","","","","","","","","","","","","","","","","","","","","","","","","","","","",""
"","","","","","html-keyboard-response","16","638350","0.0-5.0-3.2","A3F90N8YVKJ4I7","2022-05-19T11:51:02.430Z","same_different-phon_sim-task_switching-rhyme","","null","same_different"," ","null","","","","","","","","","","","","","","","","","","","","","","","","","","","","","","","","","","",""
"","","","","","html-keyboard-response","17","639107","0.0-5.0-0.3","A3F90N8YVKJ4I7","2022-05-19T11:51:02.430Z","same_different-phon_sim-task_switching-rhyme","","null","same_different","<div style=""font-size:60px"">+</div>","null","","","","","","","","","","","","","","","","","","","","","","","","","","","","","","","","","","",""
"","","","","","html-keyboard-response","18","640976","0.0-5.0-1.3","A3F90N8YVKJ4I7","2022-05-19T11:51:02.430Z","same_different-phon_sim-task_switching-rhyme","","1867","same_different","[""<img src=\""square.png\"" width=\""100\"" height=\""100\"" style=\""position: fixed;left:39%;top:47%\""><img src=\""square.png\"" width=\""100\"" height=\""100\"" style=\""position: fixed;left:54%;top:47%\""><img src=\""square.png\"" width=\""100\"" height=\""100\"" style=\""position: fixed;left:46.5%;top:32%\""><img src=\""square.png\"" width=\""100\"" height=\""100\"" style=\""position: fixed;left:46.5%;top:61%\""><div style=\""font-size:60px; text-align: center;margin-top:35.2%\"">+</div><div id=\""first\"" style=\""position: fixed;visibility: hidden;left:55%;top:49%\""><img src=\""same_diff_imgs/D11.gif\""></div><div id=\""delayed\"" style=\""position: fixed;visibility: hidden;left:48%;top:34%\""><img src=\""same_diff_imgs/D09.gif\""></div>""]","arrowdown","categorical_image","same_diff_imgs/D11.gif","same_diff_imgs/D09.gif","no","same","","false","","1","","","","","","","","","","","","","","","","","","","","","","","","","",""
"","","","","","html-keyboard-response","19","641484","0.0-5.0-2.3","A3F90N8YVKJ4I7","2022-05-19T11:51:02.430Z","same_different-phon_sim-task_switching-rhyme","","null","","<div style=""color:darkred; font-size:40px"">Incorrect!</div>","null","","","","","","","","","","","","","","","","","","","","","","","","","","","","","","","","","","",""
"","","","","","html-keyboard-response","20","641793","0.0-5.0-3.3","A3F90N8YVKJ4I7","2022-05-19T11:51:02.430Z","same_different-phon_sim-task_switching-rhyme","","null","same_different"," ","null","","","","","","","","","","","","","","","","","","","","","","","","","","","","","","","","","","",""
"","","","","","html-keyboard-response","21","642551","0.0-5.0-0.4","A3F90N8YVKJ4I7","2022-05-19T11:51:02.430Z","same_different-phon_sim-task_switching-rhyme","","null","same_different","<div style=""font-size:60px"">+</div>","null","","","","","","","","","","","","","","","","","","","","","","","","","","","","","","","","","","",""
"","","","","","html-keyboard-response","22","644299","0.0-5.0-1.4","A3F90N8YVKJ4I7","2022-05-19T11:51:02.430Z","same_different-phon_sim-task_switching-rhyme","","1744.5999999998603","same_different","[""<img src=\""square.png\"" width=\""100\"" height=\""100\"" style=\""position: fixed;left:39%;top:47%\""><img src=\""square.png\"" width=\""100\"" height=\""100\"" style=\""position: fixed;left:54%;top:47%\""><img src=\""square.png\"" width=\""100\"" height=\""100\"" style=\""position: fixed;left:46.5%;top:32%\""><img src=\""square.png\"" width=\""100\"" height=\""100\"" style=\""position: fixed;left:46.5%;top:61%\""><div style=\""font-size:60px; text-align: center;margin-top:35.2%\"">+</div><div id=\""first\"" style=\""position: fixed;visibility: hidden;left:48%;top:34%\""><img src=\""same_diff_imgs/D09.gif\""></div><div id=\""delayed\"" style=\""position: fixed;visibility: hidden;left:55%;top:49%\""><img src=\""same_diff_imgs/C04.gif\""></div>""]","arrowdown","categorical_image","same_diff_imgs/D09.gif","same_diff_imgs/C04.gif","no","different","","true","1","","","","","","","","","","","","","","","","","","","","","","","","","","",""
"","","","","","html-keyboard-response","23","644302","0.0-5.0-2.4","A3F90N8YVKJ4I7","2022-05-19T11:51:02.430Z","same_different-phon_sim-task_switching-rhyme","","null",""," ","null","","","","","","","","","","","","","","","","","","","","","","","","","","","","","","","","","","",""
"","","","","","html-keyboard-response","24","644610","0.0-5.0-3.4","A3F90N8YVKJ4I7","2022-05-19T11:51:02.430Z","same_different-phon_sim-task_switching-rhyme","","null","same_different"," ","null","","","","","","","","","","","","","","","","","","","","","","","","","","","","","","","","","","",""
"","","","","","html-keyboard-response","25","645370","0.0-5.0-0.5","A3F90N8YVKJ4I7","2022-05-19T11:51:02.430Z","same_different-phon_sim-task_switching-rhyme","","null","same_different","<div style=""font-size:60px"">+</div>","null","","","","","","","","","","","","","","","","","","","","","","","","","","","","","","","","","","",""
"","","","","","html-keyboard-response","26","647028","0.0-5.0-1.5","A3F90N8YVKJ4I7","2022-05-19T11:51:02.430Z","same_different-phon_sim-task_switching-rhyme","","1655.1999999999534","same_different","[""<img src=\""square.png\"" width=\""100\"" height=\""100\"" style=\""position: fixed;left:39%;top:47%\""><img src=\""square.png\"" width=\""100\"" height=\""100\"" style=\""position: fixed;left:54%;top:47%\""><img src=\""square.png\"" width=\""100\"" height=\""100\"" style=\""position: fixed;left:46.5%;top:32%\""><img src=\""square.png\"" width=\""100\"" height=\""100\"" style=\""position: fixed;left:46.5%;top:61%\""><div style=\""font-size:60px;text-align: center;margin-top:35.2%\"">+</div><div id=\""first\"" style=\""position: fixed;visibility: hidden;left:48%;top:62%\""><img src=\""same_diff_imgs/C14.gif\"" style=\""-webkit-transform: scaleX(-1);transform: scaleX(-1);\""></div><div id=\""delayed\"" style=\""position: fixed;visibility: hidden;left:55%;top:49%\""><img src=\""same_diff_imgs/D09.gif\"" style=\""-webkit-transform: scaleX(-1);transform: scaleX(-1);\""></div>""]","arrowdown","categorical_image","same_diff_imgs/C14.gif","same_diff_imgs/D09.gif","yes","different","","true","1","","","","","","","","","","","","","","","","","","","","","","","","","","",""
"","","","","","html-keyboard-response","27","647030","0.0-5.0-2.5","A3F90N8YVKJ4I7","2022-05-19T11:51:02.430Z","same_different-phon_sim-task_switching-rhyme","","null",""," ","null","","","","","","","","","","","","","","","","","","","","","","","","","","","","","","","","","","",""
"","","","","","html-keyboard-response","28","647336","0.0-5.0-3.5","A3F90N8YVKJ4I7","2022-05-19T11:51:02.430Z","same_different-phon_sim-task_switching-rhyme","","null","same_different"," ","null","","","","","","","","","","","","","","","","","","","","","","","","","","","","","","","","","","",""
"","","","","","html-keyboard-response","29","648095","0.0-5.0-0.6","A3F90N8YVKJ4I7","2022-05-19T11:51:02.430Z","same_different-phon_sim-task_switching-rhyme","","null","same_different","<div style=""font-size:60px"">+</div>","null","","","","","","","","","","","","","","","","","","","","","","","","","","","","","","","","","","",""
"","","","","","html-keyboard-response","30","649761","0.0-5.0-1.6","A3F90N8YVKJ4I7","2022-05-19T11:51:02.430Z","same_different-phon_sim-task_switching-rhyme","","1663.8999999999069","same_different","[""<img src=\""square.png\"" width=\""100\"" height=\""100\"" style=\""position: fixed;left:39%;top:47%\""><img src=\""square.png\"" width=\""100\"" height=\""100\"" style=\""position: fixed;left:54%;top:47%\""><img src=\""square.png\"" width=\""100\"" height=\""100\"" style=\""position: fixed;left:46.5%;top:32%\""><img src=\""square.png\"" width=\""100\"" height=\""100\"" style=\""position: fixed;left:46.5%;top:61%\""><div style=\""font-size:60px; text-align: center;margin-top:35.2%\"">+</div><div id=\""first\"" style=\""position: fixed;visibility: hidden;left:48%;top:34%\""><img src=\""same_diff_imgs/C04.gif\""></div><div id=\""delayed\"" style=\""position: fixed;visibility: hidden;left:55%;top:49%\""><img src=\""same_diff_imgs/C14.gif\""></div>""]","arrowdown","categorical_image","same_diff_imgs/C04.gif","same_diff_imgs/C14.gif","no","same","","false","","1","","","","","","","","","","","","","","","","","","","","","","","","","",""
"","","","","","html-keyboard-response","31","650269","0.0-5.0-2.6","A3F90N8YVKJ4I7","2022-05-19T11:51:02.430Z","same_different-phon_sim-task_switching-rhyme","","null","","<div style=""color:darkred; font-size:40px"">Incorrect!</div>","null","","","","","","","","","","","","","","","","","","","","","","","","","","","","","","","","","","",""
"","","","","","html-keyboard-response","32","650577","0.0-5.0-3.6","A3F90N8YVKJ4I7","2022-05-19T11:51:02.430Z","same_different-phon_sim-task_switching-rhyme","","null","same_different"," ","null","","","","","","","","","","","","","","","","","","","","","","","","","","","","","","","","","","",""
"","","","","","html-keyboard-response","33","651334","0.0-5.0-0.7","A3F90N8YVKJ4I7","2022-05-19T11:51:02.430Z","same_different-phon_sim-task_switching-rhyme","","null","same_different","<div style=""font-size:60px"">+</div>","null","","","","","","","","","","","","","","","","","","","","","","","","","","","","","","","","","","",""
"","","","","","html-keyboard-response","34","652950","0.0-5.0-1.7","A3F90N8YVKJ4I7","2022-05-19T11:51:02.430Z","same_different-phon_sim-task_switching-rhyme","","1612.0999999998603","same_different","[""<img src=\""square.png\"" width=\""100\"" height=\""100\"" style=\""position: fixed;left:39%;top:47%\""><img src=\""square.png\"" width=\""100\"" height=\""100\"" style=\""position: fixed;left:54%;top:47%\""><img src=\""square.png\"" width=\""100\"" height=\""100\"" style=\""position: fixed;left:46.5%;top:32%\""><img src=\""square.png\"" width=\""100\"" height=\""100\"" style=\""position: fixed;left:46.5%;top:61%\""><div style=\""font-size:60px;text-align: center;margin-top:35.2%\"">+</div><div id=\""first\"" style=\""position: fixed;visibility: hidden;left:40%;top:48%\""><img src=\""same_diff_imgs/D09.gif\"" style=\""-webkit-transform: scaleX(-1);transform: scaleX(-1);\""></div><div id=\""delayed\"" style=\""position: fixed;visibility: hidden;left:55%;top:49%\""><img src=\""same_diff_imgs/C14.gif\"" style=\""-webkit-transform: scaleX(-1);transform: scaleX(-1);\""></div>""]","arrowdown","categorical_image","same_diff_imgs/D09.gif","same_diff_imgs/C14.gif","yes","different","","true","1","","","","","","","","","","","","","","","","","","","","","","","","","","",""
"","","","","","html-keyboard-response","35","652953","0.0-5.0-2.7","A3F90N8YVKJ4I7","2022-05-19T11:51:02.430Z","same_different-phon_sim-task_switching-rhyme","","null",""," ","null","","","","","","","","","","","","","","","","","","","","","","","","","","","","","","","","","","",""
"","","","","","html-keyboard-response","36","653257","0.0-5.0-3.7","A3F90N8YVKJ4I7","2022-05-19T11:51:02.430Z","same_different-phon_sim-task_switching-rhyme","","null","same_different"," ","null","","","","","","","","","","","","","","","","","","","","","","","","","","","","","","","","","","",""
"","","","","","html-keyboard-response","37","654013","0.0-5.0-0.8","A3F90N8YVKJ4I7","2022-05-19T11:51:02.430Z","same_different-phon_sim-task_switching-rhyme","","null","same_different","<div style=""font-size:60px"">+</div>","null","","","","","","","","","","","","","","","","","","","","","","","","","","","","","","","","","","",""
"","","","","","html-keyboard-response","38","655668","0.0-5.0-1.8","A3F90N8YVKJ4I7","2022-05-19T11:51:02.430Z","same_different-phon_sim-task_switching-rhyme","","1653.3999999999069","same_different","[""<img src=\""square.png\"" width=\""100\"" height=\""100\"" style=\""position: fixed;left:39%;top:47%\""><img src=\""square.png\"" width=\""100\"" height=\""100\"" style=\""position: fixed;left:54%;top:47%\""><img src=\""square.png\"" width=\""100\"" height=\""100\"" style=\""position: fixed;left:46.5%;top:32%\""><img src=\""square.png\"" width=\""100\"" height=\""100\"" style=\""position: fixed;left:46.5%;top:61%\""><div style=\""font-size:60px; text-align: center;margin-top:35.2%\"">+</div><div id=\""first\"" style=\""position: fixed;visibility: hidden;left:40%;top:48%\""><img src=\""same_diff_imgs/C14.gif\""></div><div id=\""delayed\"" style=\""position: fixed;visibility: hidden;left:48%;top:62%\""><img src=\""same_diff_imgs/C09.gif\""></div>""]","arrowup","categorical_image","same_diff_imgs/C14.gif","same_diff_imgs/C09.gif","no","same","1","true","","","","","","","","","","","","","","","","","","","","","","","","","","","",""
"","","","","","html-keyboard-response","39","655671","0.0-5.0-2.8","A3F90N8YVKJ4I7","2022-05-19T11:51:02.430Z","same_different-phon_sim-task_switching-rhyme","","null",""," ","null","","","","","","","","","","","","","","","","","","","","","","","","","","","","","","","","","","",""
"","","","","","html-keyboard-response","40","655973","0.0-5.0-3.8","A3F90N8YVKJ4I7","2022-05-19T11:51:02.430Z","same_different-phon_sim-task_switching-rhyme","","null","same_different"," ","null","","","","","","","","","","","","","","","","","","","","","","","","","","","","","","","","","","",""
"","","","","","html-keyboard-response","41","656732","0.0-5.0-0.9","A3F90N8YVKJ4I7","2022-05-19T11:51:02.430Z","same_different-phon_sim-task_switching-rhyme","","null","same_different","<div style=""font-size:60px"">+</div>","null","","","","","","","","","","","","","","","","","","","","","","","","","","","","","","","","","","",""
"","","","","","html-keyboard-response","42","658203","0.0-5.0-1.9","A3F90N8YVKJ4I7","2022-05-19T11:51:02.430Z","same_different-phon_sim-task_switching-rhyme","","1469.2999999998137","same_different","[""<img src=\""square.png\"" width=\""100\"" height=\""100\"" style=\""position: fixed;left:39%;top:47%\""><img src=\""square.png\"" width=\""100\"" height=\""100\"" style=\""position: fixed;left:54%;top:47%\""><img src=\""square.png\"" width=\""100\"" height=\""100\"" style=\""position: fixed;left:46.5%;top:32%\""><img src=\""square.png\"" width=\""100\"" height=\""100\"" style=\""position: fixed;left:46.5%;top:61%\""><div style=\""font-size:60px;text-align: center;margin-top:35.2%\"">+</div><div id=\""first\"" style=\""position: fixed;visibility: hidden;left:48%;top:34%\""><img src=\""same_diff_imgs/C04.gif\"" style=\""-webkit-transform: scaleX(-1);transform: scaleX(-1);\""></div><div id=\""delayed\"" style=\""position: fixed;visibility: hidden;left:48%;top:62%\""><img src=\""same_diff_imgs/C04.gif\"" style=\""-webkit-transform: scaleX(-1);transform: scaleX(-1);\""></div>""]","arrowup","categorical_image","same_diff_imgs/C04.gif","same_diff_imgs/C04.gif","yes","same","1","true","","","","","","","","","","","","","","","","","","","","","","","","","","","",""
"","","","","","html-keyboard-response","43","658205","0.0-5.0-2.9","A3F90N8YVKJ4I7","2022-05-19T11:51:02.430Z","same_different-phon_sim-task_switching-rhyme","","null",""," ","null","","","","","","","","","","","","","","","","","","","","","","","","","","","","","","","","","","",""
"","","","","","html-keyboard-response","44","658516","0.0-5.0-3.9","A3F90N8YVKJ4I7","2022-05-19T11:51:02.430Z","same_different-phon_sim-task_switching-rhyme","","null","same_different"," ","null","","","","","","","","","","","","","","","","","","","","","","","","","","","","","","","","","","",""
"","","","","","html-keyboard-response","45","659274","0.0-5.0-0.10","A3F90N8YVKJ4I7","2022-05-19T11:51:02.430Z","same_different-phon_sim-task_switching-rhyme","","null","same_different","<div style=""font-size:60px"">+</div>","null","","","","","","","","","","","","","","","","","","","","","","","","","","","","","","","","","","",""
"","","","","","html-keyboard-response","46","660732","0.0-5.0-1.10","A3F90N8YVKJ4I7","2022-05-19T11:51:02.430Z","same_different-phon_sim-task_switching-rhyme","","1455.1999999999534","same_different","[""<img src=\""square.png\"" width=\""100\"" height=\""100\"" style=\""position: fixed;left:39%;top:47%\""><img src=\""square.png\"" width=\""100\"" height=\""100\"" style=\""position: fixed;left:54%;top:47%\""><img src=\""square.png\"" width=\""100\"" height=\""100\"" style=\""position: fixed;left:46.5%;top:32%\""><img src=\""square.png\"" width=\""100\"" height=\""100\"" style=\""position: fixed;left:46.5%;top:61%\""><div style=\""font-size:60px; text-align: center;margin-top:35.2%\"">+</div><div id=\""first\"" style=\""position: fixed;visibility: hidden;left:48%;top:34%\""><img src=\""same_diff_imgs/D11.gif\""></div><div id=\""delayed\"" style=\""position: fixed;visibility: hidden;left:40%;top:48%\""><img src=\""same_diff_imgs/C04.gif\""></div>""]","arrowup","categorical_image","same_diff_imgs/D11.gif","same_diff_imgs/C04.gif","no","different","","false","","","1","","","","","","","","","","","","","","","","","","","","","","","","",""
"","","","","","html-keyboard-response","47","661240","0.0-5.0-2.10","A3F90N8YVKJ4I7","2022-05-19T11:51:02.430Z","same_different-phon_sim-task_switching-rhyme","","null","","<div style=""color:darkred; font-size:40px"">Incorrect!</div>","null","","","","","","","","","","","","","","","","","","","","","","","","","","","","","","","","","","",""
"","","","","","html-keyboard-response","48","661549","0.0-5.0-3.10","A3F90N8YVKJ4I7","2022-05-19T11:51:02.430Z","same_different-phon_sim-task_switching-rhyme","","null","same_different"," ","null","","","","","","","","","","","","","","","","","","","","","","","","","","","","","","","","","","",""
"","","","","","html-keyboard-response","49","662305","0.0-5.0-0.11","A3F90N8YVKJ4I7","2022-05-19T11:51:02.430Z","same_different-phon_sim-task_switching-rhyme","","null","same_different","<div style=""font-size:60px"">+</div>","null","","","","","","","","","","","","","","","","","","","","","","","","","","","","","","","","","","",""
"","","","","","html-keyboard-response","50","663850","0.0-5.0-1.11","A3F90N8YVKJ4I7","2022-05-19T11:51:02.430Z","same_different-phon_sim-task_switching-rhyme","","1542.5999999998603","same_different","[""<img src=\""square.png\"" width=\""100\"" height=\""100\"" style=\""position: fixed;left:39%;top:47%\""><img src=\""square.png\"" width=\""100\"" height=\""100\"" style=\""position: fixed;left:54%;top:47%\""><img src=\""square.png\"" width=\""100\"" height=\""100\"" style=\""position: fixed;left:46.5%;top:32%\""><img src=\""square.png\"" width=\""100\"" height=\""100\"" style=\""position: fixed;left:46.5%;top:61%\""><div style=\""font-size:60px; text-align: center;margin-top:35.2%\"">+</div><div id=\""first\"" style=\""position: fixed;visibility: hidden;left:48%;top:62%\""><img src=\""same_diff_imgs/C04.gif\""></div><div id=\""delayed\"" style=\""position: fixed;visibility: hidden;left:48%;top:34%\""><img src=\""same_diff_imgs/D07.gif\""></div>""]","arrowdown","categorical_image","same_diff_imgs/C04.gif","same_diff_imgs/D07.gif","no","different","","true","1","","","","","","","","","","","","","","","","","","","","","","","","","","",""
"","","","","","html-keyboard-response","51","663853","0.0-5.0-2.11","A3F90N8YVKJ4I7","2022-05-19T11:51:02.430Z","same_different-phon_sim-task_switching-rhyme","","null",""," ","null","","","","","","","","","","","","","","","","","","","","","","","","","","","","","","","","","","",""
"","","","","","html-keyboard-response","52","664154","0.0-5.0-3.11","A3F90N8YVKJ4I7","2022-05-19T11:51:02.430Z","same_different-phon_sim-task_switching-rhyme","","null","same_different"," ","null","","","","","","","","","","","","","","","","","","","","","","","","","","","","","","","","","","",""
"","","","","","html-keyboard-response","53","664908","0.0-5.0-0.12","A3F90N8YVKJ4I7","2022-05-19T11:51:02.430Z","same_different-phon_sim-task_switching-rhyme","","null","same_different","<div style=""font-size:60px"">+</div>","null","","","","","","","","","","","","","","","","","","","","","","","","","","","","","","","","","","",""
"","","","","","html-keyboard-response","54","666911","0.0-5.0-1.12","A3F90N8YVKJ4I7","2022-05-19T11:51:02.430Z","same_different-phon_sim-task_switching-rhyme","","2000.9000000001397","same_different","[""<img src=\""square.png\"" width=\""100\"" height=\""100\"" style=\""position: fixed;left:39%;top:47%\""><img src=\""square.png\"" width=\""100\"" height=\""100\"" style=\""position: fixed;left:54%;top:47%\""><img src=\""square.png\"" width=\""100\"" height=\""100\"" style=\""position: fixed;left:46.5%;top:32%\""><img src=\""square.png\"" width=\""100\"" height=\""100\"" style=\""position: fixed;left:46.5%;top:61%\""><div style=\""font-size:60px; text-align: center;margin-top:35.2%\"">+</div><div id=\""first\"" style=\""position: fixed;visibility: hidden;left:48%;top:34%\""><img src=\""same_diff_imgs/C09.gif\""></div><div id=\""delayed\"" style=\""position: fixed;visibility: hidden;left:55%;top:49%\""><img src=\""same_diff_imgs/D11.gif\""></div>""]","arrowdown","categorical_image","same_diff_imgs/C09.gif","same_diff_imgs/D11.gif","no","different","","true","1","","","","","","","","","","","","","","","","","","","","","","","","","","",""
"","","","","","html-keyboard-response","55","666913","0.0-5.0-2.12","A3F90N8YVKJ4I7","2022-05-19T11:51:02.430Z","same_different-phon_sim-task_switching-rhyme","","null",""," ","null","","","","","","","","","","","","","","","","","","","","","","","","","","","","","","","","","","",""
"","","","","","html-keyboard-response","56","667226","0.0-5.0-3.12","A3F90N8YVKJ4I7","2022-05-19T11:51:02.430Z","same_different-phon_sim-task_switching-rhyme","","null","same_different"," ","null","","","","","","","","","","","","","","","","","","","","","","","","","","","","","","","","","","",""
"","","","","","html-keyboard-response","57","667982","0.0-5.0-0.13","A3F90N8YVKJ4I7","2022-05-19T11:51:02.430Z","same_different-phon_sim-task_switching-rhyme","","null","same_different","<div style=""font-size:60px"">+</div>","null","","","","","","","","","","","","","","","","","","","","","","","","","","","","","","","","","","",""
"","","","","","html-keyboard-response","58","669975","0.0-5.0-1.13","A3F90N8YVKJ4I7","2022-05-19T11:51:02.430Z","same_different-phon_sim-task_switching-rhyme","","1990.6000000000931","same_different","[""<img src=\""square.png\"" width=\""100\"" height=\""100\"" style=\""position: fixed;left:39%;top:47%\""><img src=\""square.png\"" width=\""100\"" height=\""100\"" style=\""position: fixed;left:54%;top:47%\""><img src=\""square.png\"" width=\""100\"" height=\""100\"" style=\""position: fixed;left:46.5%;top:32%\""><img src=\""square.png\"" width=\""100\"" height=\""100\"" style=\""position: fixed;left:46.5%;top:61%\""><div style=\""font-size:60px; text-align: center;margin-top:35.2%\"">+</div><div id=\""first\"" style=\""position: fixed;visibility: hidden;left:40%;top:48%\""><img src=\""same_diff_imgs/D07.gif\""></div><div id=\""delayed\"" style=\""position: fixed;visibility: hidden;left:48%;top:62%\""><img src=\""same_diff_imgs/C09.gif\""></div>""]","arrowdown","categorical_image","same_diff_imgs/D07.gif","same_diff_imgs/C09.gif","no","different","","true","1","","","","","","","","","","","","","","","","","","","","","","","","","","",""
"","","","","","html-keyboard-response","59","669977","0.0-5.0-2.13","A3F90N8YVKJ4I7","2022-05-19T11:51:02.430Z","same_different-phon_sim-task_switching-rhyme","","null",""," ","null","","","","","","","","","","","","","","","","","","","","","","","","","","","","","","","","","","",""
"","","","","","html-keyboard-response","60","670284","0.0-5.0-3.13","A3F90N8YVKJ4I7","2022-05-19T11:51:02.430Z","same_different-phon_sim-task_switching-rhyme","","null","same_different"," ","null","","","","","","","","","","","","","","","","","","","","","","","","","","","","","","","","","","",""
"","","","","","html-keyboard-response","61","671041","0.0-5.0-0.14","A3F90N8YVKJ4I7","2022-05-19T11:51:02.430Z","same_different-phon_sim-task_switching-rhyme","","null","same_different","<div style=""font-size:60px"">+</div>","null","","","","","","","","","","","","","","","","","","","","","","","","","","","","","","","","","","",""
"","","","","","html-keyboard-response","62","672965","0.0-5.0-1.14","A3F90N8YVKJ4I7","2022-05-19T11:51:02.430Z","same_different-phon_sim-task_switching-rhyme","","1920.8999999999069","same_different","[""<img src=\""square.png\"" width=\""100\"" height=\""100\"" style=\""position: fixed;left:39%;top:47%\""><img src=\""square.png\"" width=\""100\"" height=\""100\"" style=\""position: fixed;left:54%;top:47%\""><img src=\""square.png\"" width=\""100\"" height=\""100\"" style=\""position: fixed;left:46.5%;top:32%\""><img src=\""square.png\"" width=\""100\"" height=\""100\"" style=\""position: fixed;left:46.5%;top:61%\""><div style=\""font-size:60px;text-align: center;margin-top:35.2%\"">+</div><div id=\""first\"" style=\""position: fixed;visibility: hidden;left:48%;top:34%\""><img src=\""same_diff_imgs/D11.gif\"" style=\""-webkit-transform: scaleX(-1);transform: scaleX(-1);\""></div><div id=\""delayed\"" style=\""position: fixed;visibility: hidden;left:55%;top:49%\""><img src=\""same_diff_imgs/C09.gif\"" style=\""-webkit-transform: scaleX(-1);transform: scaleX(-1);\""></div>""]","arrowdown","categorical_image","same_diff_imgs/D11.gif","same_diff_imgs/C09.gif","yes","different","","true","1","","","","","","","","","","","","","","","","","","","","","","","","","","",""
"","","","","","html-keyboard-response","63","672966","0.0-5.0-2.14","A3F90N8YVKJ4I7","2022-05-19T11:51:02.430Z","same_different-phon_sim-task_switching-rhyme","","null",""," ","null","","","","","","","","","","","","","","","","","","","","","","","","","","","","","","","","","","",""
"","","","","","html-keyboard-response","64","673274","0.0-5.0-3.14","A3F90N8YVKJ4I7","2022-05-19T11:51:02.430Z","same_different-phon_sim-task_switching-rhyme","","null","same_different"," ","null","","","","","","","","","","","","","","","","","","","","","","","","","","","","","","","","","","",""
"","","","","","html-keyboard-response","65","674033","0.0-5.0-0.15","A3F90N8YVKJ4I7","2022-05-19T11:51:02.430Z","same_different-phon_sim-task_switching-rhyme","","null","same_different","<div style=""font-size:60px"">+</div>","null","","","","","","","","","","","","","","","","","","","","","","","","","","","","","","","","","","",""
"","","","","","html-keyboard-response","66","675832","0.0-5.0-1.15","A3F90N8YVKJ4I7","2022-05-19T11:51:02.430Z","same_different-phon_sim-task_switching-rhyme","","1795.6999999999534","same_different","[""<img src=\""square.png\"" width=\""100\"" height=\""100\"" style=\""position: fixed;left:39%;top:47%\""><img src=\""square.png\"" width=\""100\"" height=\""100\"" style=\""position: fixed;left:54%;top:47%\""><img src=\""square.png\"" width=\""100\"" height=\""100\"" style=\""position: fixed;left:46.5%;top:32%\""><img src=\""square.png\"" width=\""100\"" height=\""100\"" style=\""position: fixed;left:46.5%;top:61%\""><div style=\""font-size:60px;text-align: center;margin-top:35.2%\"">+</div><div id=\""first\"" style=\""position: fixed;visibility: hidden;left:48%;top:62%\""><img src=\""same_diff_imgs/C09.gif\"" style=\""-webkit-transform: scaleX(-1);transform: scaleX(-1);\""></div><div id=\""delayed\"" style=\""position: fixed;visibility: hidden;left:55%;top:49%\""><img src=\""same_diff_imgs/C14.gif\"" style=\""-webkit-transform: scaleX(-1);transform: scaleX(-1);\""></div>""]","arrowup","categorical_image","same_diff_imgs/C09.gif","same_diff_imgs/C14.gif","yes","same","1","true","","","","","","","","","","","","","","","","","","","","","","","","","","","",""
"","","","","","html-keyboard-response","67","675833","0.0-5.0-2.15","A3F90N8YVKJ4I7","2022-05-19T11:51:02.430Z","same_different-phon_sim-task_switching-rhyme","","null",""," ","null","","","","","","","","","","","","","","","","","","","","","","","","","","","","","","","","","","",""
"","","","","","html-keyboard-response","68","676146","0.0-5.0-3.15","A3F90N8YVKJ4I7","2022-05-19T11:51:02.430Z","same_different-phon_sim-task_switching-rhyme","","null","same_different"," ","null","","","","","","","","","","","","","","","","","","","","","","","","","","","","","","","","","","",""
"","","","","","html-keyboard-response","69","676900","0.0-5.0-0.16","A3F90N8YVKJ4I7","2022-05-19T11:51:02.430Z","same_different-phon_sim-task_switching-rhyme","","null","same_different","<div style=""font-size:60px"">+</div>","null","","","","","","","","","","","","","","","","","","","","","","","","","","","","","","","","","","",""
"","","","","","html-keyboard-response","70","678822","0.0-5.0-1.16","A3F90N8YVKJ4I7","2022-05-19T11:51:02.430Z","same_different-phon_sim-task_switching-rhyme","","1919.4000000001397","same_different","[""<img src=\""square.png\"" width=\""100\"" height=\""100\"" style=\""position: fixed;left:39%;top:47%\""><img src=\""square.png\"" width=\""100\"" height=\""100\"" style=\""position: fixed;left:54%;top:47%\""><img src=\""square.png\"" width=\""100\"" height=\""100\"" style=\""position: fixed;left:46.5%;top:32%\""><img src=\""square.png\"" width=\""100\"" height=\""100\"" style=\""position: fixed;left:46.5%;top:61%\""><div style=\""font-size:60px;text-align: center;margin-top:35.2%\"">+</div><div id=\""first\"" style=\""position: fixed;visibility: hidden;left:40%;top:48%\""><img src=\""same_diff_imgs/D11.gif\"" style=\""-webkit-transform: scaleX(-1);transform: scaleX(-1);\""></div><div id=\""delayed\"" style=\""position: fixed;visibility: hidden;left:55%;top:49%\""><img src=\""same_diff_imgs/C14.gif\"" style=\""-webkit-transform: scaleX(-1);transform: scaleX(-1);\""></div>""]","arrowdown","categorical_image","same_diff_imgs/D11.gif","same_diff_imgs/C14.gif","yes","different","","true","1","","","","","","","","","","","","","","","","","","","","","","","","","","",""
"","","","","","html-keyboard-response","71","678824","0.0-5.0-2.16","A3F90N8YVKJ4I7","2022-05-19T11:51:02.430Z","same_different-phon_sim-task_switching-rhyme","","null",""," ","null","","","","","","","","","","","","","","","","","","","","","","","","","","","","","","","","","","",""
"","","","","","html-keyboard-response","72","679127","0.0-5.0-3.16","A3F90N8YVKJ4I7","2022-05-19T11:51:02.430Z","same_different-phon_sim-task_switching-rhyme","","null","same_different"," ","null","","","","","","","","","","","","","","","","","","","","","","","","","","","","","","","","","","",""
"","","","","","html-keyboard-response","73","679884","0.0-5.0-0.17","A3F90N8YVKJ4I7","2022-05-19T11:51:02.430Z","same_different-phon_sim-task_switching-rhyme","","null","same_different","<div style=""font-size:60px"">+</div>","null","","","","","","","","","","","","","","","","","","","","","","","","","","","","","","","","","","",""
"","","","","","html-keyboard-response","74","681604","0.0-5.0-1.17","A3F90N8YVKJ4I7","2022-05-19T11:51:02.430Z","same_different-phon_sim-task_switching-rhyme","","1717.5","same_different","[""<img src=\""square.png\"" width=\""100\"" height=\""100\"" style=\""position: fixed;left:39%;top:47%\""><img src=\""square.png\"" width=\""100\"" height=\""100\"" style=\""position: fixed;left:54%;top:47%\""><img src=\""square.png\"" width=\""100\"" height=\""100\"" style=\""position: fixed;left:46.5%;top:32%\""><img src=\""square.png\"" width=\""100\"" height=\""100\"" style=\""position: fixed;left:46.5%;top:61%\""><div style=\""font-size:60px; text-align: center;margin-top:35.2%\"">+</div><div id=\""first\"" style=\""position: fixed;visibility: hidden;left:48%;top:34%\""><img src=\""same_diff_imgs/D09.gif\""></div><div id=\""delayed\"" style=\""position: fixed;visibility: hidden;left:40%;top:48%\""><img src=\""same_diff_imgs/C09.gif\""></div>""]","arrowdown","categorical_image","same_diff_imgs/D09.gif","same_diff_imgs/C09.gif","no","different","","true","1","","","","","","","","","","","","","","","","","","","","","","","","","","",""
"","","","","","html-keyboard-response","75","681606","0.0-5.0-2.17","A3F90N8YVKJ4I7","2022-05-19T11:51:02.430Z","same_different-phon_sim-task_switching-rhyme","","null",""," ","null","","","","","","","","","","","","","","","","","","","","","","","","","","","","","","","","","","",""
"","","","","","html-keyboard-response","76","681921","0.0-5.0-3.17","A3F90N8YVKJ4I7","2022-05-19T11:51:02.430Z","same_different-phon_sim-task_switching-rhyme","","null","same_different"," ","null","","","","","","","","","","","","","","","","","","","","","","","","","","","","","","","","","","",""
"","","","","","html-keyboard-response","77","682675","0.0-5.0-0.18","A3F90N8YVKJ4I7","2022-05-19T11:51:02.430Z","same_different-phon_sim-task_switching-rhyme","","null","same_different","<div style=""font-size:60px"">+</div>","null","","","","","","","","","","","","","","","","","","","","","","","","","","","","","","","","","","",""
"","","","","","html-keyboard-response","78","684367","0.0-5.0-1.18","A3F90N8YVKJ4I7","2022-05-19T11:51:02.430Z","same_different-phon_sim-task_switching-rhyme","","1689","same_different","[""<img src=\""square.png\"" width=\""100\"" height=\""100\"" style=\""position: fixed;left:39%;top:47%\""><img src=\""square.png\"" width=\""100\"" height=\""100\"" style=\""position: fixed;left:54%;top:47%\""><img src=\""square.png\"" width=\""100\"" height=\""100\"" style=\""position: fixed;left:46.5%;top:32%\""><img src=\""square.png\"" width=\""100\"" height=\""100\"" style=\""position: fixed;left:46.5%;top:61%\""><div style=\""font-size:60px;text-align: center;margin-top:35.2%\"">+</div><div id=\""first\"" style=\""position: fixed;visibility: hidden;left:40%;top:48%\""><img src=\""same_diff_imgs/C09.gif\"" style=\""-webkit-transform: scaleX(-1);transform: scaleX(-1);\""></div><div id=\""delayed\"" style=\""position: fixed;visibility: hidden;left:55%;top:49%\""><img src=\""same_diff_imgs/D11.gif\"" style=\""-webkit-transform: scaleX(-1);transform: scaleX(-1);\""></div>""]","arrowdown","categorical_image","same_diff_imgs/C09.gif","same_diff_imgs/D11.gif","yes","different","","true","1","","","","","","","","","","","","","","","","","","","","","","","","","","",""
"","","","","","html-keyboard-response","79","684370","0.0-5.0-2.18","A3F90N8YVKJ4I7","2022-05-19T11:51:02.430Z","same_different-phon_sim-task_switching-rhyme","","null",""," ","null","","","","","","","","","","","","","","","","","","","","","","","","","","","","","","","","","","",""
"","","","","","html-keyboard-response","80","684674","0.0-5.0-3.18","A3F90N8YVKJ4I7","2022-05-19T11:51:02.430Z","same_different-phon_sim-task_switching-rhyme","","null","same_different"," ","null","","","","","","","","","","","","","","","","","","","","","","","","","","","","","","","","","","",""
"","","","","","html-keyboard-response","81","685434","0.0-5.0-0.19","A3F90N8YVKJ4I7","2022-05-19T11:51:02.430Z","same_different-phon_sim-task_switching-rhyme","","null","same_different","<div style=""font-size:60px"">+</div>","null","","","","","","","","","","","","","","","","","","","","","","","","","","","","","","","","","","",""
"","","","","","html-keyboard-response","82","687099","0.0-5.0-1.19","A3F90N8YVKJ4I7","2022-05-19T11:51:02.430Z","same_different-phon_sim-task_switching-rhyme","","1662.8000000000466","same_different","[""<img src=\""square.png\"" width=\""100\"" height=\""100\"" style=\""position: fixed;left:39%;top:47%\""><img src=\""square.png\"" width=\""100\"" height=\""100\"" style=\""position: fixed;left:54%;top:47%\""><img src=\""square.png\"" width=\""100\"" height=\""100\"" style=\""position: fixed;left:46.5%;top:32%\""><img src=\""square.png\"" width=\""100\"" height=\""100\"" style=\""position: fixed;left:46.5%;top:61%\""><div style=\""font-size:60px; text-align: center;margin-top:35.2%\"">+</div><div id=\""first\"" style=\""position: fixed;visibility: hidden;left:48%;top:62%\""><img src=\""same_diff_imgs/C04.gif\""></div><div id=\""delayed\"" style=\""position: fixed;visibility: hidden;left:55%;top:49%\""><img src=\""same_diff_imgs/D09.gif\""></div>""]","arrowdown","categorical_image","same_diff_imgs/C04.gif","same_diff_imgs/D09.gif","no","different","","true","1","","","","","","","","","","","","","","","","","","","","","","","","","","",""
"","","","","","html-keyboard-response","83","687102","0.0-5.0-2.19","A3F90N8YVKJ4I7","2022-05-19T11:51:02.430Z","same_different-phon_sim-task_switching-rhyme","","null",""," ","null","","","","","","","","","","","","","","","","","","","","","","","","","","","","","","","","","","",""
"","","","","","html-keyboard-response","84","687411","0.0-5.0-3.19","A3F90N8YVKJ4I7","2022-05-19T11:51:02.430Z","same_different-phon_sim-task_switching-rhyme","","null","same_different"," ","null","","","","","","","","","","","","","","","","","","","","","","","","","","","","","","","","","","",""
"","","","","","html-keyboard-response","85","688170","0.0-5.0-0.20","A3F90N8YVKJ4I7","2022-05-19T11:51:02.430Z","same_different-phon_sim-task_switching-rhyme","","null","same_different","<div style=""font-size:60px"">+</div>","null","","","","","","","","","","","","","","","","","","","","","","","","","","","","","","","","","","",""
"","","","","","html-keyboard-response","86","690193","0.0-5.0-1.20","A3F90N8YVKJ4I7","2022-05-19T11:51:02.430Z","same_different-phon_sim-task_switching-rhyme","","2021","same_different","[""<img src=\""square.png\"" width=\""100\"" height=\""100\"" style=\""position: fixed;left:39%;top:47%\""><img src=\""square.png\"" width=\""100\"" height=\""100\"" style=\""position: fixed;left:54%;top:47%\""><img src=\""square.png\"" width=\""100\"" height=\""100\"" style=\""position: fixed;left:46.5%;top:32%\""><img src=\""square.png\"" width=\""100\"" height=\""100\"" style=\""position: fixed;left:46.5%;top:61%\""><div style=\""font-size:60px;text-align: center;margin-top:35.2%\"">+</div><div id=\""first\"" style=\""position: fixed;visibility: hidden;left:40%;top:48%\""><img src=\""same_diff_imgs/D11.gif\"" style=\""-webkit-transform: scaleX(-1);transform: scaleX(-1);\""></div><div id=\""delayed\"" style=\""position: fixed;visibility: hidden;left:48%;top:62%\""><img src=\""same_diff_imgs/C04.gif\"" style=\""-webkit-transform: scaleX(-1);transform: scaleX(-1);\""></div>""]","arrowdown","categorical_image","same_diff_imgs/D11.gif","same_diff_imgs/C04.gif","yes","different","","true","1","","","","","","","","","","","","","","","","","","","","","","","","","","",""
"","","","","","html-keyboard-response","87","690195","0.0-5.0-2.20","A3F90N8YVKJ4I7","2022-05-19T11:51:02.430Z","same_different-phon_sim-task_switching-rhyme","","null",""," ","null","","","","","","","","","","","","","","","","","","","","","","","","","","","","","","","","","","",""
"","","","","","html-keyboard-response","88","690506","0.0-5.0-3.20","A3F90N8YVKJ4I7","2022-05-19T11:51:02.430Z","same_different-phon_sim-task_switching-rhyme","","null","same_different"," ","null","","","","","","","","","","","","","","","","","","","","","","","","","","","","","","","","","","",""
"","","","","","html-keyboard-response","89","691260","0.0-5.0-0.21","A3F90N8YVKJ4I7","2022-05-19T11:51:02.430Z","same_different-phon_sim-task_switching-rhyme","","null","same_different","<div style=""font-size:60px"">+</div>","null","","","","","","","","","","","","","","","","","","","","","","","","","","","","","","","","","","",""
"","","","","","html-keyboard-response","90","692950","0.0-5.0-1.21","A3F90N8YVKJ4I7","2022-05-19T11:51:02.430Z","same_different-phon_sim-task_switching-rhyme","","1687.1000000000931","same_different","[""<img src=\""square.png\"" width=\""100\"" height=\""100\"" style=\""position: fixed;left:39%;top:47%\""><img src=\""square.png\"" width=\""100\"" height=\""100\"" style=\""position: fixed;left:54%;top:47%\""><img src=\""square.png\"" width=\""100\"" height=\""100\"" style=\""position: fixed;left:46.5%;top:32%\""><img src=\""square.png\"" width=\""100\"" height=\""100\"" style=\""position: fixed;left:46.5%;top:61%\""><div style=\""font-size:60px;text-align: center;margin-top:35.2%\"">+</div><div id=\""first\"" style=\""position: fixed;visibility: hidden;left:48%;top:34%\""><img src=\""same_diff_imgs/C14.gif\"" style=\""-webkit-transform: scaleX(-1);transform: scaleX(-1);\""></div><div id=\""delayed\"" style=\""position: fixed;visibility: hidden;left:55%;top:49%\""><img src=\""same_diff_imgs/C09.gif\"" style=\""-webkit-transform: scaleX(-1);transform: scaleX(-1);\""></div>""]","arrowup","categorical_image","same_diff_imgs/C14.gif","same_diff_imgs/C09.gif","yes","same","1","true","","","","","","","","","","","","","","","","","","","","","","","","","","","",""
"","","","","","html-keyboard-response","91","692952","0.0-5.0-2.21","A3F90N8YVKJ4I7","2022-05-19T11:51:02.430Z","same_different-phon_sim-task_switching-rhyme","","null",""," ","null","","","","","","","","","","","","","","","","","","","","","","","","","","","","","","","","","","",""
"","","","","","html-keyboard-response","92","693265","0.0-5.0-3.21","A3F90N8YVKJ4I7","2022-05-19T11:51:02.430Z","same_different-phon_sim-task_switching-rhyme","","null","same_different"," ","null","","","","","","","","","","","","","","","","","","","","","","","","","","","","","","","","","","",""
"","","","","","html-keyboard-response","93","694022","0.0-5.0-0.22","A3F90N8YVKJ4I7","2022-05-19T11:51:02.430Z","same_different-phon_sim-task_switching-rhyme","","null","same_different","<div style=""font-size:60px"">+</div>","null","","","","","","","","","","","","","","","","","","","","","","","","","","","","","","","","","","",""
"","","","","","html-keyboard-response","94","696311","0.0-5.0-1.22","A3F90N8YVKJ4I7","2022-05-19T11:51:02.430Z","same_different-phon_sim-task_switching-rhyme","","2286.5","same_different","[""<img src=\""square.png\"" width=\""100\"" height=\""100\"" style=\""position: fixed;left:39%;top:47%\""><img src=\""square.png\"" width=\""100\"" height=\""100\"" style=\""position: fixed;left:54%;top:47%\""><img src=\""square.png\"" width=\""100\"" height=\""100\"" style=\""position: fixed;left:46.5%;top:32%\""><img src=\""square.png\"" width=\""100\"" height=\""100\"" style=\""position: fixed;left:46.5%;top:61%\""><div style=\""font-size:60px;text-align: center;margin-top:35.2%\"">+</div><div id=\""first\"" style=\""position: fixed;visibility: hidden;left:48%;top:62%\""><img src=\""same_diff_imgs/D09.gif\"" style=\""-webkit-transform: scaleX(-1);transform: scaleX(-1);\""></div><div id=\""delayed\"" style=\""position: fixed;visibility: hidden;left:40%;top:48%\""><img src=\""same_diff_imgs/D09.gif\"" style=\""-webkit-transform: scaleX(-1);transform: scaleX(-1);\""></div>""]","arrowup","categorical_image","same_diff_imgs/D09.gif","same_diff_imgs/D09.gif","yes","same","1","true","","","","","","","","","","","","","","","","","","","","","","","","","","","",""
"","","","","","html-keyboard-response","95","696314","0.0-5.0-2.22","A3F90N8YVKJ4I7","2022-05-19T11:51:02.430Z","same_different-phon_sim-task_switching-rhyme","","null",""," ","null","","","","","","","","","","","","","","","","","","","","","","","","","","","","","","","","","","",""
"","","","","","html-keyboard-response","96","696625","0.0-5.0-3.22","A3F90N8YVKJ4I7","2022-05-19T11:51:02.430Z","same_different-phon_sim-task_switching-rhyme","","null","same_different"," ","null","","","","","","","","","","","","","","","","","","","","","","","","","","","","","","","","","","",""
"","","","","","html-keyboard-response","97","697388","0.0-5.0-0.23","A3F90N8YVKJ4I7","2022-05-19T11:51:02.430Z","same_different-phon_sim-task_switching-rhyme","","null","same_different","<div style=""font-size:60px"">+</div>","null","","","","","","","","","","","","","","","","","","","","","","","","","","","","","","","","","","",""
"","","","","","html-keyboard-response","98","698828","0.0-5.0-1.23","A3F90N8YVKJ4I7","2022-05-19T11:51:02.430Z","same_different-phon_sim-task_switching-rhyme","","1437.2999999998137","same_different","[""<img src=\""square.png\"" width=\""100\"" height=\""100\"" style=\""position: fixed;left:39%;top:47%\""><img src=\""square.png\"" width=\""100\"" height=\""100\"" style=\""position: fixed;left:54%;top:47%\""><img src=\""square.png\"" width=\""100\"" height=\""100\"" style=\""position: fixed;left:46.5%;top:32%\""><img src=\""square.png\"" width=\""100\"" height=\""100\"" style=\""position: fixed;left:46.5%;top:61%\""><div style=\""font-size:60px;text-align: center;margin-top:35.2%\"">+</div><div id=\""first\"" style=\""position: fixed;visibility: hidden;left:55%;top:49%\""><img src=\""same_diff_imgs/C09.gif\"" style=\""-webkit-transform: scaleX(-1);transform: scaleX(-1);\""></div><div id=\""delayed\"" style=\""position: fixed;visibility: hidden;left:48%;top:62%\""><img src=\""same_diff_imgs/C09.gif\"" style=\""-webkit-transform: scaleX(-1);transform: scaleX(-1);\""></div>""]","arrowup","categorical_image","same_diff_imgs/C09.gif","same_diff_imgs/C09.gif","yes","same","1","true","","","","","","","","","","","","","","","","","","","","","","","","","","","",""
"","","","","","html-keyboard-response","99","698830","0.0-5.0-2.23","A3F90N8YVKJ4I7","2022-05-19T11:51:02.430Z","same_different-phon_sim-task_switching-rhyme","","null",""," ","null","","","","","","","","","","","","","","","","","","","","","","","","","","","","","","","","","","",""
"","","","","","html-keyboard-response","100","699136","0.0-5.0-3.23","A3F90N8YVKJ4I7","2022-05-19T11:51:02.430Z","same_different-phon_sim-task_switching-rhyme","","null","same_different"," ","null","","","","","","","","","","","","","","","","","","","","","","","","","","","","","","","","","","",""
"","","","","","html-keyboard-response","101","699891","0.0-5.0-0.24","A3F90N8YVKJ4I7","2022-05-19T11:51:02.430Z","same_different-phon_sim-task_switching-rhyme","","null","same_different","<div style=""font-size:60px"">+</div>","null","","","","","","","","","","","","","","","","","","","","","","","","","","","","","","","","","","",""
"","","","","","html-keyboard-response","102","701753","0.0-5.0-1.24","A3F90N8YVKJ4I7","2022-05-19T11:51:02.430Z","same_different-phon_sim-task_switching-rhyme","","1860.0999999998603","same_different","[""<img src=\""square.png\"" width=\""100\"" height=\""100\"" style=\""position: fixed;left:39%;top:47%\""><img src=\""square.png\"" width=\""100\"" height=\""100\"" style=\""position: fixed;left:54%;top:47%\""><img src=\""square.png\"" width=\""100\"" height=\""100\"" style=\""position: fixed;left:46.5%;top:32%\""><img src=\""square.png\"" width=\""100\"" height=\""100\"" style=\""position: fixed;left:46.5%;top:61%\""><div style=\""font-size:60px; text-align: center;margin-top:35.2%\"">+</div><div id=\""first\"" style=\""position: fixed;visibility: hidden;left:55%;top:49%\""><img src=\""same_diff_imgs/D07.gif\""></div><div id=\""delayed\"" style=\""position: fixed;visibility: hidden;left:48%;top:34%\""><img src=\""same_diff_imgs/C14.gif\""></div>""]","arrowdown","categorical_image","same_diff_imgs/D07.gif","same_diff_imgs/C14.gif","no","different","","true","1","","","","","","","","","","","","","","","","","","","","","","","","","","",""
"","","","","","html-keyboard-response","103","701755","0.0-5.0-2.24","A3F90N8YVKJ4I7","2022-05-19T11:51:02.430Z","same_different-phon_sim-task_switching-rhyme","","null",""," ","null","","","","","","","","","","","","","","","","","","","","","","","","","","","","","","","","","","",""
"","","","","","html-keyboard-response","104","702068","0.0-5.0-3.24","A3F90N8YVKJ4I7","2022-05-19T11:51:02.430Z","same_different-phon_sim-task_switching-rhyme","","null","same_different"," ","null","","","","","","","","","","","","","","","","","","","","","","","","","","","","","","","","","","",""
"","","","","","html-keyboard-response","105","702827","0.0-5.0-0.25","A3F90N8YVKJ4I7","2022-05-19T11:51:02.430Z","same_different-phon_sim-task_switching-rhyme","","null","same_different","<div style=""font-size:60px"">+</div>","null","","","","","","","","","","","","","","","","","","","","","","","","","","","","","","","","","","",""
"","","","","","html-keyboard-response","106","704417","0.0-5.0-1.25","A3F90N8YVKJ4I7","2022-05-19T11:51:02.430Z","same_different-phon_sim-task_switching-rhyme","","1585.5","same_different","[""<img src=\""square.png\"" width=\""100\"" height=\""100\"" style=\""position: fixed;left:39%;top:47%\""><img src=\""square.png\"" width=\""100\"" height=\""100\"" style=\""position: fixed;left:54%;top:47%\""><img src=\""square.png\"" width=\""100\"" height=\""100\"" style=\""position: fixed;left:46.5%;top:32%\""><img src=\""square.png\"" width=\""100\"" height=\""100\"" style=\""position: fixed;left:46.5%;top:61%\""><div style=\""font-size:60px; text-align: center;margin-top:35.2%\"">+</div><div id=\""first\"" style=\""position: fixed;visibility: hidden;left:55%;top:49%\""><img src=\""same_diff_imgs/C14.gif\""></div><div id=\""delayed\"" style=\""position: fixed;visibility: hidden;left:40%;top:48%\""><img src=\""same_diff_imgs/C14.gif\""></div>""]","arrowup","categorical_image","same_diff_imgs/C14.gif","same_diff_imgs/C14.gif","no","same","1","true","","","","","","","","","","","","","","","","","","","","","","","","","","","",""
"","","","","","html-keyboard-response","107","704418","0.0-5.0-2.25","A3F90N8YVKJ4I7","2022-05-19T11:51:02.430Z","same_different-phon_sim-task_switching-rhyme","","null",""," ","null","","","","","","","","","","","","","","","","","","","","","","","","","","","","","","","","","","",""
"","","","","","html-keyboard-response","108","704722","0.0-5.0-3.25","A3F90N8YVKJ4I7","2022-05-19T11:51:02.430Z","same_different-phon_sim-task_switching-rhyme","","null","same_different"," ","null","","","","","","","","","","","","","","","","","","","","","","","","","","","","","","","","","","",""
"","","","","","html-keyboard-response","109","705483","0.0-5.0-0.26","A3F90N8YVKJ4I7","2022-05-19T11:51:02.430Z","same_different-phon_sim-task_switching-rhyme","","null","same_different","<div style=""font-size:60px"">+</div>","null","","","","","","","","","","","","","","","","","","","","","","","","","","","","","","","","","","",""
"","","","","","html-keyboard-response","110","707541","0.0-5.0-1.26","A3F90N8YVKJ4I7","2022-05-19T11:51:02.430Z","same_different-phon_sim-task_switching-rhyme","","2055.600000000093","same_different","[""<img src=\""square.png\"" width=\""100\"" height=\""100\"" style=\""position: fixed;left:39%;top:47%\""><img src=\""square.png\"" width=\""100\"" height=\""100\"" style=\""position: fixed;left:54%;top:47%\""><img src=\""square.png\"" width=\""100\"" height=\""100\"" style=\""position: fixed;left:46.5%;top:32%\""><img src=\""square.png\"" width=\""100\"" height=\""100\"" style=\""position: fixed;left:46.5%;top:61%\""><div style=\""font-size:60px; text-align: center;margin-top:35.2%\"">+</div><div id=\""first\"" style=\""position: fixed;visibility: hidden;left:40%;top:48%\""><img src=\""same_diff_imgs/D09.gif\""></div><div id=\""delayed\"" style=\""position: fixed;visibility: hidden;left:48%;top:34%\""><img src=\""same_diff_imgs/D07.gif\""></div>""]","arrowup","categorical_image","same_diff_imgs/D09.gif","same_diff_imgs/D07.gif","no","same","1","true","","","","","","","","","","","","","","","","","","","","","","","","","","","",""
"","","","","","html-keyboard-response","111","707544","0.0-5.0-2.26","A3F90N8YVKJ4I7","2022-05-19T11:51:02.430Z","same_different-phon_sim-task_switching-rhyme","","null",""," ","null","","","","","","","","","","","","","","","","","","","","","","","","","","","","","","","","","","",""
"","","","","","html-keyboard-response","112","707858","0.0-5.0-3.26","A3F90N8YVKJ4I7","2022-05-19T11:51:02.430Z","same_different-phon_sim-task_switching-rhyme","","null","same_different"," ","null","","","","","","","","","","","","","","","","","","","","","","","","","","","","","","","","","","",""
"","","","","","html-keyboard-response","113","708614","0.0-5.0-0.27","A3F90N8YVKJ4I7","2022-05-19T11:51:02.430Z","same_different-phon_sim-task_switching-rhyme","","null","same_different","<div style=""font-size:60px"">+</div>","null","","","","","","","","","","","","","","","","","","","","","","","","","","","","","","","","","","",""
"","","","","","html-keyboard-response","114","710585","0.0-5.0-1.27","A3F90N8YVKJ4I7","2022-05-19T11:51:02.430Z","same_different-phon_sim-task_switching-rhyme","","1969.1000000000931","same_different","[""<img src=\""square.png\"" width=\""100\"" height=\""100\"" style=\""position: fixed;left:39%;top:47%\""><img src=\""square.png\"" width=\""100\"" height=\""100\"" style=\""position: fixed;left:54%;top:47%\""><img src=\""square.png\"" width=\""100\"" height=\""100\"" style=\""position: fixed;left:46.5%;top:32%\""><img src=\""square.png\"" width=\""100\"" height=\""100\"" style=\""position: fixed;left:46.5%;top:61%\""><div style=\""font-size:60px; text-align: center;margin-top:35.2%\"">+</div><div id=\""first\"" style=\""position: fixed;visibility: hidden;left:40%;top:48%\""><img src=\""same_diff_imgs/D11.gif\""></div><div id=\""delayed\"" style=\""position: fixed;visibility: hidden;left:48%;top:34%\""><img src=\""same_diff_imgs/C14.gif\""></div>""]","arrowdown","categorical_image","same_diff_imgs/D11.gif","same_diff_imgs/C14.gif","no","different","","true","1","","","","","","","","","","","","","","","","","","","","","","","","","","",""
"","","","","","html-keyboard-response","115","710586","0.0-5.0-2.27","A3F90N8YVKJ4I7","2022-05-19T11:51:02.430Z","same_different-phon_sim-task_switching-rhyme","","null",""," ","null","","","","","","","","","","","","","","","","","","","","","","","","","","","","","","","","","","",""
"","","","","","html-keyboard-response","116","710893","0.0-5.0-3.27","A3F90N8YVKJ4I7","2022-05-19T11:51:02.430Z","same_different-phon_sim-task_switching-rhyme","","null","same_different"," ","null","","","","","","","","","","","","","","","","","","","","","","","","","","","","","","","","","","",""
"","","","","","html-keyboard-response","117","711645","0.0-5.0-0.28","A3F90N8YVKJ4I7","2022-05-19T11:51:02.430Z","same_different-phon_sim-task_switching-rhyme","","null","same_different","<div style=""font-size:60px"">+</div>","null","","","","","","","","","","","","","","","","","","","","","","","","","","","","","","","","","","",""
"","","","","","html-keyboard-response","118","713651","0.0-5.0-1.28","A3F90N8YVKJ4I7","2022-05-19T11:51:02.430Z","same_different-phon_sim-task_switching-rhyme","","2003.5","same_different","[""<img src=\""square.png\"" width=\""100\"" height=\""100\"" style=\""position: fixed;left:39%;top:47%\""><img src=\""square.png\"" width=\""100\"" height=\""100\"" style=\""position: fixed;left:54%;top:47%\""><img src=\""square.png\"" width=\""100\"" height=\""100\"" style=\""position: fixed;left:46.5%;top:32%\""><img src=\""square.png\"" width=\""100\"" height=\""100\"" style=\""position: fixed;left:46.5%;top:61%\""><div style=\""font-size:60px; text-align: center;margin-top:35.2%\"">+</div><div id=\""first\"" style=\""position: fixed;visibility: hidden;left:40%;top:48%\""><img src=\""same_diff_imgs/C04.gif\""></div><div id=\""delayed\"" style=\""position: fixed;visibility: hidden;left:48%;top:34%\""><img src=\""same_diff_imgs/D11.gif\""></div>""]","arrowdown","categorical_image","same_diff_imgs/C04.gif","same_diff_imgs/D11.gif","no","different","","true","1","","","","","","","","","","","","","","","","","","","","","","","","","","",""
"","","","","","html-keyboard-response","119","713653","0.0-5.0-2.28","A3F90N8YVKJ4I7","2022-05-19T11:51:02.430Z","same_different-phon_sim-task_switching-rhyme","","null",""," ","null","","","","","","","","","","","","","","","","","","","","","","","","","","","","","","","","","","",""
"","","","","","html-keyboard-response","120","713962","0.0-5.0-3.28","A3F90N8YVKJ4I7","2022-05-19T11:51:02.430Z","same_different-phon_sim-task_switching-rhyme","","null","same_different"," ","null","","","","","","","","","","","","","","","","","","","","","","","","","","","","","","","","","","",""
"","","","","","html-keyboard-response","121","714714","0.0-5.0-0.29","A3F90N8YVKJ4I7","2022-05-19T11:51:02.430Z","same_different-phon_sim-task_switching-rhyme","","null","same_different","<div style=""font-size:60px"">+</div>","null","","","","","","","","","","","","","","","","","","","","","","","","","","","","","","","","","","",""
"","","","","","html-keyboard-response","122","716572","0.0-5.0-1.29","A3F90N8YVKJ4I7","2022-05-19T11:51:02.430Z","same_different-phon_sim-task_switching-rhyme","","1855.9000000001397","same_different","[""<img src=\""square.png\"" width=\""100\"" height=\""100\"" style=\""position: fixed;left:39%;top:47%\""><img src=\""square.png\"" width=\""100\"" height=\""100\"" style=\""position: fixed;left:54%;top:47%\""><img src=\""square.png\"" width=\""100\"" height=\""100\"" style=\""position: fixed;left:46.5%;top:32%\""><img src=\""square.png\"" width=\""100\"" height=\""100\"" style=\""position: fixed;left:46.5%;top:61%\""><div style=\""font-size:60px;text-align: center;margin-top:35.2%\"">+</div><div id=\""first\"" style=\""position: fixed;visibility: hidden;left:48%;top:62%\""><img src=\""same_diff_imgs/C14.gif\"" style=\""-webkit-transform: scaleX(-1);transform: scaleX(-1);\""></div><div id=\""delayed\"" style=\""position: fixed;visibility: hidden;left:40%;top:48%\""><img src=\""same_diff_imgs/C04.gif\"" style=\""-webkit-transform: scaleX(-1);transform: scaleX(-1);\""></div>""]","arrowup","categorical_image","same_diff_imgs/C14.gif","same_diff_imgs/C04.gif","yes","same","1","true","","","","","","","","","","","","","","","","","","","","","","","","","","","",""
"","","","","","html-keyboard-response","123","716574","0.0-5.0-2.29","A3F90N8YVKJ4I7","2022-05-19T11:51:02.430Z","same_different-phon_sim-task_switching-rhyme","","null",""," ","null","","","","","","","","","","","","","","","","","","","","","","","","","","","","","","","","","","",""
"","","","","","html-keyboard-response","124","716881","0.0-5.0-3.29","A3F90N8YVKJ4I7","2022-05-19T11:51:02.430Z","same_different-phon_sim-task_switching-rhyme","","null","same_different"," ","null","","","","","","","","","","","","","","","","","","","","","","","","","","","","","","","","","","",""
"","","","","","html-keyboard-response","125","717639","0.0-5.0-0.30","A3F90N8YVKJ4I7","2022-05-19T11:51:02.430Z","same_different-phon_sim-task_switching-rhyme","","null","same_different","<div style=""font-size:60px"">+</div>","null","","","","","","","","","","","","","","","","","","","","","","","","","","","","","","","","","","",""
"","","","","","html-keyboard-response","126","719200","0.0-5.0-1.30","A3F90N8YVKJ4I7","2022-05-19T11:51:02.430Z","same_different-phon_sim-task_switching-rhyme","","1557.6999999999534","same_different","[""<img src=\""square.png\"" width=\""100\"" height=\""100\"" style=\""position: fixed;left:39%;top:47%\""><img src=\""square.png\"" width=\""100\"" height=\""100\"" style=\""position: fixed;left:54%;top:47%\""><img src=\""square.png\"" width=\""100\"" height=\""100\"" style=\""position: fixed;left:46.5%;top:32%\""><img src=\""square.png\"" width=\""100\"" height=\""100\"" style=\""position: fixed;left:46.5%;top:61%\""><div style=\""font-size:60px; text-align: center;margin-top:35.2%\"">+</div><div id=\""first\"" style=\""position: fixed;visibility: hidden;left:48%;top:34%\""><img src=\""same_diff_imgs/C09.gif\""></div><div id=\""delayed\"" style=\""position: fixed;visibility: hidden;left:55%;top:49%\""><img src=\""same_diff_imgs/C04.gif\""></div>""]","arrowup","categorical_image","same_diff_imgs/C09.gif","same_diff_imgs/C04.gif","no","same","1","true","","","","","","","","","","","","","","","","","","","","","","","","","","","",""
"","","","","","html-keyboard-response","127","719202","0.0-5.0-2.30","A3F90N8YVKJ4I7","2022-05-19T11:51:02.430Z","same_different-phon_sim-task_switching-rhyme","","null",""," ","null","","","","","","","","","","","","","","","","","","","","","","","","","","","","","","","","","","",""
"","","","","","html-keyboard-response","128","719518","0.0-5.0-3.30","A3F90N8YVKJ4I7","2022-05-19T11:51:02.430Z","same_different-phon_sim-task_switching-rhyme","","null","same_different"," ","null","","","","","","","","","","","","","","","","","","","","","","","","","","","","","","","","","","",""
"","","","","","html-keyboard-response","129","720277","0.0-5.0-0.31","A3F90N8YVKJ4I7","2022-05-19T11:51:02.430Z","same_different-phon_sim-task_switching-rhyme","","null","same_different","<div style=""font-size:60px"">+</div>","null","","","","","","","","","","","","","","","","","","","","","","","","","","","","","","","","","","",""
"","","","","","html-keyboard-response","130","721949","0.0-5.0-1.31","A3F90N8YVKJ4I7","2022-05-19T11:51:02.430Z","same_different-phon_sim-task_switching-rhyme","","1669.6999999999534","same_different","[""<img src=\""square.png\"" width=\""100\"" height=\""100\"" style=\""position: fixed;left:39%;top:47%\""><img src=\""square.png\"" width=\""100\"" height=\""100\"" style=\""position: fixed;left:54%;top:47%\""><img src=\""square.png\"" width=\""100\"" height=\""100\"" style=\""position: fixed;left:46.5%;top:32%\""><img src=\""square.png\"" width=\""100\"" height=\""100\"" style=\""position: fixed;left:46.5%;top:61%\""><div style=\""font-size:60px;text-align: center;margin-top:35.2%\"">+</div><div id=\""first\"" style=\""position: fixed;visibility: hidden;left:55%;top:49%\""><img src=\""same_diff_imgs/C14.gif\"" style=\""-webkit-transform: scaleX(-1);transform: scaleX(-1);\""></div><div id=\""delayed\"" style=\""position: fixed;visibility: hidden;left:48%;top:34%\""><img src=\""same_diff_imgs/C14.gif\"" style=\""-webkit-transform: scaleX(-1);transform: scaleX(-1);\""></div>""]","arrowup","categorical_image","same_diff_imgs/C14.gif","same_diff_imgs/C14.gif","yes","same","1","true","","","","","","","","","","","","","","","","","","","","","","","","","","","",""
"","","","","","html-keyboard-response","131","721953","0.0-5.0-2.31","A3F90N8YVKJ4I7","2022-05-19T11:51:02.430Z","same_different-phon_sim-task_switching-rhyme","","null",""," ","null","","","","","","","","","","","","","","","","","","","","","","","","","","","","","","","","","","",""
"","","","","","html-keyboard-response","132","722254","0.0-5.0-3.31","A3F90N8YVKJ4I7","2022-05-19T11:51:02.430Z","same_different-phon_sim-task_switching-rhyme","","null","same_different"," ","null","","","","","","","","","","","","","","","","","","","","","","","","","","","","","","","","","","",""
"","","","","","html-keyboard-response","133","723009","0.0-5.0-0.32","A3F90N8YVKJ4I7","2022-05-19T11:51:02.430Z","same_different-phon_sim-task_switching-rhyme","","null","same_different","<div style=""font-size:60px"">+</div>","null","","","","","","","","","","","","","","","","","","","","","","","","","","","","","","","","","","",""
"","","","","","html-keyboard-response","134","724839","0.0-5.0-1.32","A3F90N8YVKJ4I7","2022-05-19T11:51:02.430Z","same_different-phon_sim-task_switching-rhyme","","1827.5999999998603","same_different","[""<img src=\""square.png\"" width=\""100\"" height=\""100\"" style=\""position: fixed;left:39%;top:47%\""><img src=\""square.png\"" width=\""100\"" height=\""100\"" style=\""position: fixed;left:54%;top:47%\""><img src=\""square.png\"" width=\""100\"" height=\""100\"" style=\""position: fixed;left:46.5%;top:32%\""><img src=\""square.png\"" width=\""100\"" height=\""100\"" style=\""position: fixed;left:46.5%;top:61%\""><div style=\""font-size:60px;text-align: center;margin-top:35.2%\"">+</div><div id=\""first\"" style=\""position: fixed;visibility: hidden;left:48%;top:34%\""><img src=\""same_diff_imgs/D09.gif\"" style=\""-webkit-transform: scaleX(-1);transform: scaleX(-1);\""></div><div id=\""delayed\"" style=\""position: fixed;visibility: hidden;left:40%;top:48%\""><img src=\""same_diff_imgs/C09.gif\"" style=\""-webkit-transform: scaleX(-1);transform: scaleX(-1);\""></div>""]","arrowdown","categorical_image","same_diff_imgs/D09.gif","same_diff_imgs/C09.gif","yes","different","","true","1","","","","","","","","","","","","","","","","","","","","","","","","","","",""
"","","","","","html-keyboard-response","135","724842","0.0-5.0-2.32","A3F90N8YVKJ4I7","2022-05-19T11:51:02.430Z","same_different-phon_sim-task_switching-rhyme","","null",""," ","null","","","","","","","","","","","","","","","","","","","","","","","","","","","","","","","","","","",""
"","","","","","html-keyboard-response","136","725152","0.0-5.0-3.32","A3F90N8YVKJ4I7","2022-05-19T11:51:02.430Z","same_different-phon_sim-task_switching-rhyme","","null","same_different"," ","null","","","","","","","","","","","","","","","","","","","","","","","","","","","","","","","","","","",""
"","","","","","html-keyboard-response","137","725910","0.0-5.0-0.33","A3F90N8YVKJ4I7","2022-05-19T11:51:02.430Z","same_different-phon_sim-task_switching-rhyme","","null","same_different","<div style=""font-size:60px"">+</div>","null","","","","","","","","","","","","","","","","","","","","","","","","","","","","","","","","","","",""
"","","","","","html-keyboard-response","138","727758","0.0-5.0-1.33","A3F90N8YVKJ4I7","2022-05-19T11:51:02.430Z","same_different-phon_sim-task_switching-rhyme","","1845.6000000000931","same_different","[""<img src=\""square.png\"" width=\""100\"" height=\""100\"" style=\""position: fixed;left:39%;top:47%\""><img src=\""square.png\"" width=\""100\"" height=\""100\"" style=\""position: fixed;left:54%;top:47%\""><img src=\""square.png\"" width=\""100\"" height=\""100\"" style=\""position: fixed;left:46.5%;top:32%\""><img src=\""square.png\"" width=\""100\"" height=\""100\"" style=\""position: fixed;left:46.5%;top:61%\""><div style=\""font-size:60px; text-align: center;margin-top:35.2%\"">+</div><div id=\""first\"" style=\""position: fixed;visibility: hidden;left:40%;top:48%\""><img src=\""same_diff_imgs/D09.gif\""></div><div id=\""delayed\"" style=\""position: fixed;visibility: hidden;left:48%;top:62%\""><img src=\""same_diff_imgs/C14.gif\""></div>""]","arrowdown","categorical_image","same_diff_imgs/D09.gif","same_diff_imgs/C14.gif","no","different","","true","1","","","","","","","","","","","","","","","","","","","","","","","","","","",""
"","","","","","html-keyboard-response","139","727760","0.0-5.0-2.33","A3F90N8YVKJ4I7","2022-05-19T11:51:02.430Z","same_different-phon_sim-task_switching-rhyme","","null",""," ","null","","","","","","","","","","","","","","","","","","","","","","","","","","","","","","","","","","",""
"","","","","","html-keyboard-response","140","728073","0.0-5.0-3.33","A3F90N8YVKJ4I7","2022-05-19T11:51:02.430Z","same_different-phon_sim-task_switching-rhyme","","null","same_different"," ","null","","","","","","","","","","","","","","","","","","","","","","","","","","","","","","","","","","",""
"","","","","","html-keyboard-response","141","728826","0.0-5.0-0.34","A3F90N8YVKJ4I7","2022-05-19T11:51:02.430Z","same_different-phon_sim-task_switching-rhyme","","null","same_different","<div style=""font-size:60px"">+</div>","null","","","","","","","","","","","","","","","","","","","","","","","","","","","","","","","","","","",""
"","","","","","html-keyboard-response","142","730752","0.0-5.0-1.34","A3F90N8YVKJ4I7","2022-05-19T11:51:02.430Z","same_different-phon_sim-task_switching-rhyme","","1923.8999999999069","same_different","[""<img src=\""square.png\"" width=\""100\"" height=\""100\"" style=\""position: fixed;left:39%;top:47%\""><img src=\""square.png\"" width=\""100\"" height=\""100\"" style=\""position: fixed;left:54%;top:47%\""><img src=\""square.png\"" width=\""100\"" height=\""100\"" style=\""position: fixed;left:46.5%;top:32%\""><img src=\""square.png\"" width=\""100\"" height=\""100\"" style=\""position: fixed;left:46.5%;top:61%\""><div style=\""font-size:60px;text-align: center;margin-top:35.2%\"">+</div><div id=\""first\"" style=\""position: fixed;visibility: hidden;left:40%;top:48%\""><img src=\""same_diff_imgs/D09.gif\"" style=\""-webkit-transform: scaleX(-1);transform: scaleX(-1);\""></div><div id=\""delayed\"" style=\""position: fixed;visibility: hidden;left:48%;top:62%\""><img src=\""same_diff_imgs/D11.gif\"" style=\""-webkit-transform: scaleX(-1);transform: scaleX(-1);\""></div>""]","arrowup","categorical_image","same_diff_imgs/D09.gif","same_diff_imgs/D11.gif","yes","same","1","true","","","","","","","","","","","","","","","","","","","","","","","","","","","",""
"","","","","","html-keyboard-response","143","730754","0.0-5.0-2.34","A3F90N8YVKJ4I7","2022-05-19T11:51:02.430Z","same_different-phon_sim-task_switching-rhyme","","null",""," ","null","","","","","","","","","","","","","","","","","","","","","","","","","","","","","","","","","","",""
"","","","","","html-keyboard-response","144","731069","0.0-5.0-3.34","A3F90N8YVKJ4I7","2022-05-19T11:51:02.430Z","same_different-phon_sim-task_switching-rhyme","","null","same_different"," ","null","","","","","","","","","","","","","","","","","","","","","","","","","","","","","","","","","","",""
"","","","","","html-keyboard-response","145","731826","0.0-5.0-0.35","A3F90N8YVKJ4I7","2022-05-19T11:51:02.430Z","same_different-phon_sim-task_switching-rhyme","","null","same_different","<div style=""font-size:60px"">+</div>","null","","","","","","","","","","","","","","","","","","","","","","","","","","","","","","","","","","",""
"","","","","","html-keyboard-response","146","733509","0.0-5.0-1.35","A3F90N8YVKJ4I7","2022-05-19T11:51:02.430Z","same_different-phon_sim-task_switching-rhyme","","1680.4000000001397","same_different","[""<img src=\""square.png\"" width=\""100\"" height=\""100\"" style=\""position: fixed;left:39%;top:47%\""><img src=\""square.png\"" width=\""100\"" height=\""100\"" style=\""position: fixed;left:54%;top:47%\""><img src=\""square.png\"" width=\""100\"" height=\""100\"" style=\""position: fixed;left:46.5%;top:32%\""><img src=\""square.png\"" width=\""100\"" height=\""100\"" style=\""position: fixed;left:46.5%;top:61%\""><div style=\""font-size:60px; text-align: center;margin-top:35.2%\"">+</div><div id=\""first\"" style=\""position: fixed;visibility: hidden;left:48%;top:34%\""><img src=\""same_diff_imgs/C04.gif\""></div><div id=\""delayed\"" style=\""position: fixed;visibility: hidden;left:48%;top:62%\""><img src=\""same_diff_imgs/C09.gif\""></div>""]","arrowup","categorical_image","same_diff_imgs/C04.gif","same_diff_imgs/C09.gif","no","same","1","true","","","","","","","","","","","","","","","","","","","","","","","","","","","",""
"","","","","","html-keyboard-response","147","733511","0.0-5.0-2.35","A3F90N8YVKJ4I7","2022-05-19T11:51:02.430Z","same_different-phon_sim-task_switching-rhyme","","null",""," ","null","","","","","","","","","","","","","","","","","","","","","","","","","","","","","","","","","","",""
"","","","","","html-keyboard-response","148","733815","0.0-5.0-3.35","A3F90N8YVKJ4I7","2022-05-19T11:51:02.430Z","same_different-phon_sim-task_switching-rhyme","","null","same_different"," ","null","","","","","","","","","","","","","","","","","","","","","","","","","","","","","","","","","","",""
"","","","","","html-keyboard-response","149","734571","0.0-5.0-0.36","A3F90N8YVKJ4I7","2022-05-19T11:51:02.430Z","same_different-phon_sim-task_switching-rhyme","","null","same_different","<div style=""font-size:60px"">+</div>","null","","","","","","","","","","","","","","","","","","","","","","","","","","","","","","","","","","",""
"","","","","","html-keyboard-response","150","736503","0.0-5.0-1.36","A3F90N8YVKJ4I7","2022-05-19T11:51:02.430Z","same_different-phon_sim-task_switching-rhyme","","1928.8999999999069","same_different","[""<img src=\""square.png\"" width=\""100\"" height=\""100\"" style=\""position: fixed;left:39%;top:47%\""><img src=\""square.png\"" width=\""100\"" height=\""100\"" style=\""position: fixed;left:54%;top:47%\""><img src=\""square.png\"" width=\""100\"" height=\""100\"" style=\""position: fixed;left:46.5%;top:32%\""><img src=\""square.png\"" width=\""100\"" height=\""100\"" style=\""position: fixed;left:46.5%;top:61%\""><div style=\""font-size:60px; text-align: center;margin-top:35.2%\"">+</div><div id=\""first\"" style=\""position: fixed;visibility: hidden;left:40%;top:48%\""><img src=\""same_diff_imgs/D07.gif\""></div><div id=\""delayed\"" style=\""position: fixed;visibility: hidden;left:55%;top:49%\""><img src=\""same_diff_imgs/D09.gif\""></div>""]","arrowup","categorical_image","same_diff_imgs/D07.gif","same_diff_imgs/D09.gif","no","same","1","true","","","","","","","","","","","","","","","","","","","","","","","","","","","",""
"","","","","","html-keyboard-response","151","736506","0.0-5.0-2.36","A3F90N8YVKJ4I7","2022-05-19T11:51:02.430Z","same_different-phon_sim-task_switching-rhyme","","null",""," ","null","","","","","","","","","","","","","","","","","","","","","","","","","","","","","","","","","","",""
"","","","","","html-keyboard-response","152","736821","0.0-5.0-3.36","A3F90N8YVKJ4I7","2022-05-19T11:51:02.430Z","same_different-phon_sim-task_switching-rhyme","","null","same_different"," ","null","","","","","","","","","","","","","","","","","","","","","","","","","","","","","","","","","","",""
"","","","","","html-keyboard-response","153","737577","0.0-5.0-0.37","A3F90N8YVKJ4I7","2022-05-19T11:51:02.430Z","same_different-phon_sim-task_switching-rhyme","","null","same_different","<div style=""font-size:60px"">+</div>","null","","","","","","","","","","","","","","","","","","","","","","","","","","","","","","","","","","",""
"","","","","","html-keyboard-response","154","739133","0.0-5.0-1.37","A3F90N8YVKJ4I7","2022-05-19T11:51:02.430Z","same_different-phon_sim-task_switching-rhyme","","1552","same_different","[""<img src=\""square.png\"" width=\""100\"" height=\""100\"" style=\""position: fixed;left:39%;top:47%\""><img src=\""square.png\"" width=\""100\"" height=\""100\"" style=\""position: fixed;left:54%;top:47%\""><img src=\""square.png\"" width=\""100\"" height=\""100\"" style=\""position: fixed;left:46.5%;top:32%\""><img src=\""square.png\"" width=\""100\"" height=\""100\"" style=\""position: fixed;left:46.5%;top:61%\""><div style=\""font-size:60px; text-align: center;margin-top:35.2%\"">+</div><div id=\""first\"" style=\""position: fixed;visibility: hidden;left:40%;top:48%\""><img src=\""same_diff_imgs/C14.gif\""></div><div id=\""delayed\"" style=\""position: fixed;visibility: hidden;left:55%;top:49%\""><img src=\""same_diff_imgs/D09.gif\""></div>""]","arrowdown","categorical_image","same_diff_imgs/C14.gif","same_diff_imgs/D09.gif","no","different","","true","1","","","","","","","","","","","","","","","","","","","","","","","","","","",""
"","","","","","html-keyboard-response","155","739137","0.0-5.0-2.37","A3F90N8YVKJ4I7","2022-05-19T11:51:02.430Z","same_different-phon_sim-task_switching-rhyme","","null",""," ","null","","","","","","","","","","","","","","","","","","","","","","","","","","","","","","","","","","",""
"","","","","","html-keyboard-response","156","739452","0.0-5.0-3.37","A3F90N8YVKJ4I7","2022-05-19T11:51:02.430Z","same_different-phon_sim-task_switching-rhyme","","null","same_different"," ","null","","","","","","","","","","","","","","","","","","","","","","","","","","","","","","","","","","",""
"","","","","","html-keyboard-response","157","740208","0.0-5.0-0.38","A3F90N8YVKJ4I7","2022-05-19T11:51:02.430Z","same_different-phon_sim-task_switching-rhyme","","null","same_different","<div style=""font-size:60px"">+</div>","null","","","","","","","","","","","","","","","","","","","","","","","","","","","","","","","","","","",""
"","","","","","html-keyboard-response","158","742132","0.0-5.0-1.38","A3F90N8YVKJ4I7","2022-05-19T11:51:02.430Z","same_different-phon_sim-task_switching-rhyme","","1921.1999999999534","same_different","[""<img src=\""square.png\"" width=\""100\"" height=\""100\"" style=\""position: fixed;left:39%;top:47%\""><img src=\""square.png\"" width=\""100\"" height=\""100\"" style=\""position: fixed;left:54%;top:47%\""><img src=\""square.png\"" width=\""100\"" height=\""100\"" style=\""position: fixed;left:46.5%;top:32%\""><img src=\""square.png\"" width=\""100\"" height=\""100\"" style=\""position: fixed;left:46.5%;top:61%\""><div style=\""font-size:60px;text-align: center;margin-top:35.2%\"">+</div><div id=\""first\"" style=\""position: fixed;visibility: hidden;left:40%;top:48%\""><img src=\""same_diff_imgs/D07.gif\"" style=\""-webkit-transform: scaleX(-1);transform: scaleX(-1);\""></div><div id=\""delayed\"" style=\""position: fixed;visibility: hidden;left:48%;top:34%\""><img src=\""same_diff_imgs/D11.gif\"" style=\""-webkit-transform: scaleX(-1);transform: scaleX(-1);\""></div>""]","arrowup","categorical_image","same_diff_imgs/D07.gif","same_diff_imgs/D11.gif","yes","same","1","true","","","","","","","","","","","","","","","","","","","","","","","","","","","",""
"","","","","","html-keyboard-response","159","742133","0.0-5.0-2.38","A3F90N8YVKJ4I7","2022-05-19T11:51:02.430Z","same_different-phon_sim-task_switching-rhyme","","null",""," ","null","","","","","","","","","","","","","","","","","","","","","","","","","","","","","","","","","","",""
"","","","","","html-keyboard-response","160","742446","0.0-5.0-3.38","A3F90N8YVKJ4I7","2022-05-19T11:51:02.430Z","same_different-phon_sim-task_switching-rhyme","","null","same_different"," ","null","","","","","","","","","","","","","","","","","","","","","","","","","","","","","","","","","","",""
"","","","","","html-keyboard-response","161","743203","0.0-5.0-0.39","A3F90N8YVKJ4I7","2022-05-19T11:51:02.430Z","same_different-phon_sim-task_switching-rhyme","","null","same_different","<div style=""font-size:60px"">+</div>","null","","","","","","","","","","","","","","","","","","","","","","","","","","","","","","","","","","",""
"","","","","","html-keyboard-response","162","745105","0.0-5.0-1.39","A3F90N8YVKJ4I7","2022-05-19T11:51:02.430Z","same_different-phon_sim-task_switching-rhyme","","1900.3000000000466","same_different","[""<img src=\""square.png\"" width=\""100\"" height=\""100\"" style=\""position: fixed;left:39%;top:47%\""><img src=\""square.png\"" width=\""100\"" height=\""100\"" style=\""position: fixed;left:54%;top:47%\""><img src=\""square.png\"" width=\""100\"" height=\""100\"" style=\""position: fixed;left:46.5%;top:32%\""><img src=\""square.png\"" width=\""100\"" height=\""100\"" style=\""position: fixed;left:46.5%;top:61%\""><div style=\""font-size:60px; text-align: center;margin-top:35.2%\"">+</div><div id=\""first\"" style=\""position: fixed;visibility: hidden;left:48%;top:34%\""><img src=\""same_diff_imgs/C09.gif\""></div><div id=\""delayed\"" style=\""position: fixed;visibility: hidden;left:48%;top:62%\""><img src=\""same_diff_imgs/C14.gif\""></div>""]","arrowup","categorical_image","same_diff_imgs/C09.gif","same_diff_imgs/C14.gif","no","same","1","true","","","","","","","","","","","","","","","","","","","","","","","","","","","",""
"","","","","","html-keyboard-response","163","745107","0.0-5.0-2.39","A3F90N8YVKJ4I7","2022-05-19T11:51:02.430Z","same_different-phon_sim-task_switching-rhyme","","null",""," ","null","","","","","","","","","","","","","","","","","","","","","","","","","","","","","","","","","","",""
"","","","","","html-keyboard-response","164","745416","0.0-5.0-3.39","A3F90N8YVKJ4I7","2022-05-19T11:51:02.430Z","same_different-phon_sim-task_switching-rhyme","","null","same_different"," ","null","","","","","","","","","","","","","","","","","","","","","","","","","","","","","","","","","","",""
"","","","","","html-keyboard-response","165","746174","0.0-5.0-0.40","A3F90N8YVKJ4I7","2022-05-19T11:51:02.430Z","same_different-phon_sim-task_switching-rhyme","","null","same_different","<div style=""font-size:60px"">+</div>","null","","","","","","","","","","","","","","","","","","","","","","","","","","","","","","","","","","",""
"","","","","","html-keyboard-response","166","748071","0.0-5.0-1.40","A3F90N8YVKJ4I7","2022-05-19T11:51:02.430Z","same_different-phon_sim-task_switching-rhyme","","1895.2000000001863","same_different","[""<img src=\""square.png\"" width=\""100\"" height=\""100\"" style=\""position: fixed;left:39%;top:47%\""><img src=\""square.png\"" width=\""100\"" height=\""100\"" style=\""position: fixed;left:54%;top:47%\""><img src=\""square.png\"" width=\""100\"" height=\""100\"" style=\""position: fixed;left:46.5%;top:32%\""><img src=\""square.png\"" width=\""100\"" height=\""100\"" style=\""position: fixed;left:46.5%;top:61%\""><div style=\""font-size:60px;text-align: center;margin-top:35.2%\"">+</div><div id=\""first\"" style=\""position: fixed;visibility: hidden;left:55%;top:49%\""><img src=\""same_diff_imgs/D11.gif\"" style=\""-webkit-transform: scaleX(-1);transform: scaleX(-1);\""></div><div id=\""delayed\"" style=\""position: fixed;visibility: hidden;left:40%;top:48%\""><img src=\""same_diff_imgs/D07.gif\"" style=\""-webkit-transform: scaleX(-1);transform: scaleX(-1);\""></div>""]","arrowup","categorical_image","same_diff_imgs/D11.gif","same_diff_imgs/D07.gif","yes","same","1","true","","","","","","","","","","","","","","","","","","","","","","","","","","","",""
"","","","","","html-keyboard-response","167","748073","0.0-5.0-2.40","A3F90N8YVKJ4I7","2022-05-19T11:51:02.430Z","same_different-phon_sim-task_switching-rhyme","","null",""," ","null","","","","","","","","","","","","","","","","","","","","","","","","","","","","","","","","","","",""
"","","","","","html-keyboard-response","168","748387","0.0-5.0-3.40","A3F90N8YVKJ4I7","2022-05-19T11:51:02.430Z","same_different-phon_sim-task_switching-rhyme","","null","same_different"," ","null","","","","","","","","","","","","","","","","","","","","","","","","","","","","","","","","","","",""
"","","","","","html-keyboard-response","169","749141","0.0-5.0-0.41","A3F90N8YVKJ4I7","2022-05-19T11:51:02.430Z","same_different-phon_sim-task_switching-rhyme","","null","same_different","<div style=""font-size:60px"">+</div>","null","","","","","","","","","","","","","","","","","","","","","","","","","","","","","","","","","","",""
"","","","","","html-keyboard-response","170","751077","0.0-5.0-1.41","A3F90N8YVKJ4I7","2022-05-19T11:51:02.430Z","same_different-phon_sim-task_switching-rhyme","","1933.0999999998603","same_different","[""<img src=\""square.png\"" width=\""100\"" height=\""100\"" style=\""position: fixed;left:39%;top:47%\""><img src=\""square.png\"" width=\""100\"" height=\""100\"" style=\""position: fixed;left:54%;top:47%\""><img src=\""square.png\"" width=\""100\"" height=\""100\"" style=\""position: fixed;left:46.5%;top:32%\""><img src=\""square.png\"" width=\""100\"" height=\""100\"" style=\""position: fixed;left:46.5%;top:61%\""><div style=\""font-size:60px;text-align: center;margin-top:35.2%\"">+</div><div id=\""first\"" style=\""position: fixed;visibility: hidden;left:48%;top:62%\""><img src=\""same_diff_imgs/C04.gif\"" style=\""-webkit-transform: scaleX(-1);transform: scaleX(-1);\""></div><div id=\""delayed\"" style=\""position: fixed;visibility: hidden;left:48%;top:34%\""><img src=\""same_diff_imgs/C09.gif\"" style=\""-webkit-transform: scaleX(-1);transform: scaleX(-1);\""></div>""]","arrowup","categorical_image","same_diff_imgs/C04.gif","same_diff_imgs/C09.gif","yes","same","1","true","","","","","","","","","","","","","","","","","","","","","","","","","","","",""
"","","","","","html-keyboard-response","171","751081","0.0-5.0-2.41","A3F90N8YVKJ4I7","2022-05-19T11:51:02.430Z","same_different-phon_sim-task_switching-rhyme","","null",""," ","null","","","","","","","","","","","","","","","","","","","","","","","","","","","","","","","","","","",""
"","","","","","html-keyboard-response","172","751394","0.0-5.0-3.41","A3F90N8YVKJ4I7","2022-05-19T11:51:02.430Z","same_different-phon_sim-task_switching-rhyme","","null","same_different"," ","null","","","","","","","","","","","","","","","","","","","","","","","","","","","","","","","","","","",""
"","","","","","html-keyboard-response","173","752153","0.0-5.0-0.42","A3F90N8YVKJ4I7","2022-05-19T11:51:02.430Z","same_different-phon_sim-task_switching-rhyme","","null","same_different","<div style=""font-size:60px"">+</div>","null","","","","","","","","","","","","","","","","","","","","","","","","","","","","","","","","","","",""
"","","","","","html-keyboard-response","174","753700","0.0-5.0-1.42","A3F90N8YVKJ4I7","2022-05-19T11:51:02.430Z","same_different-phon_sim-task_switching-rhyme","","1544.1999999999534","same_different","[""<img src=\""square.png\"" width=\""100\"" height=\""100\"" style=\""position: fixed;left:39%;top:47%\""><img src=\""square.png\"" width=\""100\"" height=\""100\"" style=\""position: fixed;left:54%;top:47%\""><img src=\""square.png\"" width=\""100\"" height=\""100\"" style=\""position: fixed;left:46.5%;top:32%\""><img src=\""square.png\"" width=\""100\"" height=\""100\"" style=\""position: fixed;left:46.5%;top:61%\""><div style=\""font-size:60px; text-align: center;margin-top:35.2%\"">+</div><div id=\""first\"" style=\""position: fixed;visibility: hidden;left:48%;top:62%\""><img src=\""same_diff_imgs/D07.gif\""></div><div id=\""delayed\"" style=\""position: fixed;visibility: hidden;left:40%;top:48%\""><img src=\""same_diff_imgs/D07.gif\""></div>""]","arrowup","categorical_image","same_diff_imgs/D07.gif","same_diff_imgs/D07.gif","no","same","1","true","","","","","","","","","","","","","","","","","","","","","","","","","","","",""
"","","","","","html-keyboard-response","175","753702","0.0-5.0-2.42","A3F90N8YVKJ4I7","2022-05-19T11:51:02.430Z","same_different-phon_sim-task_switching-rhyme","","null",""," ","null","","","","","","","","","","","","","","","","","","","","","","","","","","","","","","","","","","",""
"","","","","","html-keyboard-response","176","754009","0.0-5.0-3.42","A3F90N8YVKJ4I7","2022-05-19T11:51:02.430Z","same_different-phon_sim-task_switching-rhyme","","null","same_different"," ","null","","","","","","","","","","","","","","","","","","","","","","","","","","","","","","","","","","",""
"","","","","","html-keyboard-response","177","754767","0.0-5.0-0.43","A3F90N8YVKJ4I7","2022-05-19T11:51:02.430Z","same_different-phon_sim-task_switching-rhyme","","null","same_different","<div style=""font-size:60px"">+</div>","null","","","","","","","","","","","","","","","","","","","","","","","","","","","","","","","","","","",""
"","","","","","html-keyboard-response","178","756531","0.0-5.0-1.43","A3F90N8YVKJ4I7","2022-05-19T11:51:02.430Z","same_different-phon_sim-task_switching-rhyme","","1762.3000000000466","same_different","[""<img src=\""square.png\"" width=\""100\"" height=\""100\"" style=\""position: fixed;left:39%;top:47%\""><img src=\""square.png\"" width=\""100\"" height=\""100\"" style=\""position: fixed;left:54%;top:47%\""><img src=\""square.png\"" width=\""100\"" height=\""100\"" style=\""position: fixed;left:46.5%;top:32%\""><img src=\""square.png\"" width=\""100\"" height=\""100\"" style=\""position: fixed;left:46.5%;top:61%\""><div style=\""font-size:60px;text-align: center;margin-top:35.2%\"">+</div><div id=\""first\"" style=\""position: fixed;visibility: hidden;left:55%;top:49%\""><img src=\""same_diff_imgs/C04.gif\"" style=\""-webkit-transform: scaleX(-1);transform: scaleX(-1);\""></div><div id=\""delayed\"" style=\""position: fixed;visibility: hidden;left:40%;top:48%\""><img src=\""same_diff_imgs/C14.gif\"" style=\""-webkit-transform: scaleX(-1);transform: scaleX(-1);\""></div>""]","arrowup","categorical_image","same_diff_imgs/C04.gif","same_diff_imgs/C14.gif","yes","same","1","true","","","","","","","","","","","","","","","","","","","","","","","","","","","",""
"","","","","","html-keyboard-response","179","756534","0.0-5.0-2.43","A3F90N8YVKJ4I7","2022-05-19T11:51:02.430Z","same_different-phon_sim-task_switching-rhyme","","null",""," ","null","","","","","","","","","","","","","","","","","","","","","","","","","","","","","","","","","","",""
"","","","","","html-keyboard-response","180","756843","0.0-5.0-3.43","A3F90N8YVKJ4I7","2022-05-19T11:51:02.430Z","same_different-phon_sim-task_switching-rhyme","","null","same_different"," ","null","","","","","","","","","","","","","","","","","","","","","","","","","","","","","","","","","","",""
"","","","","","html-keyboard-response","181","757602","0.0-5.0-0.44","A3F90N8YVKJ4I7","2022-05-19T11:51:02.430Z","same_different-phon_sim-task_switching-rhyme","","null","same_different","<div style=""font-size:60px"">+</div>","null","","","","","","","","","","","","","","","","","","","","","","","","","","","","","","","","","","",""
"","","","","","html-keyboard-response","182","759353","0.0-5.0-1.44","A3F90N8YVKJ4I7","2022-05-19T11:51:02.430Z","same_different-phon_sim-task_switching-rhyme","","1748","same_different","[""<img src=\""square.png\"" width=\""100\"" height=\""100\"" style=\""position: fixed;left:39%;top:47%\""><img src=\""square.png\"" width=\""100\"" height=\""100\"" style=\""position: fixed;left:54%;top:47%\""><img src=\""square.png\"" width=\""100\"" height=\""100\"" style=\""position: fixed;left:46.5%;top:32%\""><img src=\""square.png\"" width=\""100\"" height=\""100\"" style=\""position: fixed;left:46.5%;top:61%\""><div style=\""font-size:60px; text-align: center;margin-top:35.2%\"">+</div><div id=\""first\"" style=\""position: fixed;visibility: hidden;left:48%;top:34%\""><img src=\""same_diff_imgs/D11.gif\""></div><div id=\""delayed\"" style=\""position: fixed;visibility: hidden;left:48%;top:62%\""><img src=\""same_diff_imgs/D11.gif\""></div>""]","arrowup","categorical_image","same_diff_imgs/D11.gif","same_diff_imgs/D11.gif","no","same","1","true","","","","","","","","","","","","","","","","","","","","","","","","","","","",""
"","","","","","html-keyboard-response","183","759355","0.0-5.0-2.44","A3F90N8YVKJ4I7","2022-05-19T11:51:02.430Z","same_different-phon_sim-task_switching-rhyme","","null",""," ","null","","","","","","","","","","","","","","","","","","","","","","","","","","","","","","","","","","",""
"","","","","","html-keyboard-response","184","759668","0.0-5.0-3.44","A3F90N8YVKJ4I7","2022-05-19T11:51:02.430Z","same_different-phon_sim-task_switching-rhyme","","null","same_different"," ","null","","","","","","","","","","","","","","","","","","","","","","","","","","","","","","","","","","",""
"","","","","","html-keyboard-response","185","760424","0.0-5.0-0.45","A3F90N8YVKJ4I7","2022-05-19T11:51:02.430Z","same_different-phon_sim-task_switching-rhyme","","null","same_different","<div style=""font-size:60px"">+</div>","null","","","","","","","","","","","","","","","","","","","","","","","","","","","","","","","","","","",""
