"success","timeout","failed_images","failed_audio","failed_video","trial_type","trial_index","time_elapsed","internal_node_id","worker_id","start_time","experiment_order","view_history","rt","experiment","stimulus","response","wait_time","correct","phase","image_1","image_2","cor_key","type","question_order","talk_out_loud","strategy_free_ans","condition","answer","operation","trial_no","color_cue","symbol_cue","word_1","word_2","word_3","word_4","word_5","original_word_set","response_1","response_2","response_3","response_4","response_5","judgment_type","stim_1","stim_2","inverted","true_neg","true_pos","false_pos","false_neg"
"true","false","[]","[]","[]","preload","0","5831","0.0-0.0","A3DUPRZSMU9W5R","2022-05-27T00:13:57.251Z","rhyme-task_switching-phon_sim-same_different","","","","","","","","","","","","","","","","","","","","","","","","","","","","","","","","","","","","","","","",""
"","","","","","instructions","1","8187","0.0-1.0","A3DUPRZSMU9W5R","2022-05-27T00:13:57.251Z","rhyme-task_switching-phon_sim-same_different","[{""page_index"":0,""viewing_time"":2353.099999997765}]","2353.300000000745","","","","","","","","","","","","","","","","","","","","","","","","","","","","","","","","","","","","","",""
"true","","","","","fullscreen","2","10459","0.0-2.0","A3DUPRZSMU9W5R","2022-05-27T00:13:57.251Z","rhyme-task_switching-phon_sim-same_different","","","","","","","","","","","","","","","","","","","","","","","","","","","","","","","","","","","","","","","",""
"","","","","","instructions","3","55810","0.0-3.0","A3DUPRZSMU9W5R","2022-05-27T00:13:57.251Z","rhyme-task_switching-phon_sim-same_different","[{""page_index"":0,""viewing_time"":45350.300000000745}]","45350.5","rhyme","","","","","","","","","","","","","","","","","","","","","","","","","","","","","","","","","","","","",""
"","","","","","html-keyboard-response","4","56067","0.0-4.0-0.0","A3DUPRZSMU9W5R","2022-05-27T00:13:57.251Z","rhyme-task_switching-phon_sim-same_different","","null","rhyme","<div style=""font-size:60px;"">+</div>","null","250","","","","","","","","","","","","","","","","","","","","","","","","","","","","","","","","","",""
"","","","","","html-keyboard-response","5","56573","0.0-4.0-1.0","A3DUPRZSMU9W5R","2022-05-27T00:13:57.251Z","rhyme-task_switching-phon_sim-same_different","","null","rhyme","<img src=""square.png"" width=""306"" height=""306"" style=""position: fixed;left:14%;top:30%""><img src=""square.png"" width=""306"" height=""306"" style=""position: fixed;left:64%;top:30%"">","null","","","","","","","","","","","","","","","","","","","","","","","","","","","","","","","","","","",""
"","","","","","categorize-html","6","59700","0.0-4.0-2.0","A3DUPRZSMU9W5R","2022-05-27T00:13:57.251Z","rhyme-task_switching-phon_sim-same_different","","2105.5","rhyme","<div style=""border: 3px solid #000000; position: fixed;left:14%;top:30%""><img src=""visual/mouse.png"" width=""300""></div><div style=""border: 3px solid #000000; position: fixed;left:64%;top:30%""><img src=""visual/dress.png"" width=""300""></div>","arrowdown","","true","training","visual/mouse.png","visual/dress.png","ArrowDown","NA","","","","","","","","","","","","","","","","","","","","","","","","","","","",""
"","","","","","html-keyboard-response","7","59967","0.0-4.0-0.1","A3DUPRZSMU9W5R","2022-05-27T00:13:57.251Z","rhyme-task_switching-phon_sim-same_different","","null","rhyme","<div style=""font-size:60px;"">+</div>","null","250","","","","","","","","","","","","","","","","","","","","","","","","","","","","","","","","","",""
"","","","","","html-keyboard-response","8","60484","0.0-4.0-1.1","A3DUPRZSMU9W5R","2022-05-27T00:13:57.251Z","rhyme-task_switching-phon_sim-same_different","","null","rhyme","<img src=""square.png"" width=""306"" height=""306"" style=""position: fixed;left:14%;top:30%""><img src=""square.png"" width=""306"" height=""306"" style=""position: fixed;left:64%;top:30%"">","null","","","","","","","","","","","","","","","","","","","","","","","","","","","","","","","","","","",""
"","","","","","categorize-html","9","63419","0.0-4.0-2.1","A3DUPRZSMU9W5R","2022-05-27T00:13:57.251Z","rhyme-task_switching-phon_sim-same_different","","1924.7999999970198","rhyme","<div style=""border: 3px solid #000000; position: fixed;left:14%;top:30%""><img src=""visual/dress.png"" width=""300""></div><div style=""border: 3px solid #000000; position: fixed;left:64%;top:30%""><img src=""visual/chess.png"" width=""300""></div>","arrowdown","","false","training","visual/dress.png","visual/chess.png","ArrowUp","NA","","","","","","","","","","","","","","","","","","","","","","","","","","","",""
"","","","","","html-keyboard-response","10","63934","0.0-4.0-0.2","A3DUPRZSMU9W5R","2022-05-27T00:13:57.251Z","rhyme-task_switching-phon_sim-same_different","","null","rhyme","<div style=""font-size:60px;"">+</div>","null","500","","","","","","","","","","","","","","","","","","","","","","","","","","","","","","","","","",""
"","","","","","html-keyboard-response","11","64441","0.0-4.0-1.2","A3DUPRZSMU9W5R","2022-05-27T00:13:57.251Z","rhyme-task_switching-phon_sim-same_different","","null","rhyme","<img src=""square.png"" width=""306"" height=""306"" style=""position: fixed;left:14%;top:30%""><img src=""square.png"" width=""306"" height=""306"" style=""position: fixed;left:64%;top:30%"">","null","","","","","","","","","","","","","","","","","","","","","","","","","","","","","","","","","","",""
"","","","","","categorize-html","12","66953","0.0-4.0-2.2","A3DUPRZSMU9W5R","2022-05-27T00:13:57.251Z","rhyme-task_switching-phon_sim-same_different","","1501.8999999985099","rhyme","<div style=""border: 3px solid #000000; position: fixed;left:14%;top:30%""><img src=""visual/chess.png"" width=""300""></div><div style=""border: 3px solid #000000; position: fixed;left:64%;top:30%""><img src=""visual/suit.png"" width=""300""></div>","arrowdown","","true","training","visual/chess.png","visual/suit.png","ArrowDown","NA","","","","","","","","","","","","","","","","","","","","","","","","","","","",""
"","","","","","html-keyboard-response","13","67220","0.0-4.0-0.3","A3DUPRZSMU9W5R","2022-05-27T00:13:57.251Z","rhyme-task_switching-phon_sim-same_different","","null","rhyme","<div style=""font-size:60px;"">+</div>","null","250","","","","","","","","","","","","","","","","","","","","","","","","","","","","","","","","","",""
"","","","","","html-keyboard-response","14","67736","0.0-4.0-1.3","A3DUPRZSMU9W5R","2022-05-27T00:13:57.251Z","rhyme-task_switching-phon_sim-same_different","","null","rhyme","<img src=""square.png"" width=""306"" height=""306"" style=""position: fixed;left:14%;top:30%""><img src=""square.png"" width=""306"" height=""306"" style=""position: fixed;left:64%;top:30%"">","null","","","","","","","","","","","","","","","","","","","","","","","","","","","","","","","","","","",""
"","","","","","categorize-html","15","69819","0.0-4.0-2.3","A3DUPRZSMU9W5R","2022-05-27T00:13:57.251Z","rhyme-task_switching-phon_sim-same_different","","1072","rhyme","<div style=""border: 3px solid #000000; position: fixed;left:14%;top:30%""><img src=""visual/house.png"" width=""300""></div><div style=""border: 3px solid #000000; position: fixed;left:64%;top:30%""><img src=""visual/mouse.png"" width=""300""></div>","arrowup","","true","training","visual/house.png","visual/mouse.png","ArrowUp","NA","","","","","","","","","","","","","","","","","","","","","","","","","","","",""
"","","","","","instructions","16","71874","0.0-5.0","A3DUPRZSMU9W5R","2022-05-27T00:13:57.251Z","rhyme-task_switching-phon_sim-same_different","[{""page_index"":0,""viewing_time"":2053.800000000745}]","2053.900000002235","","","","","","","","","","","","","","","","","","","","","","","","","","","","","","","","","","","","","",""
"","","","","","html-keyboard-response","17","72387","0.0-6.0-0.0","A3DUPRZSMU9W5R","2022-05-27T00:13:57.251Z","rhyme-task_switching-phon_sim-same_different","","null","rhyme","<div style=""font-size:60px;"">+</div>","null","500","","","","","","","","","","","","","","","","","","","","","","","","","","","","","","","","","",""
"","","","","","html-keyboard-response","18","72904","0.0-6.0-1.0","A3DUPRZSMU9W5R","2022-05-27T00:13:57.251Z","rhyme-task_switching-phon_sim-same_different","","null","rhyme","<img src=""square.png"" width=""306"" height=""306"" style=""position: fixed;left:14%;top:30%""><img src=""square.png"" width=""306"" height=""306"" style=""position: fixed;left:64%;top:30%"">","null","","","","","","","","","","","","","","","","","","","","","","","","","","","","","","","","","","",""
"","","","","","html-keyboard-response","19","74516","0.0-6.0-2.0","A3DUPRZSMU9W5R","2022-05-27T00:13:57.251Z","rhyme-task_switching-phon_sim-same_different","","1607.5","rhyme","<div style=""border: 3px solid #000000; position: fixed;left:14%;top:30%""><img src=""visual/egg.png"" width=""300""></div><div style=""border: 3px solid #000000; position: fixed;left:64%;top:30%""><img src=""visual/ring.png"" width=""300""></div>","arrowdown","","true","experiment","visual/egg.png","visual/ring.png","ArrowDown","NR","","","","","","","","","","","","","","","","","","","","","","","","","","","",""
"","","","","","html-keyboard-response","20","75271","0.0-6.0-0.1","A3DUPRZSMU9W5R","2022-05-27T00:13:57.251Z","rhyme-task_switching-phon_sim-same_different","","null","rhyme","<div style=""font-size:60px;"">+</div>","null","750","","","","","","","","","","","","","","","","","","","","","","","","","","","","","","","","","",""
"","","","","","html-keyboard-response","21","75788","0.0-6.0-1.1","A3DUPRZSMU9W5R","2022-05-27T00:13:57.251Z","rhyme-task_switching-phon_sim-same_different","","null","rhyme","<img src=""square.png"" width=""306"" height=""306"" style=""position: fixed;left:14%;top:30%""><img src=""square.png"" width=""306"" height=""306"" style=""position: fixed;left:64%;top:30%"">","null","","","","","","","","","","","","","","","","","","","","","","","","","","","","","","","","","","",""
"","","","","","html-keyboard-response","22","76964","0.0-6.0-2.1","A3DUPRZSMU9W5R","2022-05-27T00:13:57.251Z","rhyme-task_switching-phon_sim-same_different","","1172.699999999255","rhyme","<div style=""border: 3px solid #000000; position: fixed;left:14%;top:30%""><img src=""visual/spoon.png"" width=""300""></div><div style=""border: 3px solid #000000; position: fixed;left:64%;top:30%""><img src=""visual/moon.png"" width=""300""></div>","arrowup","","true","experiment","visual/spoon.png","visual/moon.png","ArrowUp","ortho","","","","","","","","","","","","","","","","","","","","","","","","","","","",""
"","","","","","html-keyboard-response","23","77472","0.0-6.0-0.2","A3DUPRZSMU9W5R","2022-05-27T00:13:57.251Z","rhyme-task_switching-phon_sim-same_different","","null","rhyme","<div style=""font-size:60px;"">+</div>","null","500","","","","","","","","","","","","","","","","","","","","","","","","","","","","","","","","","",""
"","","","","","html-keyboard-response","24","77990","0.0-6.0-1.2","A3DUPRZSMU9W5R","2022-05-27T00:13:57.251Z","rhyme-task_switching-phon_sim-same_different","","null","rhyme","<img src=""square.png"" width=""306"" height=""306"" style=""position: fixed;left:14%;top:30%""><img src=""square.png"" width=""306"" height=""306"" style=""position: fixed;left:64%;top:30%"">","null","","","","","","","","","","","","","","","","","","","","","","","","","","","","","","","","","","",""
"","","","","","html-keyboard-response","25","79147","0.0-6.0-2.2","A3DUPRZSMU9W5R","2022-05-27T00:13:57.251Z","rhyme-task_switching-phon_sim-same_different","","1153.9000000022352","rhyme","<div style=""border: 3px solid #000000; position: fixed;left:14%;top:30%""><img src=""visual/nail.png"" width=""300""></div><div style=""border: 3px solid #000000; position: fixed;left:64%;top:30%""><img src=""visual/whale.png"" width=""300""></div>","arrowup","","true","experiment","visual/nail.png","visual/whale.png","ArrowUp","non-ortho","","","","","","","","","","","","","","","","","","","","","","","","","","","",""
"","","","","","html-keyboard-response","26","79905","0.0-6.0-0.3","A3DUPRZSMU9W5R","2022-05-27T00:13:57.251Z","rhyme-task_switching-phon_sim-same_different","","null","rhyme","<div style=""font-size:60px;"">+</div>","null","750","","","","","","","","","","","","","","","","","","","","","","","","","","","","","","","","","",""
"","","","","","html-keyboard-response","27","80427","0.0-6.0-1.3","A3DUPRZSMU9W5R","2022-05-27T00:13:57.251Z","rhyme-task_switching-phon_sim-same_different","","null","rhyme","<img src=""square.png"" width=""306"" height=""306"" style=""position: fixed;left:14%;top:30%""><img src=""square.png"" width=""306"" height=""306"" style=""position: fixed;left:64%;top:30%"">","null","","","","","","","","","","","","","","","","","","","","","","","","","","","","","","","","","","",""
"","","","","","html-keyboard-response","28","81499","0.0-6.0-2.3","A3DUPRZSMU9W5R","2022-05-27T00:13:57.251Z","rhyme-task_switching-phon_sim-same_different","","1069.6000000014901","rhyme","<div style=""border: 3px solid #000000; position: fixed;left:14%;top:30%""><img src=""visual/nose.png"" width=""300""></div><div style=""border: 3px solid #000000; position: fixed;left:64%;top:30%""><img src=""visual/bell.png"" width=""300""></div>","arrowdown","","true","experiment","visual/nose.png","visual/bell.png","ArrowDown","NR","","","","","","","","","","","","","","","","","","","","","","","","","","","",""
"","","","","","html-keyboard-response","29","82508","0.0-6.0-0.4","A3DUPRZSMU9W5R","2022-05-27T00:13:57.251Z","rhyme-task_switching-phon_sim-same_different","","null","rhyme","<div style=""font-size:60px;"">+</div>","null","1000","","","","","","","","","","","","","","","","","","","","","","","","","","","","","","","","","",""
"","","","","","html-keyboard-response","30","83024","0.0-6.0-1.4","A3DUPRZSMU9W5R","2022-05-27T00:13:57.251Z","rhyme-task_switching-phon_sim-same_different","","null","rhyme","<img src=""square.png"" width=""306"" height=""306"" style=""position: fixed;left:14%;top:30%""><img src=""square.png"" width=""306"" height=""306"" style=""position: fixed;left:64%;top:30%"">","null","","","","","","","","","","","","","","","","","","","","","","","","","","","","","","","","","","",""
"","","","","","html-keyboard-response","31","86276","0.0-6.0-2.4","A3DUPRZSMU9W5R","2022-05-27T00:13:57.251Z","rhyme-task_switching-phon_sim-same_different","","3249.800000000745","rhyme","<div style=""border: 3px solid #000000; position: fixed;left:14%;top:30%""><img src=""visual/bin.png"" width=""300""></div><div style=""border: 3px solid #000000; position: fixed;left:64%;top:30%""><img src=""visual/chin.png"" width=""300""></div>","arrowup","","true","experiment","visual/bin.png","visual/chin.png","ArrowUp","ortho","","","","","","","","","","","","","","","","","","","","","","","","","","","",""
"","","","","","html-keyboard-response","32","86798","0.0-6.0-0.5","A3DUPRZSMU9W5R","2022-05-27T00:13:57.251Z","rhyme-task_switching-phon_sim-same_different","","null","rhyme","<div style=""font-size:60px;"">+</div>","null","500","","","","","","","","","","","","","","","","","","","","","","","","","","","","","","","","","",""
"","","","","","html-keyboard-response","33","87308","0.0-6.0-1.5","A3DUPRZSMU9W5R","2022-05-27T00:13:57.251Z","rhyme-task_switching-phon_sim-same_different","","null","rhyme","<img src=""square.png"" width=""306"" height=""306"" style=""position: fixed;left:14%;top:30%""><img src=""square.png"" width=""306"" height=""306"" style=""position: fixed;left:64%;top:30%"">","null","","","","","","","","","","","","","","","","","","","","","","","","","","","","","","","","","","",""
"","","","","","html-keyboard-response","34","90148","0.0-6.0-2.5","A3DUPRZSMU9W5R","2022-05-27T00:13:57.251Z","rhyme-task_switching-phon_sim-same_different","","2836.10000000149","rhyme","<div style=""border: 3px solid #000000; position: fixed;left:14%;top:30%""><img src=""visual/shark.png"" width=""300""></div><div style=""border: 3px solid #000000; position: fixed;left:64%;top:30%""><img src=""visual/park.png"" width=""300""></div>","arrowup","","true","experiment","visual/shark.png","visual/park.png","ArrowUp","ortho","","","","","","","","","","","","","","","","","","","","","","","","","","","",""
"","","","","","html-keyboard-response","35","91158","0.0-6.0-0.6","A3DUPRZSMU9W5R","2022-05-27T00:13:57.251Z","rhyme-task_switching-phon_sim-same_different","","null","rhyme","<div style=""font-size:60px;"">+</div>","null","1000","","","","","","","","","","","","","","","","","","","","","","","","","","","","","","","","","",""
"","","","","","html-keyboard-response","36","91662","0.0-6.0-1.6","A3DUPRZSMU9W5R","2022-05-27T00:13:57.251Z","rhyme-task_switching-phon_sim-same_different","","null","rhyme","<img src=""square.png"" width=""306"" height=""306"" style=""position: fixed;left:14%;top:30%""><img src=""square.png"" width=""306"" height=""306"" style=""position: fixed;left:64%;top:30%"">","null","","","","","","","","","","","","","","","","","","","","","","","","","","","","","","","","","","",""
"","","","","","html-keyboard-response","37","96677","0.0-6.0-2.6","A3DUPRZSMU9W5R","2022-05-27T00:13:57.251Z","rhyme-task_switching-phon_sim-same_different","","null","rhyme","<div style=""border: 3px solid #000000; position: fixed;left:14%;top:30%""><img src=""visual/train.png"" width=""300""></div><div style=""border: 3px solid #000000; position: fixed;left:64%;top:30%""><img src=""visual/crane.png"" width=""300""></div>","null","","false","experiment","visual/train.png","visual/crane.png","ArrowUp","non-ortho","","","","","","","","","","","","","","","","","","","","","","","","","","","",""
"","","","","","html-keyboard-response","38","97679","0.0-6.0-0.7","A3DUPRZSMU9W5R","2022-05-27T00:13:57.251Z","rhyme-task_switching-phon_sim-same_different","","null","rhyme","<div style=""font-size:60px;"">+</div>","null","1000","","","","","","","","","","","","","","","","","","","","","","","","","","","","","","","","","",""
"","","","","","html-keyboard-response","39","98195","0.0-6.0-1.7","A3DUPRZSMU9W5R","2022-05-27T00:13:57.251Z","rhyme-task_switching-phon_sim-same_different","","null","rhyme","<img src=""square.png"" width=""306"" height=""306"" style=""position: fixed;left:14%;top:30%""><img src=""square.png"" width=""306"" height=""306"" style=""position: fixed;left:64%;top:30%"">","null","","","","","","","","","","","","","","","","","","","","","","","","","","","","","","","","","","",""
"","","","","","html-keyboard-response","40","99875","0.0-6.0-2.7","A3DUPRZSMU9W5R","2022-05-27T00:13:57.251Z","rhyme-task_switching-phon_sim-same_different","","1676.8999999985099","rhyme","<div style=""border: 3px solid #000000; position: fixed;left:14%;top:30%""><img src=""visual/pope.png"" width=""300""></div><div style=""border: 3px solid #000000; position: fixed;left:64%;top:30%""><img src=""visual/soap.png"" width=""300""></div>","arrowup","","true","experiment","visual/pope.png","visual/soap.png","ArrowUp","non-ortho","","","","","","","","","","","","","","","","","","","","","","","","","","","",""
"","","","","","html-keyboard-response","41","100631","0.0-6.0-0.8","A3DUPRZSMU9W5R","2022-05-27T00:13:57.251Z","rhyme-task_switching-phon_sim-same_different","","null","rhyme","<div style=""font-size:60px;"">+</div>","null","750","","","","","","","","","","","","","","","","","","","","","","","","","","","","","","","","","",""
"","","","","","html-keyboard-response","42","101148","0.0-6.0-1.8","A3DUPRZSMU9W5R","2022-05-27T00:13:57.251Z","rhyme-task_switching-phon_sim-same_different","","null","rhyme","<img src=""square.png"" width=""306"" height=""306"" style=""position: fixed;left:14%;top:30%""><img src=""square.png"" width=""306"" height=""306"" style=""position: fixed;left:64%;top:30%"">","null","","","","","","","","","","","","","","","","","","","","","","","","","","","","","","","","","","",""
"","","","","","html-keyboard-response","43","102140","0.0-6.0-2.8","A3DUPRZSMU9W5R","2022-05-27T00:13:57.251Z","rhyme-task_switching-phon_sim-same_different","","989.4000000022352","rhyme","<div style=""border: 3px solid #000000; position: fixed;left:14%;top:30%""><img src=""visual/spoon.png"" width=""300""></div><div style=""border: 3px solid #000000; position: fixed;left:64%;top:30%""><img src=""visual/crab.png"" width=""300""></div>","arrowdown","","true","experiment","visual/spoon.png","visual/crab.png","ArrowDown","NR","","","","","","","","","","","","","","","","","","","","","","","","","","","",""
"","","","","","html-keyboard-response","44","103146","0.0-6.0-0.9","A3DUPRZSMU9W5R","2022-05-27T00:13:57.251Z","rhyme-task_switching-phon_sim-same_different","","null","rhyme","<div style=""font-size:60px;"">+</div>","null","1000","","","","","","","","","","","","","","","","","","","","","","","","","","","","","","","","","",""
"","","","","","html-keyboard-response","45","103663","0.0-6.0-1.9","A3DUPRZSMU9W5R","2022-05-27T00:13:57.251Z","rhyme-task_switching-phon_sim-same_different","","null","rhyme","<img src=""square.png"" width=""306"" height=""306"" style=""position: fixed;left:14%;top:30%""><img src=""square.png"" width=""306"" height=""306"" style=""position: fixed;left:64%;top:30%"">","null","","","","","","","","","","","","","","","","","","","","","","","","","","","","","","","","","","",""
"","","","","","html-keyboard-response","46","105859","0.0-6.0-2.9","A3DUPRZSMU9W5R","2022-05-27T00:13:57.251Z","rhyme-task_switching-phon_sim-same_different","","2193","rhyme","<div style=""border: 3px solid #000000; position: fixed;left:14%;top:30%""><img src=""visual/dart.png"" width=""300""></div><div style=""border: 3px solid #000000; position: fixed;left:64%;top:30%""><img src=""visual/tie.png"" width=""300""></div>","arrowdown","","true","experiment","visual/dart.png","visual/tie.png","ArrowDown","NR","","","","","","","","","","","","","","","","","","","","","","","","","","","",""
"","","","","","html-keyboard-response","47","106365","0.0-6.0-0.10","A3DUPRZSMU9W5R","2022-05-27T00:13:57.251Z","rhyme-task_switching-phon_sim-same_different","","null","rhyme","<div style=""font-size:60px;"">+</div>","null","500","","","","","","","","","","","","","","","","","","","","","","","","","","","","","","","","","",""
"","","","","","html-keyboard-response","48","106880","0.0-6.0-1.10","A3DUPRZSMU9W5R","2022-05-27T00:13:57.251Z","rhyme-task_switching-phon_sim-same_different","","null","rhyme","<img src=""square.png"" width=""306"" height=""306"" style=""position: fixed;left:14%;top:30%""><img src=""square.png"" width=""306"" height=""306"" style=""position: fixed;left:64%;top:30%"">","null","","","","","","","","","","","","","","","","","","","","","","","","","","","","","","","","","","",""
"","","","","","html-keyboard-response","49","108379","0.0-6.0-2.10","A3DUPRZSMU9W5R","2022-05-27T00:13:57.251Z","rhyme-task_switching-phon_sim-same_different","","1495.5","rhyme","<div style=""border: 3px solid #000000; position: fixed;left:14%;top:30%""><img src=""visual/saw.png"" width=""300""></div><div style=""border: 3px solid #000000; position: fixed;left:64%;top:30%""><img src=""visual/claw.png"" width=""300""></div>","arrowup","","true","experiment","visual/saw.png","visual/claw.png","ArrowUp","ortho","","","","","","","","","","","","","","","","","","","","","","","","","","","",""
"","","","","","html-keyboard-response","50","109385","0.0-6.0-0.11","A3DUPRZSMU9W5R","2022-05-27T00:13:57.251Z","rhyme-task_switching-phon_sim-same_different","","null","rhyme","<div style=""font-size:60px;"">+</div>","null","1000","","","","","","","","","","","","","","","","","","","","","","","","","","","","","","","","","",""
"","","","","","html-keyboard-response","51","109907","0.0-6.0-1.11","A3DUPRZSMU9W5R","2022-05-27T00:13:57.251Z","rhyme-task_switching-phon_sim-same_different","","null","rhyme","<img src=""square.png"" width=""306"" height=""306"" style=""position: fixed;left:14%;top:30%""><img src=""square.png"" width=""306"" height=""306"" style=""position: fixed;left:64%;top:30%"">","null","","","","","","","","","","","","","","","","","","","","","","","","","","","","","","","","","","",""
"","","","","","html-keyboard-response","52","110811","0.0-6.0-2.11","A3DUPRZSMU9W5R","2022-05-27T00:13:57.251Z","rhyme-task_switching-phon_sim-same_different","","901.3999999985099","rhyme","<div style=""border: 3px solid #000000; position: fixed;left:14%;top:30%""><img src=""visual/star.png"" width=""300""></div><div style=""border: 3px solid #000000; position: fixed;left:64%;top:30%""><img src=""visual/jar.png"" width=""300""></div>","arrowup","","true","experiment","visual/star.png","visual/jar.png","ArrowUp","ortho","","","","","","","","","","","","","","","","","","","","","","","","","","","",""
"","","","","","html-keyboard-response","53","111318","0.0-6.0-0.12","A3DUPRZSMU9W5R","2022-05-27T00:13:57.251Z","rhyme-task_switching-phon_sim-same_different","","null","rhyme","<div style=""font-size:60px;"">+</div>","null","500","","","","","","","","","","","","","","","","","","","","","","","","","","","","","","","","","",""
"","","","","","html-keyboard-response","54","111832","0.0-6.0-1.12","A3DUPRZSMU9W5R","2022-05-27T00:13:57.251Z","rhyme-task_switching-phon_sim-same_different","","null","rhyme","<img src=""square.png"" width=""306"" height=""306"" style=""position: fixed;left:14%;top:30%""><img src=""square.png"" width=""306"" height=""306"" style=""position: fixed;left:64%;top:30%"">","null","","","","","","","","","","","","","","","","","","","","","","","","","","","","","","","","","","",""
"","","","","","html-keyboard-response","55","113004","0.0-6.0-2.12","A3DUPRZSMU9W5R","2022-05-27T00:13:57.251Z","rhyme-task_switching-phon_sim-same_different","","1168.5","rhyme","<div style=""border: 3px solid #000000; position: fixed;left:14%;top:30%""><img src=""visual/plane.png"" width=""300""></div><div style=""border: 3px solid #000000; position: fixed;left:64%;top:30%""><img src=""visual/chain.png"" width=""300""></div>","arrowup","","true","experiment","visual/plane.png","visual/chain.png","ArrowUp","non-ortho","","","","","","","","","","","","","","","","","","","","","","","","","","","",""
"","","","","","html-keyboard-response","56","113516","0.0-6.0-0.13","A3DUPRZSMU9W5R","2022-05-27T00:13:57.251Z","rhyme-task_switching-phon_sim-same_different","","null","rhyme","<div style=""font-size:60px;"">+</div>","null","500","","","","","","","","","","","","","","","","","","","","","","","","","","","","","","","","","",""
"","","","","","html-keyboard-response","57","114035","0.0-6.0-1.13","A3DUPRZSMU9W5R","2022-05-27T00:13:57.251Z","rhyme-task_switching-phon_sim-same_different","","null","rhyme","<img src=""square.png"" width=""306"" height=""306"" style=""position: fixed;left:14%;top:30%""><img src=""square.png"" width=""306"" height=""306"" style=""position: fixed;left:64%;top:30%"">","null","","","","","","","","","","","","","","","","","","","","","","","","","","","","","","","","","","",""
"","","","","","html-keyboard-response","58","115307","0.0-6.0-2.13","A3DUPRZSMU9W5R","2022-05-27T00:13:57.251Z","rhyme-task_switching-phon_sim-same_different","","1269.5","rhyme","<div style=""border: 3px solid #000000; position: fixed;left:14%;top:30%""><img src=""visual/cat.png"" width=""300""></div><div style=""border: 3px solid #000000; position: fixed;left:64%;top:30%""><img src=""visual/sock.png"" width=""300""></div>","arrowdown","","true","experiment","visual/cat.png","visual/sock.png","ArrowDown","NR","","","","","","","","","","","","","","","","","","","","","","","","","","","",""
"","","","","","html-keyboard-response","59","115817","0.0-6.0-0.14","A3DUPRZSMU9W5R","2022-05-27T00:13:57.251Z","rhyme-task_switching-phon_sim-same_different","","null","rhyme","<div style=""font-size:60px;"">+</div>","null","500","","","","","","","","","","","","","","","","","","","","","","","","","","","","","","","","","",""
"","","","","","html-keyboard-response","60","116334","0.0-6.0-1.14","A3DUPRZSMU9W5R","2022-05-27T00:13:57.251Z","rhyme-task_switching-phon_sim-same_different","","null","rhyme","<img src=""square.png"" width=""306"" height=""306"" style=""position: fixed;left:14%;top:30%""><img src=""square.png"" width=""306"" height=""306"" style=""position: fixed;left:64%;top:30%"">","null","","","","","","","","","","","","","","","","","","","","","","","","","","","","","","","","","","",""
"","","","","","html-keyboard-response","61","117228","0.0-6.0-2.14","A3DUPRZSMU9W5R","2022-05-27T00:13:57.251Z","rhyme-task_switching-phon_sim-same_different","","889.8000000007451","rhyme","<div style=""border: 3px solid #000000; position: fixed;left:14%;top:30%""><img src=""visual/chair.png"" width=""300""></div><div style=""border: 3px solid #000000; position: fixed;left:64%;top:30%""><img src=""visual/pear.png"" width=""300""></div>","arrowup","","true","experiment","visual/chair.png","visual/pear.png","ArrowUp","non-ortho","","","","","","","","","","","","","","","","","","","","","","","","","","","",""
"","","","","","html-keyboard-response","62","117984","0.0-6.0-0.15","A3DUPRZSMU9W5R","2022-05-27T00:13:57.251Z","rhyme-task_switching-phon_sim-same_different","","null","rhyme","<div style=""font-size:60px;"">+</div>","null","750","","","","","","","","","","","","","","","","","","","","","","","","","","","","","","","","","",""
"","","","","","html-keyboard-response","63","118501","0.0-6.0-1.15","A3DUPRZSMU9W5R","2022-05-27T00:13:57.251Z","rhyme-task_switching-phon_sim-same_different","","null","rhyme","<img src=""square.png"" width=""306"" height=""306"" style=""position: fixed;left:14%;top:30%""><img src=""square.png"" width=""306"" height=""306"" style=""position: fixed;left:64%;top:30%"">","null","","","","","","","","","","","","","","","","","","","","","","","","","","","","","","","","","","",""
"","","","","","html-keyboard-response","64","120275","0.0-6.0-2.15","A3DUPRZSMU9W5R","2022-05-27T00:13:57.251Z","rhyme-task_switching-phon_sim-same_different","","1771.4000000022352","rhyme","<div style=""border: 3px solid #000000; position: fixed;left:14%;top:30%""><img src=""visual/fan.png"" width=""300""></div><div style=""border: 3px solid #000000; position: fixed;left:64%;top:30%""><img src=""visual/man.png"" width=""300""></div>","arrowdown","","false","experiment","visual/fan.png","visual/man.png","ArrowUp","ortho","","","","","","","","","","","","","","","","","","","","","","","","","","","",""
"","","","","","html-keyboard-response","65","120785","0.0-6.0-0.16","A3DUPRZSMU9W5R","2022-05-27T00:13:57.251Z","rhyme-task_switching-phon_sim-same_different","","null","rhyme","<div style=""font-size:60px;"">+</div>","null","500","","","","","","","","","","","","","","","","","","","","","","","","","","","","","","","","","",""
"","","","","","html-keyboard-response","66","121302","0.0-6.0-1.16","A3DUPRZSMU9W5R","2022-05-27T00:13:57.251Z","rhyme-task_switching-phon_sim-same_different","","null","rhyme","<img src=""square.png"" width=""306"" height=""306"" style=""position: fixed;left:14%;top:30%""><img src=""square.png"" width=""306"" height=""306"" style=""position: fixed;left:64%;top:30%"">","null","","","","","","","","","","","","","","","","","","","","","","","","","","","","","","","","","","",""
"","","","","","html-keyboard-response","67","122443","0.0-6.0-2.16","A3DUPRZSMU9W5R","2022-05-27T00:13:57.251Z","rhyme-task_switching-phon_sim-same_different","","1138.199999999255","rhyme","<div style=""border: 3px solid #000000; position: fixed;left:14%;top:30%""><img src=""visual/cat.png"" width=""300""></div><div style=""border: 3px solid #000000; position: fixed;left:64%;top:30%""><img src=""visual/hat.png"" width=""300""></div>","arrowup","","true","experiment","visual/cat.png","visual/hat.png","ArrowUp","ortho","","","","","","","","","","","","","","","","","","","","","","","","","","","",""
"","","","","","html-keyboard-response","68","122952","0.0-6.0-0.17","A3DUPRZSMU9W5R","2022-05-27T00:13:57.251Z","rhyme-task_switching-phon_sim-same_different","","null","rhyme","<div style=""font-size:60px;"">+</div>","null","500","","","","","","","","","","","","","","","","","","","","","","","","","","","","","","","","","",""
"","","","","","html-keyboard-response","69","123470","0.0-6.0-1.17","A3DUPRZSMU9W5R","2022-05-27T00:13:57.251Z","rhyme-task_switching-phon_sim-same_different","","null","rhyme","<img src=""square.png"" width=""306"" height=""306"" style=""position: fixed;left:14%;top:30%""><img src=""square.png"" width=""306"" height=""306"" style=""position: fixed;left:64%;top:30%"">","null","","","","","","","","","","","","","","","","","","","","","","","","","","","","","","","","","","",""
"","","","","","html-keyboard-response","70","124572","0.0-6.0-2.17","A3DUPRZSMU9W5R","2022-05-27T00:13:57.251Z","rhyme-task_switching-phon_sim-same_different","","1099.699999999255","rhyme","<div style=""border: 3px solid #000000; position: fixed;left:14%;top:30%""><img src=""visual/drum.png"" width=""300""></div><div style=""border: 3px solid #000000; position: fixed;left:64%;top:30%""><img src=""visual/thumb.png"" width=""300""></div>","arrowup","","true","experiment","visual/drum.png","visual/thumb.png","ArrowUp","non-ortho","","","","","","","","","","","","","","","","","","","","","","","","","","","",""
"","","","","","html-keyboard-response","71","124837","0.0-6.0-0.18","A3DUPRZSMU9W5R","2022-05-27T00:13:57.251Z","rhyme-task_switching-phon_sim-same_different","","null","rhyme","<div style=""font-size:60px;"">+</div>","null","250","","","","","","","","","","","","","","","","","","","","","","","","","","","","","","","","","",""
"","","","","","html-keyboard-response","72","125354","0.0-6.0-1.18","A3DUPRZSMU9W5R","2022-05-27T00:13:57.251Z","rhyme-task_switching-phon_sim-same_different","","null","rhyme","<img src=""square.png"" width=""306"" height=""306"" style=""position: fixed;left:14%;top:30%""><img src=""square.png"" width=""306"" height=""306"" style=""position: fixed;left:64%;top:30%"">","null","","","","","","","","","","","","","","","","","","","","","","","","","","","","","","","","","","",""
"","","","","","html-keyboard-response","73","128531","0.0-6.0-2.18","A3DUPRZSMU9W5R","2022-05-27T00:13:57.251Z","rhyme-task_switching-phon_sim-same_different","","3174.89999999851","rhyme","<div style=""border: 3px solid #000000; position: fixed;left:14%;top:30%""><img src=""visual/deer.png"" width=""300""></div><div style=""border: 3px solid #000000; position: fixed;left:64%;top:30%""><img src=""visual/beer.png"" width=""300""></div>","arrowup","","true","experiment","visual/deer.png","visual/beer.png","ArrowUp","ortho","","","","","","","","","","","","","","","","","","","","","","","","","","","",""
"","","","","","html-keyboard-response","74","129290","0.0-6.0-0.19","A3DUPRZSMU9W5R","2022-05-27T00:13:57.251Z","rhyme-task_switching-phon_sim-same_different","","null","rhyme","<div style=""font-size:60px;"">+</div>","null","750","","","","","","","","","","","","","","","","","","","","","","","","","","","","","","","","","",""
"","","","","","html-keyboard-response","75","129806","0.0-6.0-1.19","A3DUPRZSMU9W5R","2022-05-27T00:13:57.251Z","rhyme-task_switching-phon_sim-same_different","","null","rhyme","<img src=""square.png"" width=""306"" height=""306"" style=""position: fixed;left:14%;top:30%""><img src=""square.png"" width=""306"" height=""306"" style=""position: fixed;left:64%;top:30%"">","null","","","","","","","","","","","","","","","","","","","","","","","","","","","","","","","","","","",""
"","","","","","html-keyboard-response","76","130851","0.0-6.0-2.19","A3DUPRZSMU9W5R","2022-05-27T00:13:57.251Z","rhyme-task_switching-phon_sim-same_different","","1041.9000000022352","rhyme","<div style=""border: 3px solid #000000; position: fixed;left:14%;top:30%""><img src=""visual/wheel.png"" width=""300""></div><div style=""border: 3px solid #000000; position: fixed;left:64%;top:30%""><img src=""visual/seal.png"" width=""300""></div>","arrowup","","true","experiment","visual/wheel.png","visual/seal.png","ArrowUp","non-ortho","","","","","","","","","","","","","","","","","","","","","","","","","","","",""
"","","","","","html-keyboard-response","77","131358","0.0-6.0-0.20","A3DUPRZSMU9W5R","2022-05-27T00:13:57.251Z","rhyme-task_switching-phon_sim-same_different","","null","rhyme","<div style=""font-size:60px;"">+</div>","null","500","","","","","","","","","","","","","","","","","","","","","","","","","","","","","","","","","",""
"","","","","","html-keyboard-response","78","131872","0.0-6.0-1.20","A3DUPRZSMU9W5R","2022-05-27T00:13:57.251Z","rhyme-task_switching-phon_sim-same_different","","null","rhyme","<img src=""square.png"" width=""306"" height=""306"" style=""position: fixed;left:14%;top:30%""><img src=""square.png"" width=""306"" height=""306"" style=""position: fixed;left:64%;top:30%"">","null","","","","","","","","","","","","","","","","","","","","","","","","","","","","","","","","","","",""
"","","","","","html-keyboard-response","79","133607","0.0-6.0-2.20","A3DUPRZSMU9W5R","2022-05-27T00:13:57.251Z","rhyme-task_switching-phon_sim-same_different","","1744.5","rhyme","<div style=""border: 3px solid #000000; position: fixed;left:14%;top:30%""><img src=""visual/drawer.png"" width=""300""></div><div style=""border: 3px solid #000000; position: fixed;left:64%;top:30%""><img src=""visual/door.png"" width=""300""></div>","arrowup","","true","experiment","visual/drawer.png","visual/door.png","ArrowUp","non-ortho","","","","","","","","","","","","","","","","","","","","","","","","","","","",""
"","","","","","html-keyboard-response","80","134359","0.0-6.0-0.21","A3DUPRZSMU9W5R","2022-05-27T00:13:57.251Z","rhyme-task_switching-phon_sim-same_different","","null","rhyme","<div style=""font-size:60px;"">+</div>","null","750","","","","","","","","","","","","","","","","","","","","","","","","","","","","","","","","","",""
"","","","","","html-keyboard-response","81","134862","0.0-6.0-1.21","A3DUPRZSMU9W5R","2022-05-27T00:13:57.251Z","rhyme-task_switching-phon_sim-same_different","","null","rhyme","<img src=""square.png"" width=""306"" height=""306"" style=""position: fixed;left:14%;top:30%""><img src=""square.png"" width=""306"" height=""306"" style=""position: fixed;left:64%;top:30%"">","null","","","","","","","","","","","","","","","","","","","","","","","","","","","","","","","","","","",""
"","","","","","html-keyboard-response","82","136559","0.0-6.0-2.21","A3DUPRZSMU9W5R","2022-05-27T00:13:57.251Z","rhyme-task_switching-phon_sim-same_different","","1693.5999999977648","rhyme","<div style=""border: 3px solid #000000; position: fixed;left:14%;top:30%""><img src=""visual/dart.png"" width=""300""></div><div style=""border: 3px solid #000000; position: fixed;left:64%;top:30%""><img src=""visual/heart.png"" width=""300""></div>","arrowup","","true","experiment","visual/dart.png","visual/heart.png","ArrowUp","non-ortho","","","","","","","","","","","","","","","","","","","","","","","","","","","",""
"","","","","","html-keyboard-response","83","137562","0.0-6.0-0.22","A3DUPRZSMU9W5R","2022-05-27T00:13:57.251Z","rhyme-task_switching-phon_sim-same_different","","null","rhyme","<div style=""font-size:60px;"">+</div>","null","1000","","","","","","","","","","","","","","","","","","","","","","","","","","","","","","","","","",""
"","","","","","html-keyboard-response","84","138079","0.0-6.0-1.22","A3DUPRZSMU9W5R","2022-05-27T00:13:57.251Z","rhyme-task_switching-phon_sim-same_different","","null","rhyme","<img src=""square.png"" width=""306"" height=""306"" style=""position: fixed;left:14%;top:30%""><img src=""square.png"" width=""306"" height=""306"" style=""position: fixed;left:64%;top:30%"">","null","","","","","","","","","","","","","","","","","","","","","","","","","","","","","","","","","","",""
"","","","","","html-keyboard-response","85","139632","0.0-6.0-2.22","A3DUPRZSMU9W5R","2022-05-27T00:13:57.251Z","rhyme-task_switching-phon_sim-same_different","","1549.699999999255","rhyme","<div style=""border: 3px solid #000000; position: fixed;left:14%;top:30%""><img src=""visual/bed.png"" width=""300""></div><div style=""border: 3px solid #000000; position: fixed;left:64%;top:30%""><img src=""visual/bread.png"" width=""300""></div>","arrowup","","true","experiment","visual/bed.png","visual/bread.png","ArrowUp","non-ortho","","","","","","","","","","","","","","","","","","","","","","","","","","","",""
"","","","","","html-keyboard-response","86","139896","0.0-6.0-0.23","A3DUPRZSMU9W5R","2022-05-27T00:13:57.251Z","rhyme-task_switching-phon_sim-same_different","","null","rhyme","<div style=""font-size:60px;"">+</div>","null","250","","","","","","","","","","","","","","","","","","","","","","","","","","","","","","","","","",""
"","","","","","html-keyboard-response","87","140413","0.0-6.0-1.23","A3DUPRZSMU9W5R","2022-05-27T00:13:57.251Z","rhyme-task_switching-phon_sim-same_different","","null","rhyme","<img src=""square.png"" width=""306"" height=""306"" style=""position: fixed;left:14%;top:30%""><img src=""square.png"" width=""306"" height=""306"" style=""position: fixed;left:64%;top:30%"">","null","","","","","","","","","","","","","","","","","","","","","","","","","","","","","","","","","","",""
"","","","","","html-keyboard-response","88","141671","0.0-6.0-2.23","A3DUPRZSMU9W5R","2022-05-27T00:13:57.251Z","rhyme-task_switching-phon_sim-same_different","","1254","rhyme","<div style=""border: 3px solid #000000; position: fixed;left:14%;top:30%""><img src=""visual/tie.png"" width=""300""></div><div style=""border: 3px solid #000000; position: fixed;left:64%;top:30%""><img src=""visual/fly.png"" width=""300""></div>","arrowup","","true","experiment","visual/tie.png","visual/fly.png","ArrowUp","non-ortho","","","","","","","","","","","","","","","","","","","","","","","","","","","",""
"","","","","","html-keyboard-response","89","142179","0.0-6.0-0.24","A3DUPRZSMU9W5R","2022-05-27T00:13:57.251Z","rhyme-task_switching-phon_sim-same_different","","null","rhyme","<div style=""font-size:60px;"">+</div>","null","500","","","","","","","","","","","","","","","","","","","","","","","","","","","","","","","","","",""
"","","","","","html-keyboard-response","90","142682","0.0-6.0-1.24","A3DUPRZSMU9W5R","2022-05-27T00:13:57.251Z","rhyme-task_switching-phon_sim-same_different","","null","rhyme","<img src=""square.png"" width=""306"" height=""306"" style=""position: fixed;left:14%;top:30%""><img src=""square.png"" width=""306"" height=""306"" style=""position: fixed;left:64%;top:30%"">","null","","","","","","","","","","","","","","","","","","","","","","","","","","","","","","","","","","",""
"","","","","","html-keyboard-response","91","143718","0.0-6.0-2.24","A3DUPRZSMU9W5R","2022-05-27T00:13:57.251Z","rhyme-task_switching-phon_sim-same_different","","1034.199999999255","rhyme","<div style=""border: 3px solid #000000; position: fixed;left:14%;top:30%""><img src=""visual/key.png"" width=""300""></div><div style=""border: 3px solid #000000; position: fixed;left:64%;top:30%""><img src=""visual/tree.png"" width=""300""></div>","arrowup","","true","experiment","visual/key.png","visual/tree.png","ArrowUp","non-ortho","","","","","","","","","","","","","","","","","","","","","","","","","","","",""
"","","","","","html-keyboard-response","92","144481","0.0-6.0-0.25","A3DUPRZSMU9W5R","2022-05-27T00:13:57.251Z","rhyme-task_switching-phon_sim-same_different","","null","rhyme","<div style=""font-size:60px;"">+</div>","null","750","","","","","","","","","","","","","","","","","","","","","","","","","","","","","","","","","",""
"","","","","","html-keyboard-response","93","144997","0.0-6.0-1.25","A3DUPRZSMU9W5R","2022-05-27T00:13:57.251Z","rhyme-task_switching-phon_sim-same_different","","null","rhyme","<img src=""square.png"" width=""306"" height=""306"" style=""position: fixed;left:14%;top:30%""><img src=""square.png"" width=""306"" height=""306"" style=""position: fixed;left:64%;top:30%"">","null","","","","","","","","","","","","","","","","","","","","","","","","","","","","","","","","","","",""
"","","","","","html-keyboard-response","94","147103","0.0-6.0-2.25","A3DUPRZSMU9W5R","2022-05-27T00:13:57.251Z","rhyme-task_switching-phon_sim-same_different","","2103.300000000745","rhyme","<div style=""border: 3px solid #000000; position: fixed;left:14%;top:30%""><img src=""visual/drawer.png"" width=""300""></div><div style=""border: 3px solid #000000; position: fixed;left:64%;top:30%""><img src=""visual/chair.png"" width=""300""></div>","arrowdown","","true","experiment","visual/drawer.png","visual/chair.png","ArrowDown","NR","","","","","","","","","","","","","","","","","","","","","","","","","","","",""
"","","","","","html-keyboard-response","95","148114","0.0-6.0-0.26","A3DUPRZSMU9W5R","2022-05-27T00:13:57.251Z","rhyme-task_switching-phon_sim-same_different","","null","rhyme","<div style=""font-size:60px;"">+</div>","null","1000","","","","","","","","","","","","","","","","","","","","","","","","","","","","","","","","","",""
"","","","","","html-keyboard-response","96","148632","0.0-6.0-1.26","A3DUPRZSMU9W5R","2022-05-27T00:13:57.251Z","rhyme-task_switching-phon_sim-same_different","","null","rhyme","<img src=""square.png"" width=""306"" height=""306"" style=""position: fixed;left:14%;top:30%""><img src=""square.png"" width=""306"" height=""306"" style=""position: fixed;left:64%;top:30%"">","null","","","","","","","","","","","","","","","","","","","","","","","","","","","","","","","","","","",""
"","","","","","html-keyboard-response","97","150919","0.0-6.0-2.26","A3DUPRZSMU9W5R","2022-05-27T00:13:57.251Z","rhyme-task_switching-phon_sim-same_different","","2283.39999999851","rhyme","<div style=""border: 3px solid #000000; position: fixed;left:14%;top:30%""><img src=""visual/soap.png"" width=""300""></div><div style=""border: 3px solid #000000; position: fixed;left:64%;top:30%""><img src=""visual/shoe.png"" width=""300""></div>","arrowdown","","true","experiment","visual/soap.png","visual/shoe.png","ArrowDown","NR","","","","","","","","","","","","","","","","","","","","","","","","","","","",""
"","","","","","html-keyboard-response","98","151182","0.0-6.0-0.27","A3DUPRZSMU9W5R","2022-05-27T00:13:57.251Z","rhyme-task_switching-phon_sim-same_different","","null","rhyme","<div style=""font-size:60px;"">+</div>","null","250","","","","","","","","","","","","","","","","","","","","","","","","","","","","","","","","","",""
"","","","","","html-keyboard-response","99","151700","0.0-6.0-1.27","A3DUPRZSMU9W5R","2022-05-27T00:13:57.251Z","rhyme-task_switching-phon_sim-same_different","","null","rhyme","<img src=""square.png"" width=""306"" height=""306"" style=""position: fixed;left:14%;top:30%""><img src=""square.png"" width=""306"" height=""306"" style=""position: fixed;left:64%;top:30%"">","null","","","","","","","","","","","","","","","","","","","","","","","","","","","","","","","","","","",""
"","","","","","html-keyboard-response","100","153559","0.0-6.0-2.27","A3DUPRZSMU9W5R","2022-05-27T00:13:57.251Z","rhyme-task_switching-phon_sim-same_different","","1855.8999999985099","rhyme","<div style=""border: 3px solid #000000; position: fixed;left:14%;top:30%""><img src=""visual/pear.png"" width=""300""></div><div style=""border: 3px solid #000000; position: fixed;left:64%;top:30%""><img src=""visual/rope.png"" width=""300""></div>","arrowdown","","true","experiment","visual/pear.png","visual/rope.png","ArrowDown","NR","","","","","","","","","","","","","","","","","","","","","","","","","","","",""
"","","","","","html-keyboard-response","101","154316","0.0-6.0-0.28","A3DUPRZSMU9W5R","2022-05-27T00:13:57.251Z","rhyme-task_switching-phon_sim-same_different","","null","rhyme","<div style=""font-size:60px;"">+</div>","null","750","","","","","","","","","","","","","","","","","","","","","","","","","","","","","","","","","",""
"","","","","","html-keyboard-response","102","154819","0.0-6.0-1.28","A3DUPRZSMU9W5R","2022-05-27T00:13:57.251Z","rhyme-task_switching-phon_sim-same_different","","null","rhyme","<img src=""square.png"" width=""306"" height=""306"" style=""position: fixed;left:14%;top:30%""><img src=""square.png"" width=""306"" height=""306"" style=""position: fixed;left:64%;top:30%"">","null","","","","","","","","","","","","","","","","","","","","","","","","","","","","","","","","","","",""
"","","","","","html-keyboard-response","103","155895","0.0-6.0-2.28","A3DUPRZSMU9W5R","2022-05-27T00:13:57.251Z","rhyme-task_switching-phon_sim-same_different","","1072.5","rhyme","<div style=""border: 3px solid #000000; position: fixed;left:14%;top:30%""><img src=""visual/plane.png"" width=""300""></div><div style=""border: 3px solid #000000; position: fixed;left:64%;top:30%""><img src=""visual/train.png"" width=""300""></div>","arrowup","","true","experiment","visual/plane.png","visual/train.png","ArrowUp","non-ortho","","","","","","","","","","","","","","","","","","","","","","","","","","","",""
"","","","","","html-keyboard-response","104","156153","0.0-6.0-0.29","A3DUPRZSMU9W5R","2022-05-27T00:13:57.251Z","rhyme-task_switching-phon_sim-same_different","","null","rhyme","<div style=""font-size:60px;"">+</div>","null","250","","","","","","","","","","","","","","","","","","","","","","","","","","","","","","","","","",""
"","","","","","html-keyboard-response","105","156668","0.0-6.0-1.29","A3DUPRZSMU9W5R","2022-05-27T00:13:57.251Z","rhyme-task_switching-phon_sim-same_different","","null","rhyme","<img src=""square.png"" width=""306"" height=""306"" style=""position: fixed;left:14%;top:30%""><img src=""square.png"" width=""306"" height=""306"" style=""position: fixed;left:64%;top:30%"">","null","","","","","","","","","","","","","","","","","","","","","","","","","","","","","","","","","","",""
"","","","","","html-keyboard-response","106","158271","0.0-6.0-2.29","A3DUPRZSMU9W5R","2022-05-27T00:13:57.251Z","rhyme-task_switching-phon_sim-same_different","","1600.4000000022352","rhyme","<div style=""border: 3px solid #000000; position: fixed;left:14%;top:30%""><img src=""visual/tree.png"" width=""300""></div><div style=""border: 3px solid #000000; position: fixed;left:64%;top:30%""><img src=""visual/door.png"" width=""300""></div>","arrowdown","","true","experiment","visual/tree.png","visual/door.png","ArrowDown","NR","","","","","","","","","","","","","","","","","","","","","","","","","","","",""
"","","","","","html-keyboard-response","107","159036","0.0-6.0-0.30","A3DUPRZSMU9W5R","2022-05-27T00:13:57.251Z","rhyme-task_switching-phon_sim-same_different","","null","rhyme","<div style=""font-size:60px;"">+</div>","null","750","","","","","","","","","","","","","","","","","","","","","","","","","","","","","","","","","",""
"","","","","","html-keyboard-response","108","159552","0.0-6.0-1.30","A3DUPRZSMU9W5R","2022-05-27T00:13:57.251Z","rhyme-task_switching-phon_sim-same_different","","null","rhyme","<img src=""square.png"" width=""306"" height=""306"" style=""position: fixed;left:14%;top:30%""><img src=""square.png"" width=""306"" height=""306"" style=""position: fixed;left:64%;top:30%"">","null","","","","","","","","","","","","","","","","","","","","","","","","","","","","","","","","","","",""
"","","","","","html-keyboard-response","109","161247","0.0-6.0-2.30","A3DUPRZSMU9W5R","2022-05-27T00:13:57.251Z","rhyme-task_switching-phon_sim-same_different","","1692.300000000745","rhyme","<div style=""border: 3px solid #000000; position: fixed;left:14%;top:30%""><img src=""visual/fly.png"" width=""300""></div><div style=""border: 3px solid #000000; position: fixed;left:64%;top:30%""><img src=""visual/plane.png"" width=""300""></div>","arrowdown","","true","experiment","visual/fly.png","visual/plane.png","ArrowDown","NR","","","","","","","","","","","","","","","","","","","","","","","","","","","",""
"","","","","","html-keyboard-response","110","161503","0.0-6.0-0.31","A3DUPRZSMU9W5R","2022-05-27T00:13:57.251Z","rhyme-task_switching-phon_sim-same_different","","null","rhyme","<div style=""font-size:60px;"">+</div>","null","250","","","","","","","","","","","","","","","","","","","","","","","","","","","","","","","","","",""
"","","","","","html-keyboard-response","111","162020","0.0-6.0-1.31","A3DUPRZSMU9W5R","2022-05-27T00:13:57.251Z","rhyme-task_switching-phon_sim-same_different","","null","rhyme","<img src=""square.png"" width=""306"" height=""306"" style=""position: fixed;left:14%;top:30%""><img src=""square.png"" width=""306"" height=""306"" style=""position: fixed;left:64%;top:30%"">","null","","","","","","","","","","","","","","","","","","","","","","","","","","","","","","","","","","",""
"","","","","","html-keyboard-response","112","163038","0.0-6.0-2.31","A3DUPRZSMU9W5R","2022-05-27T00:13:57.251Z","rhyme-task_switching-phon_sim-same_different","","1016.2999999970198","rhyme","<div style=""border: 3px solid #000000; position: fixed;left:14%;top:30%""><img src=""visual/chain.png"" width=""300""></div><div style=""border: 3px solid #000000; position: fixed;left:64%;top:30%""><img src=""visual/brain.png"" width=""300""></div>","arrowup","","true","experiment","visual/chain.png","visual/brain.png","ArrowUp","ortho","","","","","","","","","","","","","","","","","","","","","","","","","","","",""
"","","","","","html-keyboard-response","113","163557","0.0-6.0-0.32","A3DUPRZSMU9W5R","2022-05-27T00:13:57.251Z","rhyme-task_switching-phon_sim-same_different","","null","rhyme","<div style=""font-size:60px;"">+</div>","null","500","","","","","","","","","","","","","","","","","","","","","","","","","","","","","","","","","",""
"","","","","","html-keyboard-response","114","164070","0.0-6.0-1.32","A3DUPRZSMU9W5R","2022-05-27T00:13:57.251Z","rhyme-task_switching-phon_sim-same_different","","null","rhyme","<img src=""square.png"" width=""306"" height=""306"" style=""position: fixed;left:14%;top:30%""><img src=""square.png"" width=""306"" height=""306"" style=""position: fixed;left:64%;top:30%"">","null","","","","","","","","","","","","","","","","","","","","","","","","","","","","","","","","","","",""
"","","","","","html-keyboard-response","115","167119","0.0-6.0-2.32","A3DUPRZSMU9W5R","2022-05-27T00:13:57.251Z","rhyme-task_switching-phon_sim-same_different","","3046.60000000149","rhyme","<div style=""border: 3px solid #000000; position: fixed;left:14%;top:30%""><img src=""visual/king.png"" width=""300""></div><div style=""border: 3px solid #000000; position: fixed;left:64%;top:30%""><img src=""visual/cab.png"" width=""300""></div>","arrowdown","","true","experiment","visual/king.png","visual/cab.png","ArrowDown","NR","","","","","","","","","","","","","","","","","","","","","","","","","","","",""
"","","","","","html-keyboard-response","116","167373","0.0-6.0-0.33","A3DUPRZSMU9W5R","2022-05-27T00:13:57.251Z","rhyme-task_switching-phon_sim-same_different","","null","rhyme","<div style=""font-size:60px;"">+</div>","null","250","","","","","","","","","","","","","","","","","","","","","","","","","","","","","","","","","",""
"","","","","","html-keyboard-response","117","167887","0.0-6.0-1.33","A3DUPRZSMU9W5R","2022-05-27T00:13:57.251Z","rhyme-task_switching-phon_sim-same_different","","null","rhyme","<img src=""square.png"" width=""306"" height=""306"" style=""position: fixed;left:14%;top:30%""><img src=""square.png"" width=""306"" height=""306"" style=""position: fixed;left:64%;top:30%"">","null","","","","","","","","","","","","","","","","","","","","","","","","","","","","","","","","","","",""
"","","","","","html-keyboard-response","118","169103","0.0-6.0-2.33","A3DUPRZSMU9W5R","2022-05-27T00:13:57.251Z","rhyme-task_switching-phon_sim-same_different","","1212.1000000014901","rhyme","<div style=""border: 3px solid #000000; position: fixed;left:14%;top:30%""><img src=""visual/bone.png"" width=""300""></div><div style=""border: 3px solid #000000; position: fixed;left:64%;top:30%""><img src=""visual/cone.png"" width=""300""></div>","arrowup","","true","experiment","visual/bone.png","visual/cone.png","ArrowUp","ortho","","","","","","","","","","","","","","","","","","","","","","","","","","","",""
"","","","","","html-keyboard-response","119","169356","0.0-6.0-0.34","A3DUPRZSMU9W5R","2022-05-27T00:13:57.251Z","rhyme-task_switching-phon_sim-same_different","","null","rhyme","<div style=""font-size:60px;"">+</div>","null","250","","","","","","","","","","","","","","","","","","","","","","","","","","","","","","","","","",""
"","","","","","html-keyboard-response","120","169873","0.0-6.0-1.34","A3DUPRZSMU9W5R","2022-05-27T00:13:57.251Z","rhyme-task_switching-phon_sim-same_different","","null","rhyme","<img src=""square.png"" width=""306"" height=""306"" style=""position: fixed;left:14%;top:30%""><img src=""square.png"" width=""306"" height=""306"" style=""position: fixed;left:64%;top:30%"">","null","","","","","","","","","","","","","","","","","","","","","","","","","","","","","","","","","","",""
"","","","","","html-keyboard-response","121","171982","0.0-6.0-2.34","A3DUPRZSMU9W5R","2022-05-27T00:13:57.251Z","rhyme-task_switching-phon_sim-same_different","","2106.900000002235","rhyme","<div style=""border: 3px solid #000000; position: fixed;left:14%;top:30%""><img src=""visual/well.png"" width=""300""></div><div style=""border: 3px solid #000000; position: fixed;left:64%;top:30%""><img src=""visual/rose.png"" width=""300""></div>","arrowdown","","true","experiment","visual/well.png","visual/rose.png","ArrowDown","NR","","","","","","","","","","","","","","","","","","","","","","","","","","","",""
"","","","","","html-keyboard-response","122","172738","0.0-6.0-0.35","A3DUPRZSMU9W5R","2022-05-27T00:13:57.251Z","rhyme-task_switching-phon_sim-same_different","","null","rhyme","<div style=""font-size:60px;"">+</div>","null","750","","","","","","","","","","","","","","","","","","","","","","","","","","","","","","","","","",""
"","","","","","html-keyboard-response","123","173241","0.0-6.0-1.35","A3DUPRZSMU9W5R","2022-05-27T00:13:57.251Z","rhyme-task_switching-phon_sim-same_different","","null","rhyme","<img src=""square.png"" width=""306"" height=""306"" style=""position: fixed;left:14%;top:30%""><img src=""square.png"" width=""306"" height=""306"" style=""position: fixed;left:64%;top:30%"">","null","","","","","","","","","","","","","","","","","","","","","","","","","","","","","","","","","","",""
"","","","","","html-keyboard-response","124","174623","0.0-6.0-2.35","A3DUPRZSMU9W5R","2022-05-27T00:13:57.251Z","rhyme-task_switching-phon_sim-same_different","","1378.8999999985099","rhyme","<div style=""border: 3px solid #000000; position: fixed;left:14%;top:30%""><img src=""visual/claw.png"" width=""300""></div><div style=""border: 3px solid #000000; position: fixed;left:64%;top:30%""><img src=""visual/beer.png"" width=""300""></div>","arrowdown","","true","experiment","visual/claw.png","visual/beer.png","ArrowDown","NR","","","","","","","","","","","","","","","","","","","","","","","","","","","",""
"","","","","","html-keyboard-response","125","175640","0.0-6.0-0.36","A3DUPRZSMU9W5R","2022-05-27T00:13:57.251Z","rhyme-task_switching-phon_sim-same_different","","null","rhyme","<div style=""font-size:60px;"">+</div>","null","1000","","","","","","","","","","","","","","","","","","","","","","","","","","","","","","","","","",""
"","","","","","html-keyboard-response","126","176157","0.0-6.0-1.36","A3DUPRZSMU9W5R","2022-05-27T00:13:57.251Z","rhyme-task_switching-phon_sim-same_different","","null","rhyme","<img src=""square.png"" width=""306"" height=""306"" style=""position: fixed;left:14%;top:30%""><img src=""square.png"" width=""306"" height=""306"" style=""position: fixed;left:64%;top:30%"">","null","","","","","","","","","","","","","","","","","","","","","","","","","","","","","","","","","","",""
"","","","","","html-keyboard-response","127","177623","0.0-6.0-2.36","A3DUPRZSMU9W5R","2022-05-27T00:13:57.251Z","rhyme-task_switching-phon_sim-same_different","","1463.199999999255","rhyme","<div style=""border: 3px solid #000000; position: fixed;left:14%;top:30%""><img src=""visual/flag.png"" width=""300""></div><div style=""border: 3px solid #000000; position: fixed;left:64%;top:30%""><img src=""visual/bag.png"" width=""300""></div>","arrowup","","true","experiment","visual/flag.png","visual/bag.png","ArrowUp","ortho","","","","","","","","","","","","","","","","","","","","","","","","","","","",""
"","","","","","html-keyboard-response","128","178375","0.0-6.0-0.37","A3DUPRZSMU9W5R","2022-05-27T00:13:57.251Z","rhyme-task_switching-phon_sim-same_different","","null","rhyme","<div style=""font-size:60px;"">+</div>","null","750","","","","","","","","","","","","","","","","","","","","","","","","","","","","","","","","","",""
"","","","","","html-keyboard-response","129","178891","0.0-6.0-1.37","A3DUPRZSMU9W5R","2022-05-27T00:13:57.251Z","rhyme-task_switching-phon_sim-same_different","","null","rhyme","<img src=""square.png"" width=""306"" height=""306"" style=""position: fixed;left:14%;top:30%""><img src=""square.png"" width=""306"" height=""306"" style=""position: fixed;left:64%;top:30%"">","null","","","","","","","","","","","","","","","","","","","","","","","","","","","","","","","","","","",""
"","","","","","html-keyboard-response","130","181679","0.0-6.0-2.37","A3DUPRZSMU9W5R","2022-05-27T00:13:57.251Z","rhyme-task_switching-phon_sim-same_different","","2784.39999999851","rhyme","<div style=""border: 3px solid #000000; position: fixed;left:14%;top:30%""><img src=""visual/king.png"" width=""300""></div><div style=""border: 3px solid #000000; position: fixed;left:64%;top:30%""><img src=""visual/ring.png"" width=""300""></div>","arrowdown","","false","experiment","visual/king.png","visual/ring.png","ArrowUp","ortho","","","","","","","","","","","","","","","","","","","","","","","","","","","",""
"","","","","","html-keyboard-response","131","182442","0.0-6.0-0.38","A3DUPRZSMU9W5R","2022-05-27T00:13:57.251Z","rhyme-task_switching-phon_sim-same_different","","null","rhyme","<div style=""font-size:60px;"">+</div>","null","750","","","","","","","","","","","","","","","","","","","","","","","","","","","","","","","","","",""
"","","","","","html-keyboard-response","132","182960","0.0-6.0-1.38","A3DUPRZSMU9W5R","2022-05-27T00:13:57.251Z","rhyme-task_switching-phon_sim-same_different","","null","rhyme","<img src=""square.png"" width=""306"" height=""306"" style=""position: fixed;left:14%;top:30%""><img src=""square.png"" width=""306"" height=""306"" style=""position: fixed;left:64%;top:30%"">","null","","","","","","","","","","","","","","","","","","","","","","","","","","","","","","","","","","",""
"","","","","","html-keyboard-response","133","184487","0.0-6.0-2.38","A3DUPRZSMU9W5R","2022-05-27T00:13:57.251Z","rhyme-task_switching-phon_sim-same_different","","1523.5","rhyme","<div style=""border: 3px solid #000000; position: fixed;left:14%;top:30%""><img src=""visual/wave.png"" width=""300""></div><div style=""border: 3px solid #000000; position: fixed;left:64%;top:30%""><img src=""visual/cave.png"" width=""300""></div>","arrowup","","true","experiment","visual/wave.png","visual/cave.png","ArrowUp","ortho","","","","","","","","","","","","","","","","","","","","","","","","","","","",""
"","","","","","html-keyboard-response","134","184744","0.0-6.0-0.39","A3DUPRZSMU9W5R","2022-05-27T00:13:57.251Z","rhyme-task_switching-phon_sim-same_different","","null","rhyme","<div style=""font-size:60px;"">+</div>","null","250","","","","","","","","","","","","","","","","","","","","","","","","","","","","","","","","","",""
"","","","","","html-keyboard-response","135","185261","0.0-6.0-1.39","A3DUPRZSMU9W5R","2022-05-27T00:13:57.251Z","rhyme-task_switching-phon_sim-same_different","","null","rhyme","<img src=""square.png"" width=""306"" height=""306"" style=""position: fixed;left:14%;top:30%""><img src=""square.png"" width=""306"" height=""306"" style=""position: fixed;left:64%;top:30%"">","null","","","","","","","","","","","","","","","","","","","","","","","","","","","","","","","","","","",""
"","","","","","html-keyboard-response","136","186895","0.0-6.0-2.39","A3DUPRZSMU9W5R","2022-05-27T00:13:57.251Z","rhyme-task_switching-phon_sim-same_different","","1631.699999999255","rhyme","<div style=""border: 3px solid #000000; position: fixed;left:14%;top:30%""><img src=""visual/rose.png"" width=""300""></div><div style=""border: 3px solid #000000; position: fixed;left:64%;top:30%""><img src=""visual/nose.png"" width=""300""></div>","arrowup","","true","experiment","visual/rose.png","visual/nose.png","ArrowUp","ortho","","","","","","","","","","","","","","","","","","","","","","","","","","","",""
"","","","","","html-keyboard-response","137","187660","0.0-6.0-0.40","A3DUPRZSMU9W5R","2022-05-27T00:13:57.251Z","rhyme-task_switching-phon_sim-same_different","","null","rhyme","<div style=""font-size:60px;"">+</div>","null","750","","","","","","","","","","","","","","","","","","","","","","","","","","","","","","","","","",""
"","","","","","html-keyboard-response","138","188178","0.0-6.0-1.40","A3DUPRZSMU9W5R","2022-05-27T00:13:57.251Z","rhyme-task_switching-phon_sim-same_different","","null","rhyme","<img src=""square.png"" width=""306"" height=""306"" style=""position: fixed;left:14%;top:30%""><img src=""square.png"" width=""306"" height=""306"" style=""position: fixed;left:64%;top:30%"">","null","","","","","","","","","","","","","","","","","","","","","","","","","","","","","","","","","","",""
"","","","","","html-keyboard-response","139","189279","0.0-6.0-2.40","A3DUPRZSMU9W5R","2022-05-27T00:13:57.251Z","rhyme-task_switching-phon_sim-same_different","","1097.699999999255","rhyme","<div style=""border: 3px solid #000000; position: fixed;left:14%;top:30%""><img src=""visual/brain.png"" width=""300""></div><div style=""border: 3px solid #000000; position: fixed;left:64%;top:30%""><img src=""visual/clock.png"" width=""300""></div>","arrowdown","","true","experiment","visual/brain.png","visual/clock.png","ArrowDown","NR","","","","","","","","","","","","","","","","","","","","","","","","","","","",""
"","","","","","html-keyboard-response","140","190044","0.0-6.0-0.41","A3DUPRZSMU9W5R","2022-05-27T00:13:57.251Z","rhyme-task_switching-phon_sim-same_different","","null","rhyme","<div style=""font-size:60px;"">+</div>","null","750","","","","","","","","","","","","","","","","","","","","","","","","","","","","","","","","","",""
"","","","","","html-keyboard-response","141","190547","0.0-6.0-1.41","A3DUPRZSMU9W5R","2022-05-27T00:13:57.251Z","rhyme-task_switching-phon_sim-same_different","","null","rhyme","<img src=""square.png"" width=""306"" height=""306"" style=""position: fixed;left:14%;top:30%""><img src=""square.png"" width=""306"" height=""306"" style=""position: fixed;left:64%;top:30%"">","null","","","","","","","","","","","","","","","","","","","","","","","","","","","","","","","","","","",""
"","","","","","html-keyboard-response","142","192663","0.0-6.0-2.41","A3DUPRZSMU9W5R","2022-05-27T00:13:57.251Z","rhyme-task_switching-phon_sim-same_different","","2112.699999999255","rhyme","<div style=""border: 3px solid #000000; position: fixed;left:14%;top:30%""><img src=""visual/train.png"" width=""300""></div><div style=""border: 3px solid #000000; position: fixed;left:64%;top:30%""><img src=""visual/screw.png"" width=""300""></div>","arrowdown","","true","experiment","visual/train.png","visual/screw.png","ArrowDown","NR","","","","","","","","","","","","","","","","","","","","","","","","","","","",""
"","","","","","html-keyboard-response","143","192929","0.0-6.0-0.42","A3DUPRZSMU9W5R","2022-05-27T00:13:57.251Z","rhyme-task_switching-phon_sim-same_different","","null","rhyme","<div style=""font-size:60px;"">+</div>","null","250","","","","","","","","","","","","","","","","","","","","","","","","","","","","","","","","","",""
"","","","","","html-keyboard-response","144","193446","0.0-6.0-1.42","A3DUPRZSMU9W5R","2022-05-27T00:13:57.251Z","rhyme-task_switching-phon_sim-same_different","","null","rhyme","<img src=""square.png"" width=""306"" height=""306"" style=""position: fixed;left:14%;top:30%""><img src=""square.png"" width=""306"" height=""306"" style=""position: fixed;left:64%;top:30%"">","null","","","","","","","","","","","","","","","","","","","","","","","","","","","","","","","","","","",""
"","","","","","html-keyboard-response","145","196273","0.0-6.0-2.42","A3DUPRZSMU9W5R","2022-05-27T00:13:57.251Z","rhyme-task_switching-phon_sim-same_different","","2813.60000000149","rhyme","<div style=""border: 3px solid #000000; position: fixed;left:14%;top:30%""><img src=""visual/screw.png"" width=""300""></div><div style=""border: 3px solid #000000; position: fixed;left:64%;top:30%""><img src=""visual/shoe.png"" width=""300""></div>","arrowdown","","false","experiment","visual/screw.png","visual/shoe.png","ArrowUp","non-ortho","","","","","","","","","","","","","","","","","","","","","","","","","","","",""
"","","","","","html-keyboard-response","146","197026","0.0-6.0-0.43","A3DUPRZSMU9W5R","2022-05-27T00:13:57.251Z","rhyme-task_switching-phon_sim-same_different","","null","rhyme","<div style=""font-size:60px;"">+</div>","null","750","","","","","","","","","","","","","","","","","","","","","","","","","","","","","","","","","",""
"","","","","","html-keyboard-response","147","197540","0.0-6.0-1.43","A3DUPRZSMU9W5R","2022-05-27T00:13:57.251Z","rhyme-task_switching-phon_sim-same_different","","null","rhyme","<img src=""square.png"" width=""306"" height=""306"" style=""position: fixed;left:14%;top:30%""><img src=""square.png"" width=""306"" height=""306"" style=""position: fixed;left:64%;top:30%"">","null","","","","","","","","","","","","","","","","","","","","","","","","","","","","","","","","","","",""
"","","","","","html-keyboard-response","148","199106","0.0-6.0-2.43","A3DUPRZSMU9W5R","2022-05-27T00:13:57.251Z","rhyme-task_switching-phon_sim-same_different","","1561.5999999977648","rhyme","<div style=""border: 3px solid #000000; position: fixed;left:14%;top:30%""><img src=""visual/bear.png"" width=""300""></div><div style=""border: 3px solid #000000; position: fixed;left:64%;top:30%""><img src=""visual/square_rhyme.png"" width=""300""></div>","arrowup","","true","experiment","visual/bear.png","visual/square_rhyme.png","ArrowUp","non-ortho","","","","","","","","","","","","","","","","","","","","","","","","","","","",""
"","","","","","html-keyboard-response","149","199368","0.0-6.0-0.44","A3DUPRZSMU9W5R","2022-05-27T00:13:57.251Z","rhyme-task_switching-phon_sim-same_different","","null","rhyme","<div style=""font-size:60px;"">+</div>","null","250","","","","","","","","","","","","","","","","","","","","","","","","","","","","","","","","","",""
"","","","","","html-keyboard-response","150","199876","0.0-6.0-1.44","A3DUPRZSMU9W5R","2022-05-27T00:13:57.251Z","rhyme-task_switching-phon_sim-same_different","","null","rhyme","<img src=""square.png"" width=""306"" height=""306"" style=""position: fixed;left:14%;top:30%""><img src=""square.png"" width=""306"" height=""306"" style=""position: fixed;left:64%;top:30%"">","null","","","","","","","","","","","","","","","","","","","","","","","","","","","","","","","","","","",""
"","","","","","html-keyboard-response","151","202833","0.0-6.0-2.44","A3DUPRZSMU9W5R","2022-05-27T00:13:57.251Z","rhyme-task_switching-phon_sim-same_different","","2954.900000002235","rhyme","<div style=""border: 3px solid #000000; position: fixed;left:14%;top:30%""><img src=""visual/cab.png"" width=""300""></div><div style=""border: 3px solid #000000; position: fixed;left:64%;top:30%""><img src=""visual/crab.png"" width=""300""></div>","arrowup","","true","experiment","visual/cab.png","visual/crab.png","ArrowUp","ortho","","","","","","","","","","","","","","","","","","","","","","","","","","","",""
"","","","","","html-keyboard-response","152","203342","0.0-6.0-0.45","A3DUPRZSMU9W5R","2022-05-27T00:13:57.251Z","rhyme-task_switching-phon_sim-same_different","","null","rhyme","<div style=""font-size:60px;"">+</div>","null","500","","","","","","","","","","","","","","","","","","","","","","","","","","","","","","","","","",""
"","","","","","html-keyboard-response","153","203845","0.0-6.0-1.45","A3DUPRZSMU9W5R","2022-05-27T00:13:57.251Z","rhyme-task_switching-phon_sim-same_different","","null","rhyme","<img src=""square.png"" width=""306"" height=""306"" style=""position: fixed;left:14%;top:30%""><img src=""square.png"" width=""306"" height=""306"" style=""position: fixed;left:64%;top:30%"">","null","","","","","","","","","","","","","","","","","","","","","","","","","","","","","","","","","","",""
"","","","","","html-keyboard-response","154","204865","0.0-6.0-2.45","A3DUPRZSMU9W5R","2022-05-27T00:13:57.251Z","rhyme-task_switching-phon_sim-same_different","","1016.1999999992549","rhyme","<div style=""border: 3px solid #000000; position: fixed;left:14%;top:30%""><img src=""visual/eye.png"" width=""300""></div><div style=""border: 3px solid #000000; position: fixed;left:64%;top:30%""><img src=""visual/tie.png"" width=""300""></div>","arrowup","","true","experiment","visual/eye.png","visual/tie.png","ArrowUp","non-ortho","","","","","","","","","","","","","","","","","","","","","","","","","","","",""
"","","","","","html-keyboard-response","155","205627","0.0-6.0-0.46","A3DUPRZSMU9W5R","2022-05-27T00:13:57.251Z","rhyme-task_switching-phon_sim-same_different","","null","rhyme","<div style=""font-size:60px;"">+</div>","null","750","","","","","","","","","","","","","","","","","","","","","","","","","","","","","","","","","",""
"","","","","","html-keyboard-response","156","206143","0.0-6.0-1.46","A3DUPRZSMU9W5R","2022-05-27T00:13:57.251Z","rhyme-task_switching-phon_sim-same_different","","null","rhyme","<img src=""square.png"" width=""306"" height=""306"" style=""position: fixed;left:14%;top:30%""><img src=""square.png"" width=""306"" height=""306"" style=""position: fixed;left:64%;top:30%"">","null","","","","","","","","","","","","","","","","","","","","","","","","","","","","","","","","","","",""
"","","","","","html-keyboard-response","157","208065","0.0-6.0-2.46","A3DUPRZSMU9W5R","2022-05-27T00:13:57.251Z","rhyme-task_switching-phon_sim-same_different","","1919.1000000014901","rhyme","<div style=""border: 3px solid #000000; position: fixed;left:14%;top:30%""><img src=""visual/shark.png"" width=""300""></div><div style=""border: 3px solid #000000; position: fixed;left:64%;top:30%""><img src=""visual/moon.png"" width=""300""></div>","arrowdown","","true","experiment","visual/shark.png","visual/moon.png","ArrowDown","NR","","","","","","","","","","","","","","","","","","","","","","","","","","","",""
"","","","","","html-keyboard-response","158","209078","0.0-6.0-0.47","A3DUPRZSMU9W5R","2022-05-27T00:13:57.251Z","rhyme-task_switching-phon_sim-same_different","","null","rhyme","<div style=""font-size:60px;"">+</div>","null","1000","","","","","","","","","","","","","","","","","","","","","","","","","","","","","","","","","",""
"","","","","","html-keyboard-response","159","209595","0.0-6.0-1.47","A3DUPRZSMU9W5R","2022-05-27T00:13:57.251Z","rhyme-task_switching-phon_sim-same_different","","null","rhyme","<img src=""square.png"" width=""306"" height=""306"" style=""position: fixed;left:14%;top:30%""><img src=""square.png"" width=""306"" height=""306"" style=""position: fixed;left:64%;top:30%"">","null","","","","","","","","","","","","","","","","","","","","","","","","","","","","","","","","","","",""
"","","","","","html-keyboard-response","160","212289","0.0-6.0-2.47","A3DUPRZSMU9W5R","2022-05-27T00:13:57.251Z","rhyme-task_switching-phon_sim-same_different","","2690.300000000745","rhyme","<div style=""border: 3px solid #000000; position: fixed;left:14%;top:30%""><img src=""visual/egg.png"" width=""300""></div><div style=""border: 3px solid #000000; position: fixed;left:64%;top:30%""><img src=""visual/leg.png"" width=""300""></div>","arrowdown","","false","experiment","visual/egg.png","visual/leg.png","ArrowUp","ortho","","","","","","","","","","","","","","","","","","","","","","","","","","","",""
"","","","","","html-keyboard-response","161","213297","0.0-6.0-0.48","A3DUPRZSMU9W5R","2022-05-27T00:13:57.251Z","rhyme-task_switching-phon_sim-same_different","","null","rhyme","<div style=""font-size:60px;"">+</div>","null","1000","","","","","","","","","","","","","","","","","","","","","","","","","","","","","","","","","",""
"","","","","","html-keyboard-response","162","213812","0.0-6.0-1.48","A3DUPRZSMU9W5R","2022-05-27T00:13:57.251Z","rhyme-task_switching-phon_sim-same_different","","null","rhyme","<img src=""square.png"" width=""306"" height=""306"" style=""position: fixed;left:14%;top:30%""><img src=""square.png"" width=""306"" height=""306"" style=""position: fixed;left:64%;top:30%"">","null","","","","","","","","","","","","","","","","","","","","","","","","","","","","","","","","","","",""
"","","","","","html-keyboard-response","163","215233","0.0-6.0-2.48","A3DUPRZSMU9W5R","2022-05-27T00:13:57.251Z","rhyme-task_switching-phon_sim-same_different","","1419.5","rhyme","<div style=""border: 3px solid #000000; position: fixed;left:14%;top:30%""><img src=""visual/snail.png"" width=""300""></div><div style=""border: 3px solid #000000; position: fixed;left:64%;top:30%""><img src=""visual/whale.png"" width=""300""></div>","arrowup","","true","experiment","visual/snail.png","visual/whale.png","ArrowUp","non-ortho","","","","","","","","","","","","","","","","","","","","","","","","","","","",""
"","","","","","html-keyboard-response","164","215995","0.0-6.0-0.49","A3DUPRZSMU9W5R","2022-05-27T00:13:57.251Z","rhyme-task_switching-phon_sim-same_different","","null","rhyme","<div style=""font-size:60px;"">+</div>","null","750","","","","","","","","","","","","","","","","","","","","","","","","","","","","","","","","","",""
"","","","","","html-keyboard-response","165","216498","0.0-6.0-1.49","A3DUPRZSMU9W5R","2022-05-27T00:13:57.251Z","rhyme-task_switching-phon_sim-same_different","","null","rhyme","<img src=""square.png"" width=""306"" height=""306"" style=""position: fixed;left:14%;top:30%""><img src=""square.png"" width=""306"" height=""306"" style=""position: fixed;left:64%;top:30%"">","null","","","","","","","","","","","","","","","","","","","","","","","","","","","","","","","","","","",""
"","","","","","html-keyboard-response","166","217977","0.0-6.0-2.49","A3DUPRZSMU9W5R","2022-05-27T00:13:57.251Z","rhyme-task_switching-phon_sim-same_different","","1475.4000000022352","rhyme","<div style=""border: 3px solid #000000; position: fixed;left:14%;top:30%""><img src=""visual/cake.png"" width=""300""></div><div style=""border: 3px solid #000000; position: fixed;left:64%;top:30%""><img src=""visual/rake.png"" width=""300""></div>","arrowup","","true","experiment","visual/cake.png","visual/rake.png","ArrowUp","ortho","","","","","","","","","","","","","","","","","","","","","","","","","","","",""
"","","","","","html-keyboard-response","167","218733","0.0-6.0-0.50","A3DUPRZSMU9W5R","2022-05-27T00:13:57.251Z","rhyme-task_switching-phon_sim-same_different","","null","rhyme","<div style=""font-size:60px;"">+</div>","null","750","","","","","","","","","","","","","","","","","","","","","","","","","","","","","","","","","",""
"","","","","","html-keyboard-response","168","219253","0.0-6.0-1.50","A3DUPRZSMU9W5R","2022-05-27T00:13:57.251Z","rhyme-task_switching-phon_sim-same_different","","null","rhyme","<img src=""square.png"" width=""306"" height=""306"" style=""position: fixed;left:14%;top:30%""><img src=""square.png"" width=""306"" height=""306"" style=""position: fixed;left:64%;top:30%"">","null","","","","","","","","","","","","","","","","","","","","","","","","","","","","","","","","","","",""
"","","","","","html-keyboard-response","169","220337","0.0-6.0-2.50","A3DUPRZSMU9W5R","2022-05-27T00:13:57.251Z","rhyme-task_switching-phon_sim-same_different","","1081.1000000014901","rhyme","<div style=""border: 3px solid #000000; position: fixed;left:14%;top:30%""><img src=""visual/soap.png"" width=""300""></div><div style=""border: 3px solid #000000; position: fixed;left:64%;top:30%""><img src=""visual/rope.png"" width=""300""></div>","arrowup","","true","experiment","visual/soap.png","visual/rope.png","ArrowUp","non-ortho","","","","","","","","","","","","","","","","","","","","","","","","","","","",""
"","","","","","html-keyboard-response","170","220598","0.0-6.0-0.51","A3DUPRZSMU9W5R","2022-05-27T00:13:57.251Z","rhyme-task_switching-phon_sim-same_different","","null","rhyme","<div style=""font-size:60px;"">+</div>","null","250","","","","","","","","","","","","","","","","","","","","","","","","","","","","","","","","","",""
"","","","","","html-keyboard-response","171","221115","0.0-6.0-1.51","A3DUPRZSMU9W5R","2022-05-27T00:13:57.251Z","rhyme-task_switching-phon_sim-same_different","","null","rhyme","<img src=""square.png"" width=""306"" height=""306"" style=""position: fixed;left:14%;top:30%""><img src=""square.png"" width=""306"" height=""306"" style=""position: fixed;left:64%;top:30%"">","null","","","","","","","","","","","","","","","","","","","","","","","","","","","","","","","","","","",""
"","","","","","html-keyboard-response","172","222281","0.0-6.0-2.51","A3DUPRZSMU9W5R","2022-05-27T00:13:57.251Z","rhyme-task_switching-phon_sim-same_different","","1163.5","rhyme","<div style=""border: 3px solid #000000; position: fixed;left:14%;top:30%""><img src=""visual/bear.png"" width=""300""></div><div style=""border: 3px solid #000000; position: fixed;left:64%;top:30%""><img src=""visual/hair.png"" width=""300""></div>","arrowup","","true","experiment","visual/bear.png","visual/hair.png","ArrowUp","non-ortho","","","","","","","","","","","","","","","","","","","","","","","","","","","",""
"","","","","","html-keyboard-response","173","222533","0.0-6.0-0.52","A3DUPRZSMU9W5R","2022-05-27T00:13:57.251Z","rhyme-task_switching-phon_sim-same_different","","null","rhyme","<div style=""font-size:60px;"">+</div>","null","250","","","","","","","","","","","","","","","","","","","","","","","","","","","","","","","","","",""
"","","","","","html-keyboard-response","174","223048","0.0-6.0-1.52","A3DUPRZSMU9W5R","2022-05-27T00:13:57.251Z","rhyme-task_switching-phon_sim-same_different","","null","rhyme","<img src=""square.png"" width=""306"" height=""306"" style=""position: fixed;left:14%;top:30%""><img src=""square.png"" width=""306"" height=""306"" style=""position: fixed;left:64%;top:30%"">","null","","","","","","","","","","","","","","","","","","","","","","","","","","","","","","","","","","",""
"","","","","","html-keyboard-response","175","224113","0.0-6.0-2.52","A3DUPRZSMU9W5R","2022-05-27T00:13:57.251Z","rhyme-task_switching-phon_sim-same_different","","1062.300000000745","rhyme","<div style=""border: 3px solid #000000; position: fixed;left:14%;top:30%""><img src=""visual/well.png"" width=""300""></div><div style=""border: 3px solid #000000; position: fixed;left:64%;top:30%""><img src=""visual/bell.png"" width=""300""></div>","arrowup","","true","experiment","visual/well.png","visual/bell.png","ArrowUp","ortho","","","","","","","","","","","","","","","","","","","","","","","","","","","",""
"","","","","","html-keyboard-response","176","224616","0.0-6.0-0.53","A3DUPRZSMU9W5R","2022-05-27T00:13:57.251Z","rhyme-task_switching-phon_sim-same_different","","null","rhyme","<div style=""font-size:60px;"">+</div>","null","500","","","","","","","","","","","","","","","","","","","","","","","","","","","","","","","","","",""
"","","","","","html-keyboard-response","177","225132","0.0-6.0-1.53","A3DUPRZSMU9W5R","2022-05-27T00:13:57.251Z","rhyme-task_switching-phon_sim-same_different","","null","rhyme","<img src=""square.png"" width=""306"" height=""306"" style=""position: fixed;left:14%;top:30%""><img src=""square.png"" width=""306"" height=""306"" style=""position: fixed;left:64%;top:30%"">","null","","","","","","","","","","","","","","","","","","","","","","","","","","","","","","","","","","",""
"","","","","","html-keyboard-response","178","226345","0.0-6.0-2.53","A3DUPRZSMU9W5R","2022-05-27T00:13:57.251Z","rhyme-task_switching-phon_sim-same_different","","1211.4000000022352","rhyme","<div style=""border: 3px solid #000000; position: fixed;left:14%;top:30%""><img src=""visual/key.png"" width=""300""></div><div style=""border: 3px solid #000000; position: fixed;left:64%;top:30%""><img src=""visual/snail.png"" width=""300""></div>","arrowdown","","true","experiment","visual/key.png","visual/snail.png","ArrowDown","NR","","","","","","","","","","","","","","","","","","","","","","","","","","","",""
"","","","","","html-keyboard-response","179","227351","0.0-6.0-0.54","A3DUPRZSMU9W5R","2022-05-27T00:13:57.251Z","rhyme-task_switching-phon_sim-same_different","","null","rhyme","<div style=""font-size:60px;"">+</div>","null","1000","","","","","","","","","","","","","","","","","","","","","","","","","","","","","","","","","",""
"","","","","","html-keyboard-response","180","227867","0.0-6.0-1.54","A3DUPRZSMU9W5R","2022-05-27T00:13:57.251Z","rhyme-task_switching-phon_sim-same_different","","null","rhyme","<img src=""square.png"" width=""306"" height=""306"" style=""position: fixed;left:14%;top:30%""><img src=""square.png"" width=""306"" height=""306"" style=""position: fixed;left:64%;top:30%"">","null","","","","","","","","","","","","","","","","","","","","","","","","","","","","","","","","","","",""
"","","","","","html-keyboard-response","181","228905","0.0-6.0-2.54","A3DUPRZSMU9W5R","2022-05-27T00:13:57.251Z","rhyme-task_switching-phon_sim-same_different","","1027.5999999977648","rhyme","<div style=""border: 3px solid #000000; position: fixed;left:14%;top:30%""><img src=""visual/box.png"" width=""300""></div><div style=""border: 3px solid #000000; position: fixed;left:64%;top:30%""><img src=""visual/fox.png"" width=""300""></div>","arrowup","","true","experiment","visual/box.png","visual/fox.png","ArrowUp","ortho","","","","","","","","","","","","","","","","","","","","","","","","","","","",""
"","","","","","html-keyboard-response","182","229167","0.0-6.0-0.55","A3DUPRZSMU9W5R","2022-05-27T00:13:57.251Z","rhyme-task_switching-phon_sim-same_different","","null","rhyme","<div style=""font-size:60px;"">+</div>","null","250","","","","","","","","","","","","","","","","","","","","","","","","","","","","","","","","","",""
"","","","","","html-keyboard-response","183","229684","0.0-6.0-1.55","A3DUPRZSMU9W5R","2022-05-27T00:13:57.251Z","rhyme-task_switching-phon_sim-same_different","","null","rhyme","<img src=""square.png"" width=""306"" height=""306"" style=""position: fixed;left:14%;top:30%""><img src=""square.png"" width=""306"" height=""306"" style=""position: fixed;left:64%;top:30%"">","null","","","","","","","","","","","","","","","","","","","","","","","","","","","","","","","","","","",""
"","","","","","html-keyboard-response","184","230569","0.0-6.0-2.55","A3DUPRZSMU9W5R","2022-05-27T00:13:57.251Z","rhyme-task_switching-phon_sim-same_different","","882.5","rhyme","<div style=""border: 3px solid #000000; position: fixed;left:14%;top:30%""><img src=""visual/socks.png"" width=""300""></div><div style=""border: 3px solid #000000; position: fixed;left:64%;top:30%""><img src=""visual/fox.png"" width=""300""></div>","arrowup","","true","experiment","visual/socks.png","visual/fox.png","ArrowUp","non-ortho","","","","","","","","","","","","","","","","","","","","","","","","","","","",""
"","","","","","html-keyboard-response","185","231084","0.0-6.0-0.56","A3DUPRZSMU9W5R","2022-05-27T00:13:57.251Z","rhyme-task_switching-phon_sim-same_different","","null","rhyme","<div style=""font-size:60px;"">+</div>","null","500","","","","","","","","","","","","","","","","","","","","","","","","","","","","","","","","","",""
"","","","","","html-keyboard-response","186","231601","0.0-6.0-1.56","A3DUPRZSMU9W5R","2022-05-27T00:13:57.251Z","rhyme-task_switching-phon_sim-same_different","","null","rhyme","<img src=""square.png"" width=""306"" height=""306"" style=""position: fixed;left:14%;top:30%""><img src=""square.png"" width=""306"" height=""306"" style=""position: fixed;left:64%;top:30%"">","null","","","","","","","","","","","","","","","","","","","","","","","","","","","","","","","","","","",""
"","","","","","html-keyboard-response","187","232560","0.0-6.0-2.56","A3DUPRZSMU9W5R","2022-05-27T00:13:57.251Z","rhyme-task_switching-phon_sim-same_different","","956.8000000007451","rhyme","<div style=""border: 3px solid #000000; position: fixed;left:14%;top:30%""><img src=""visual/jar.png"" width=""300""></div><div style=""border: 3px solid #000000; position: fixed;left:64%;top:30%""><img src=""visual/whale.png"" width=""300""></div>","arrowdown","","true","experiment","visual/jar.png","visual/whale.png","ArrowDown","NR","","","","","","","","","","","","","","","","","","","","","","","","","","","",""
"","","","","","html-keyboard-response","188","232817","0.0-6.0-0.57","A3DUPRZSMU9W5R","2022-05-27T00:13:57.251Z","rhyme-task_switching-phon_sim-same_different","","null","rhyme","<div style=""font-size:60px;"">+</div>","null","250","","","","","","","","","","","","","","","","","","","","","","","","","","","","","","","","","",""
"","","","","","html-keyboard-response","189","233323","0.0-6.0-1.57","A3DUPRZSMU9W5R","2022-05-27T00:13:57.251Z","rhyme-task_switching-phon_sim-same_different","","null","rhyme","<img src=""square.png"" width=""306"" height=""306"" style=""position: fixed;left:14%;top:30%""><img src=""square.png"" width=""306"" height=""306"" style=""position: fixed;left:64%;top:30%"">","null","","","","","","","","","","","","","","","","","","","","","","","","","","","","","","","","","","",""
"","","","","","html-keyboard-response","190","234696","0.0-6.0-2.57","A3DUPRZSMU9W5R","2022-05-27T00:13:57.251Z","rhyme-task_switching-phon_sim-same_different","","1370","rhyme","<div style=""border: 3px solid #000000; position: fixed;left:14%;top:30%""><img src=""visual/rake.png"" width=""300""></div><div style=""border: 3px solid #000000; position: fixed;left:64%;top:30%""><img src=""visual/park.png"" width=""300""></div>","arrowdown","","true","experiment","visual/rake.png","visual/park.png","ArrowDown","NR","","","","","","","","","","","","","","","","","","","","","","","","","","","",""
"","","","","","html-keyboard-response","191","235453","0.0-6.0-0.58","A3DUPRZSMU9W5R","2022-05-27T00:13:57.251Z","rhyme-task_switching-phon_sim-same_different","","null","rhyme","<div style=""font-size:60px;"">+</div>","null","750","","","","","","","","","","","","","","","","","","","","","","","","","","","","","","","","","",""
"","","","","","html-keyboard-response","192","235971","0.0-6.0-1.58","A3DUPRZSMU9W5R","2022-05-27T00:13:57.251Z","rhyme-task_switching-phon_sim-same_different","","null","rhyme","<img src=""square.png"" width=""306"" height=""306"" style=""position: fixed;left:14%;top:30%""><img src=""square.png"" width=""306"" height=""306"" style=""position: fixed;left:64%;top:30%"">","null","","","","","","","","","","","","","","","","","","","","","","","","","","","","","","","","","","",""
"","","","","","html-keyboard-response","193","237257","0.0-6.0-2.58","A3DUPRZSMU9W5R","2022-05-27T00:13:57.251Z","rhyme-task_switching-phon_sim-same_different","","1284","rhyme","<div style=""border: 3px solid #000000; position: fixed;left:14%;top:30%""><img src=""visual/bear.png"" width=""300""></div><div style=""border: 3px solid #000000; position: fixed;left:64%;top:30%""><img src=""visual/crane.png"" width=""300""></div>","arrowdown","","true","experiment","visual/bear.png","visual/crane.png","ArrowDown","NR","","","","","","","","","","","","","","","","","","","","","","","","","","","",""
"","","","","","html-keyboard-response","194","238269","0.0-6.0-0.59","A3DUPRZSMU9W5R","2022-05-27T00:13:57.251Z","rhyme-task_switching-phon_sim-same_different","","null","rhyme","<div style=""font-size:60px;"">+</div>","null","1000","","","","","","","","","","","","","","","","","","","","","","","","","","","","","","","","","",""
"","","","","","html-keyboard-response","195","238786","0.0-6.0-1.59","A3DUPRZSMU9W5R","2022-05-27T00:13:57.251Z","rhyme-task_switching-phon_sim-same_different","","null","rhyme","<img src=""square.png"" width=""306"" height=""306"" style=""position: fixed;left:14%;top:30%""><img src=""square.png"" width=""306"" height=""306"" style=""position: fixed;left:64%;top:30%"">","null","","","","","","","","","","","","","","","","","","","","","","","","","","","","","","","","","","",""
"","","","","","html-keyboard-response","196","240161","0.0-6.0-2.59","A3DUPRZSMU9W5R","2022-05-27T00:13:57.251Z","rhyme-task_switching-phon_sim-same_different","","1372.699999999255","rhyme","<div style=""border: 3px solid #000000; position: fixed;left:14%;top:30%""><img src=""visual/sock.png"" width=""300""></div><div style=""border: 3px solid #000000; position: fixed;left:64%;top:30%""><img src=""visual/clock.png"" width=""300""></div>","arrowup","","true","experiment","visual/sock.png","visual/clock.png","ArrowUp","ortho","","","","","","","","","","","","","","","","","","","","","","","","","","","",""
"","","","","","survey-multi-choice","197","243880","0.0-7.0","A3DUPRZSMU9W5R","2022-05-27T00:13:57.251Z","rhyme-task_switching-phon_sim-same_different","","3715.800000000745","rhyme","","{""Q0"":""No""}","","","","","","","","[0]","No","","","","","","","","","","","","","","","","","","","","","","","","","",""
"","","","","","survey-text","198","261169","0.0-8.0","A3DUPRZSMU9W5R","2022-05-27T00:13:57.251Z","rhyme-task_switching-phon_sim-same_different","","17286","rhyme","","{""Q0"":""Some of the pictures weren't clear as to what it was mainly about. I said the words in my head""}","","","","","","","","","","Some of the pictures weren't clear as to what it was mainly about. I said the words in my head","","","","","","","","","","","","","","","","","","","","","","","","",""
"","","","","","instructions","199","262137","0.0-9.0","A3DUPRZSMU9W5R","2022-05-27T00:13:57.251Z","rhyme-task_switching-phon_sim-same_different","[{""page_index"":0,""viewing_time"":967}]","967.1999999992549","rhyme","","","","","","","","","","","","","","","","","","","","","","","","","","","","","","","","","","","","",""
"","","","","","instructions","200","268713","0.0-10.0","A3DUPRZSMU9W5R","2022-05-27T00:13:57.251Z","rhyme-task_switching-phon_sim-same_different","[{""page_index"":0,""viewing_time"":6575.39999999851}]","6575.5","task_switching","","","","","","","","","","","","","","","","","","","","","","","","","","","","","","","","","","","","",""
"","","","","","instructions","201","279057","0.0-11.0","A3DUPRZSMU9W5R","2022-05-27T00:13:57.251Z","rhyme-task_switching-phon_sim-same_different","[{""page_index"":0,""viewing_time"":10343.300000000745}]","10343.60000000149","task_switching","","","","","","","","","","","","","","","","","","","","","","","","","","","","","","","","","","","","",""
"","","","","","survey-text","202","280938","0.0-12.0","A3DUPRZSMU9W5R","2022-05-27T00:13:57.251Z","rhyme-task_switching-phon_sim-same_different","","1878.5","task_switching","48","{""addition_ans"":""51""}","","true","training","","","","","","","","addition","51","add","","","","","","","","","","","","","","","","","","","","","",""
"","","","","","html-keyboard-response","203","281951","0.0-13.0","A3DUPRZSMU9W5R","2022-05-27T00:13:57.251Z","rhyme-task_switching-phon_sim-same_different","","null","task_switching","<div style=""color:darkgreen; font-size:60px"">Well done!</div>","null","","","training","","","","","","","","addition","","","","","","","","","","","","","","","","","","","","","","","",""
"","","","","","survey-text","204","283794","0.0-14.0","A3DUPRZSMU9W5R","2022-05-27T00:13:57.251Z","rhyme-task_switching-phon_sim-same_different","","1837.6000000014901","task_switching","64","{""addition_ans"":""67""}","","true","training","","","","","","","","addition","67","add","","","","","","","","","","","","","","","","","","","","","",""
"","","","","","html-keyboard-response","205","284802","0.0-15.0","A3DUPRZSMU9W5R","2022-05-27T00:13:57.251Z","rhyme-task_switching-phon_sim-same_different","","null","task_switching","<div style=""color:darkgreen; font-size:60px"">Well done!</div>","null","","","training","","","","","","","","addition","","","","","","","","","","","","","","","","","","","","","","","",""
"","","","","","survey-text","206","286129","0.0-16.0","A3DUPRZSMU9W5R","2022-05-27T00:13:57.251Z","rhyme-task_switching-phon_sim-same_different","","1323.6000000014901","task_switching","88","{""addition_ans"":""91""}","","true","training","","","","","","","","addition","91","add","","","","","","","","","","","","","","","","","","","","","",""
"","","","","","html-keyboard-response","207","287138","0.0-17.0","A3DUPRZSMU9W5R","2022-05-27T00:13:57.251Z","rhyme-task_switching-phon_sim-same_different","","null","task_switching","<div style=""color:darkgreen; font-size:60px"">Well done!</div>","null","","","training","","","","","","","","addition","","","","","","","","","","","","","","","","","","","","","","","",""
"","","","","","survey-text","208","288385","0.0-18.0","A3DUPRZSMU9W5R","2022-05-27T00:13:57.251Z","rhyme-task_switching-phon_sim-same_different","","1242.5999999977648","task_switching","54","{""addition_ans"":""57""}","","true","training","","","","","","","","addition","57","add","","","","","","","","","","","","","","","","","","","","","",""
"","","","","","html-keyboard-response","209","289388","0.0-19.0","A3DUPRZSMU9W5R","2022-05-27T00:13:57.251Z","rhyme-task_switching-phon_sim-same_different","","null","task_switching","<div style=""color:darkgreen; font-size:60px"">Well done!</div>","null","","","training","","","","","","","","addition","","","","","","","","","","","","","","","","","","","","","","","",""
"","","","","","survey-text","210","290530","0.0-20.0","A3DUPRZSMU9W5R","2022-05-27T00:13:57.251Z","rhyme-task_switching-phon_sim-same_different","","1136.199999999255","task_switching","12","{""addition_ans"":""15""}","","true","training","","","","","","","","addition","15","add","","","","","","","","","","","","","","","","","","","","","",""
"","","","","","html-keyboard-response","211","291538","0.0-21.0","A3DUPRZSMU9W5R","2022-05-27T00:13:57.251Z","rhyme-task_switching-phon_sim-same_different","","null","task_switching","<div style=""color:darkgreen; font-size:60px"">Well done!</div>","null","","","training","","","","","","","","addition","","","","","","","","","","","","","","","","","","","","","","","",""
"","","","","","survey-text","212","293258","0.0-22.0","A3DUPRZSMU9W5R","2022-05-27T00:13:57.251Z","rhyme-task_switching-phon_sim-same_different","","1716.0999999977648","task_switching","86","{""addition_ans"":""89""}","","true","training","","","","","","","","addition","89","add","","","","","","","","","","","","","","","","","","","","","",""
