"success","timeout","failed_images","failed_audio","failed_video","trial_type","trial_index","time_elapsed","internal_node_id","worker_id","start_time","experiment_order","view_history","rt","experiment","stimulus","response","wait_time","correct","phase","image_1","image_2","cor_key","type","question_order","talk_out_loud","strategy_free_ans","judgment_type","stim_1","stim_2","inverted","answer","true_neg","true_pos","false_pos","false_neg","condition","operation","color_cue","trial_no","symbol_cue","word_1","word_2","word_3","word_4","word_5","original_word_set","response_1","response_2","response_3","response_4","response_5"
"true","false","[]","[]","[]","preload","0","4291","0.0-0.0","A26RO8GGTQAXGG","2022-05-23T17:52:31.226Z","rhyme-same_different-task_switching-phon_sim","","","","","","","","","","","","","","","","","","","","","","","","","","","","","","","","","","","","","","","",""
"","","","","","instructions","1","20246","0.0-1.0","A26RO8GGTQAXGG","2022-05-23T17:52:31.226Z","rhyme-same_different-task_switching-phon_sim","[{""page_index"":0,""viewing_time"":15953.399999976158}]","15953.700000047684","","","","","","","","","","","","","","","","","","","","","","","","","","","","","","","","","","","","","",""
"true","","","","","fullscreen","2","26312","0.0-2.0","A26RO8GGTQAXGG","2022-05-23T17:52:31.226Z","rhyme-same_different-task_switching-phon_sim","","","","","","","","","","","","","","","","","","","","","","","","","","","","","","","","","","","","","","","",""
"","","","","","instructions","3","127958","0.0-3.0","A26RO8GGTQAXGG","2022-05-23T17:52:31.226Z","rhyme-same_different-task_switching-phon_sim","[{""page_index"":0,""viewing_time"":101645.70000004768}]","101645.79999995232","rhyme","","","","","","","","","","","","","","","","","","","","","","","","","","","","","","","","","","","","",""
"","","","","","html-keyboard-response","4","128969","0.0-4.0-0.0","A26RO8GGTQAXGG","2022-05-23T17:52:31.226Z","rhyme-same_different-task_switching-phon_sim","","null","rhyme","<div style=""font-size:60px;"">+</div>","null","1000","","","","","","","","","","","","","","","","","","","","","","","","","","","","","","","","","",""
"","","","","","html-keyboard-response","5","129479","0.0-4.0-1.0","A26RO8GGTQAXGG","2022-05-23T17:52:31.226Z","rhyme-same_different-task_switching-phon_sim","","null","rhyme","<img src=""square.png"" width=""306"" height=""306"" style=""position: fixed;left:14%;top:30%""><img src=""square.png"" width=""306"" height=""306"" style=""position: fixed;left:64%;top:30%"">","null","","","","","","","","","","","","","","","","","","","","","","","","","","","","","","","","","","",""
"","","","","","categorize-html","6","134440","0.0-4.0-2.0","A26RO8GGTQAXGG","2022-05-23T17:52:31.226Z","rhyme-same_different-task_switching-phon_sim","","3946.2999999523163","rhyme","<div style=""border: 3px solid #000000; position: fixed;left:14%;top:30%""><img src=""visual/chess.png"" width=""300""></div><div style=""border: 3px solid #000000; position: fixed;left:64%;top:30%""><img src=""visual/suit.png"" width=""300""></div>","arrowdown","","true","training","visual/chess.png","visual/suit.png","ArrowDown","NA","","","","","","","","","","","","","","","","","","","","","","","","","","","",""
"","","","","","html-keyboard-response","7","135447","0.0-4.0-0.1","A26RO8GGTQAXGG","2022-05-23T17:52:31.226Z","rhyme-same_different-task_switching-phon_sim","","null","rhyme","<div style=""font-size:60px;"">+</div>","null","1000","","","","","","","","","","","","","","","","","","","","","","","","","","","","","","","","","",""
"","","","","","html-keyboard-response","8","135957","0.0-4.0-1.1","A26RO8GGTQAXGG","2022-05-23T17:52:31.226Z","rhyme-same_different-task_switching-phon_sim","","null","rhyme","<img src=""square.png"" width=""306"" height=""306"" style=""position: fixed;left:14%;top:30%""><img src=""square.png"" width=""306"" height=""306"" style=""position: fixed;left:64%;top:30%"">","null","","","","","","","","","","","","","","","","","","","","","","","","","","","","","","","","","","",""
"","","","","","categorize-html","9","138608","0.0-4.0-2.1","A26RO8GGTQAXGG","2022-05-23T17:52:31.226Z","rhyme-same_different-task_switching-phon_sim","","1635","rhyme","<div style=""border: 3px solid #000000; position: fixed;left:14%;top:30%""><img src=""visual/house.png"" width=""300""></div><div style=""border: 3px solid #000000; position: fixed;left:64%;top:30%""><img src=""visual/mouse.png"" width=""300""></div>","arrowup","","true","training","visual/house.png","visual/mouse.png","ArrowUp","NA","","","","","","","","","","","","","","","","","","","","","","","","","","","",""
"","","","","","html-keyboard-response","10","139116","0.0-4.0-0.2","A26RO8GGTQAXGG","2022-05-23T17:52:31.226Z","rhyme-same_different-task_switching-phon_sim","","null","rhyme","<div style=""font-size:60px;"">+</div>","null","500","","","","","","","","","","","","","","","","","","","","","","","","","","","","","","","","","",""
"","","","","","html-keyboard-response","11","139629","0.0-4.0-1.2","A26RO8GGTQAXGG","2022-05-23T17:52:31.226Z","rhyme-same_different-task_switching-phon_sim","","null","rhyme","<img src=""square.png"" width=""306"" height=""306"" style=""position: fixed;left:14%;top:30%""><img src=""square.png"" width=""306"" height=""306"" style=""position: fixed;left:64%;top:30%"">","null","","","","","","","","","","","","","","","","","","","","","","","","","","","","","","","","","","",""
"","","","","","categorize-html","12","141954","0.0-4.0-2.2","A26RO8GGTQAXGG","2022-05-23T17:52:31.226Z","rhyme-same_different-task_switching-phon_sim","","1312.6000000238419","rhyme","<div style=""border: 3px solid #000000; position: fixed;left:14%;top:30%""><img src=""visual/mouse.png"" width=""300""></div><div style=""border: 3px solid #000000; position: fixed;left:64%;top:30%""><img src=""visual/dress.png"" width=""300""></div>","arrowdown","","true","training","visual/mouse.png","visual/dress.png","ArrowDown","NA","","","","","","","","","","","","","","","","","","","","","","","","","","","",""
"","","","","","html-keyboard-response","13","142967","0.0-4.0-0.3","A26RO8GGTQAXGG","2022-05-23T17:52:31.226Z","rhyme-same_different-task_switching-phon_sim","","null","rhyme","<div style=""font-size:60px;"">+</div>","null","1000","","","","","","","","","","","","","","","","","","","","","","","","","","","","","","","","","",""
"","","","","","html-keyboard-response","14","143481","0.0-4.0-1.3","A26RO8GGTQAXGG","2022-05-23T17:52:31.226Z","rhyme-same_different-task_switching-phon_sim","","null","rhyme","<img src=""square.png"" width=""306"" height=""306"" style=""position: fixed;left:14%;top:30%""><img src=""square.png"" width=""306"" height=""306"" style=""position: fixed;left:64%;top:30%"">","null","","","","","","","","","","","","","","","","","","","","","","","","","","","","","","","","","","",""
"","","","","","categorize-html","15","146647","0.0-4.0-2.3","A26RO8GGTQAXGG","2022-05-23T17:52:31.226Z","rhyme-same_different-task_switching-phon_sim","","2162.600000023842","rhyme","<div style=""border: 3px solid #000000; position: fixed;left:14%;top:30%""><img src=""visual/dress.png"" width=""300""></div><div style=""border: 3px solid #000000; position: fixed;left:64%;top:30%""><img src=""visual/chess.png"" width=""300""></div>","arrowup","","true","training","visual/dress.png","visual/chess.png","ArrowUp","NA","","","","","","","","","","","","","","","","","","","","","","","","","","","",""
"","","","","","instructions","16","149781","0.0-5.0","A26RO8GGTQAXGG","2022-05-23T17:52:31.226Z","rhyme-same_different-task_switching-phon_sim","[{""page_index"":0,""viewing_time"":3133.600000023842}]","3133.7999999523163","","","","","","","","","","","","","","","","","","","","","","","","","","","","","","","","","","","","","",""
"","","","","","html-keyboard-response","17","150044","0.0-6.0-0.0","A26RO8GGTQAXGG","2022-05-23T17:52:31.226Z","rhyme-same_different-task_switching-phon_sim","","null","rhyme","<div style=""font-size:60px;"">+</div>","null","250","","","","","","","","","","","","","","","","","","","","","","","","","","","","","","","","","",""
"","","","","","html-keyboard-response","18","150556","0.0-6.0-1.0","A26RO8GGTQAXGG","2022-05-23T17:52:31.226Z","rhyme-same_different-task_switching-phon_sim","","null","rhyme","<img src=""square.png"" width=""306"" height=""306"" style=""position: fixed;left:14%;top:30%""><img src=""square.png"" width=""306"" height=""306"" style=""position: fixed;left:64%;top:30%"">","null","","","","","","","","","","","","","","","","","","","","","","","","","","","","","","","","","","",""
"","","","","","html-keyboard-response","19","152751","0.0-6.0-2.0","A26RO8GGTQAXGG","2022-05-23T17:52:31.226Z","rhyme-same_different-task_switching-phon_sim","","2192.4000000953674","rhyme","<div style=""border: 3px solid #000000; position: fixed;left:14%;top:30%""><img src=""visual/claw.png"" width=""300""></div><div style=""border: 3px solid #000000; position: fixed;left:64%;top:30%""><img src=""visual/beer.png"" width=""300""></div>","arrowdown","","true","experiment","visual/claw.png","visual/beer.png","ArrowDown","NR","","","","","","","","","","","","","","","","","","","","","","","","","","","",""
"","","","","","html-keyboard-response","20","153517","0.0-6.0-0.1","A26RO8GGTQAXGG","2022-05-23T17:52:31.226Z","rhyme-same_different-task_switching-phon_sim","","null","rhyme","<div style=""font-size:60px;"">+</div>","null","750","","","","","","","","","","","","","","","","","","","","","","","","","","","","","","","","","",""
"","","","","","html-keyboard-response","21","154033","0.0-6.0-1.1","A26RO8GGTQAXGG","2022-05-23T17:52:31.226Z","rhyme-same_different-task_switching-phon_sim","","null","rhyme","<img src=""square.png"" width=""306"" height=""306"" style=""position: fixed;left:14%;top:30%""><img src=""square.png"" width=""306"" height=""306"" style=""position: fixed;left:64%;top:30%"">","null","","","","","","","","","","","","","","","","","","","","","","","","","","","","","","","","","","",""
"","","","","","html-keyboard-response","22","155318","0.0-6.0-2.1","A26RO8GGTQAXGG","2022-05-23T17:52:31.226Z","rhyme-same_different-task_switching-phon_sim","","1283.6000000238419","rhyme","<div style=""border: 3px solid #000000; position: fixed;left:14%;top:30%""><img src=""visual/plane.png"" width=""300""></div><div style=""border: 3px solid #000000; position: fixed;left:64%;top:30%""><img src=""visual/train.png"" width=""300""></div>","arrowup","","true","experiment","visual/plane.png","visual/train.png","ArrowUp","non-ortho","","","","","","","","","","","","","","","","","","","","","","","","","","","",""
"","","","","","html-keyboard-response","23","155819","0.0-6.0-0.2","A26RO8GGTQAXGG","2022-05-23T17:52:31.226Z","rhyme-same_different-task_switching-phon_sim","","null","rhyme","<div style=""font-size:60px;"">+</div>","null","500","","","","","","","","","","","","","","","","","","","","","","","","","","","","","","","","","",""
"","","","","","html-keyboard-response","24","156331","0.0-6.0-1.2","A26RO8GGTQAXGG","2022-05-23T17:52:31.226Z","rhyme-same_different-task_switching-phon_sim","","null","rhyme","<img src=""square.png"" width=""306"" height=""306"" style=""position: fixed;left:14%;top:30%""><img src=""square.png"" width=""306"" height=""306"" style=""position: fixed;left:64%;top:30%"">","null","","","","","","","","","","","","","","","","","","","","","","","","","","","","","","","","","","",""
"","","","","","html-keyboard-response","25","157829","0.0-6.0-2.2","A26RO8GGTQAXGG","2022-05-23T17:52:31.226Z","rhyme-same_different-task_switching-phon_sim","","1497","rhyme","<div style=""border: 3px solid #000000; position: fixed;left:14%;top:30%""><img src=""visual/nose.png"" width=""300""></div><div style=""border: 3px solid #000000; position: fixed;left:64%;top:30%""><img src=""visual/bell.png"" width=""300""></div>","arrowdown","","true","experiment","visual/nose.png","visual/bell.png","ArrowDown","NR","","","","","","","","","","","","","","","","","","","","","","","","","","","",""
"","","","","","html-keyboard-response","26","158586","0.0-6.0-0.3","A26RO8GGTQAXGG","2022-05-23T17:52:31.226Z","rhyme-same_different-task_switching-phon_sim","","null","rhyme","<div style=""font-size:60px;"">+</div>","null","750","","","","","","","","","","","","","","","","","","","","","","","","","","","","","","","","","",""
"","","","","","html-keyboard-response","27","159100","0.0-6.0-1.3","A26RO8GGTQAXGG","2022-05-23T17:52:31.226Z","rhyme-same_different-task_switching-phon_sim","","null","rhyme","<img src=""square.png"" width=""306"" height=""306"" style=""position: fixed;left:14%;top:30%""><img src=""square.png"" width=""306"" height=""306"" style=""position: fixed;left:64%;top:30%"">","null","","","","","","","","","","","","","","","","","","","","","","","","","","","","","","","","","","",""
"","","","","","html-keyboard-response","28","161391","0.0-6.0-2.3","A26RO8GGTQAXGG","2022-05-23T17:52:31.226Z","rhyme-same_different-task_switching-phon_sim","","2289.5","rhyme","<div style=""border: 3px solid #000000; position: fixed;left:14%;top:30%""><img src=""visual/pear.png"" width=""300""></div><div style=""border: 3px solid #000000; position: fixed;left:64%;top:30%""><img src=""visual/rope.png"" width=""300""></div>","arrowdown","","true","experiment","visual/pear.png","visual/rope.png","ArrowDown","NR","","","","","","","","","","","","","","","","","","","","","","","","","","","",""
"","","","","","html-keyboard-response","29","162404","0.0-6.0-0.4","A26RO8GGTQAXGG","2022-05-23T17:52:31.226Z","rhyme-same_different-task_switching-phon_sim","","null","rhyme","<div style=""font-size:60px;"">+</div>","null","1000","","","","","","","","","","","","","","","","","","","","","","","","","","","","","","","","","",""
"","","","","","html-keyboard-response","30","162915","0.0-6.0-1.4","A26RO8GGTQAXGG","2022-05-23T17:52:31.226Z","rhyme-same_different-task_switching-phon_sim","","null","rhyme","<img src=""square.png"" width=""306"" height=""306"" style=""position: fixed;left:14%;top:30%""><img src=""square.png"" width=""306"" height=""306"" style=""position: fixed;left:64%;top:30%"">","null","","","","","","","","","","","","","","","","","","","","","","","","","","","","","","","","","","",""
"","","","","","html-keyboard-response","31","165487","0.0-6.0-2.4","A26RO8GGTQAXGG","2022-05-23T17:52:31.226Z","rhyme-same_different-task_switching-phon_sim","","2571.5","rhyme","<div style=""border: 3px solid #000000; position: fixed;left:14%;top:30%""><img src=""visual/bear.png"" width=""300""></div><div style=""border: 3px solid #000000; position: fixed;left:64%;top:30%""><img src=""visual/crane.png"" width=""300""></div>","arrowdown","","true","experiment","visual/bear.png","visual/crane.png","ArrowDown","NR","","","","","","","","","","","","","","","","","","","","","","","","","","","",""
"","","","","","html-keyboard-response","32","166504","0.0-6.0-0.5","A26RO8GGTQAXGG","2022-05-23T17:52:31.226Z","rhyme-same_different-task_switching-phon_sim","","null","rhyme","<div style=""font-size:60px;"">+</div>","null","1000","","","","","","","","","","","","","","","","","","","","","","","","","","","","","","","","","",""
"","","","","","html-keyboard-response","33","167015","0.0-6.0-1.5","A26RO8GGTQAXGG","2022-05-23T17:52:31.226Z","rhyme-same_different-task_switching-phon_sim","","null","rhyme","<img src=""square.png"" width=""306"" height=""306"" style=""position: fixed;left:14%;top:30%""><img src=""square.png"" width=""306"" height=""306"" style=""position: fixed;left:64%;top:30%"">","null","","","","","","","","","","","","","","","","","","","","","","","","","","","","","","","","","","",""
"","","","","","html-keyboard-response","34","169277","0.0-6.0-2.5","A26RO8GGTQAXGG","2022-05-23T17:52:31.226Z","rhyme-same_different-task_switching-phon_sim","","2261.399999976158","rhyme","<div style=""border: 3px solid #000000; position: fixed;left:14%;top:30%""><img src=""visual/wave.png"" width=""300""></div><div style=""border: 3px solid #000000; position: fixed;left:64%;top:30%""><img src=""visual/cave.png"" width=""300""></div>","arrowup","","true","experiment","visual/wave.png","visual/cave.png","ArrowUp","ortho","","","","","","","","","","","","","","","","","","","","","","","","","","","",""
"","","","","","html-keyboard-response","35","169554","0.0-6.0-0.6","A26RO8GGTQAXGG","2022-05-23T17:52:31.226Z","rhyme-same_different-task_switching-phon_sim","","null","rhyme","<div style=""font-size:60px;"">+</div>","null","250","","","","","","","","","","","","","","","","","","","","","","","","","","","","","","","","","",""
"","","","","","html-keyboard-response","36","170055","0.0-6.0-1.6","A26RO8GGTQAXGG","2022-05-23T17:52:31.226Z","rhyme-same_different-task_switching-phon_sim","","null","rhyme","<img src=""square.png"" width=""306"" height=""306"" style=""position: fixed;left:14%;top:30%""><img src=""square.png"" width=""306"" height=""306"" style=""position: fixed;left:64%;top:30%"">","null","","","","","","","","","","","","","","","","","","","","","","","","","","","","","","","","","","",""
"","","","","","html-keyboard-response","37","171791","0.0-6.0-2.6","A26RO8GGTQAXGG","2022-05-23T17:52:31.226Z","rhyme-same_different-task_switching-phon_sim","","1733.9000000953674","rhyme","<div style=""border: 3px solid #000000; position: fixed;left:14%;top:30%""><img src=""visual/train.png"" width=""300""></div><div style=""border: 3px solid #000000; position: fixed;left:64%;top:30%""><img src=""visual/crane.png"" width=""300""></div>","arrowdown","","false","experiment","visual/train.png","visual/crane.png","ArrowUp","non-ortho","","","","","","","","","","","","","","","","","","","","","","","","","","","",""
"","","","","","html-keyboard-response","38","172294","0.0-6.0-0.7","A26RO8GGTQAXGG","2022-05-23T17:52:31.226Z","rhyme-same_different-task_switching-phon_sim","","null","rhyme","<div style=""font-size:60px;"">+</div>","null","500","","","","","","","","","","","","","","","","","","","","","","","","","","","","","","","","","",""
"","","","","","html-keyboard-response","39","172806","0.0-6.0-1.7","A26RO8GGTQAXGG","2022-05-23T17:52:31.226Z","rhyme-same_different-task_switching-phon_sim","","null","rhyme","<img src=""square.png"" width=""306"" height=""306"" style=""position: fixed;left:14%;top:30%""><img src=""square.png"" width=""306"" height=""306"" style=""position: fixed;left:64%;top:30%"">","null","","","","","","","","","","","","","","","","","","","","","","","","","","","","","","","","","","",""
"","","","","","html-keyboard-response","40","174741","0.0-6.0-2.7","A26RO8GGTQAXGG","2022-05-23T17:52:31.226Z","rhyme-same_different-task_switching-phon_sim","","1934.8000000715256","rhyme","<div style=""border: 3px solid #000000; position: fixed;left:14%;top:30%""><img src=""visual/snail.png"" width=""300""></div><div style=""border: 3px solid #000000; position: fixed;left:64%;top:30%""><img src=""visual/whale.png"" width=""300""></div>","arrowup","","true","experiment","visual/snail.png","visual/whale.png","ArrowUp","non-ortho","","","","","","","","","","","","","","","","","","","","","","","","","","","",""
"","","","","","html-keyboard-response","41","175753","0.0-6.0-0.8","A26RO8GGTQAXGG","2022-05-23T17:52:31.226Z","rhyme-same_different-task_switching-phon_sim","","null","rhyme","<div style=""font-size:60px;"">+</div>","null","1000","","","","","","","","","","","","","","","","","","","","","","","","","","","","","","","","","",""
"","","","","","html-keyboard-response","42","176265","0.0-6.0-1.8","A26RO8GGTQAXGG","2022-05-23T17:52:31.226Z","rhyme-same_different-task_switching-phon_sim","","null","rhyme","<img src=""square.png"" width=""306"" height=""306"" style=""position: fixed;left:14%;top:30%""><img src=""square.png"" width=""306"" height=""306"" style=""position: fixed;left:64%;top:30%"">","null","","","","","","","","","","","","","","","","","","","","","","","","","","","","","","","","","","",""
"","","","","","html-keyboard-response","43","177702","0.0-6.0-2.8","A26RO8GGTQAXGG","2022-05-23T17:52:31.226Z","rhyme-same_different-task_switching-phon_sim","","1435.1999999284744","rhyme","<div style=""border: 3px solid #000000; position: fixed;left:14%;top:30%""><img src=""visual/chair.png"" width=""300""></div><div style=""border: 3px solid #000000; position: fixed;left:64%;top:30%""><img src=""visual/pear.png"" width=""300""></div>","arrowup","","true","experiment","visual/chair.png","visual/pear.png","ArrowUp","non-ortho","","","","","","","","","","","","","","","","","","","","","","","","","","","",""
"","","","","","html-keyboard-response","44","178204","0.0-6.0-0.9","A26RO8GGTQAXGG","2022-05-23T17:52:31.226Z","rhyme-same_different-task_switching-phon_sim","","null","rhyme","<div style=""font-size:60px;"">+</div>","null","500","","","","","","","","","","","","","","","","","","","","","","","","","","","","","","","","","",""
"","","","","","html-keyboard-response","45","178719","0.0-6.0-1.9","A26RO8GGTQAXGG","2022-05-23T17:52:31.226Z","rhyme-same_different-task_switching-phon_sim","","null","rhyme","<img src=""square.png"" width=""306"" height=""306"" style=""position: fixed;left:14%;top:30%""><img src=""square.png"" width=""306"" height=""306"" style=""position: fixed;left:64%;top:30%"">","null","","","","","","","","","","","","","","","","","","","","","","","","","","","","","","","","","","",""
"","","","","","html-keyboard-response","46","180454","0.0-6.0-2.9","A26RO8GGTQAXGG","2022-05-23T17:52:31.226Z","rhyme-same_different-task_switching-phon_sim","","1733","rhyme","<div style=""border: 3px solid #000000; position: fixed;left:14%;top:30%""><img src=""visual/egg.png"" width=""300""></div><div style=""border: 3px solid #000000; position: fixed;left:64%;top:30%""><img src=""visual/leg.png"" width=""300""></div>","arrowup","","true","experiment","visual/egg.png","visual/leg.png","ArrowUp","ortho","","","","","","","","","","","","","","","","","","","","","","","","","","","",""
"","","","","","html-keyboard-response","47","181208","0.0-6.0-0.10","A26RO8GGTQAXGG","2022-05-23T17:52:31.226Z","rhyme-same_different-task_switching-phon_sim","","null","rhyme","<div style=""font-size:60px;"">+</div>","null","750","","","","","","","","","","","","","","","","","","","","","","","","","","","","","","","","","",""
"","","","","","html-keyboard-response","48","181722","0.0-6.0-1.10","A26RO8GGTQAXGG","2022-05-23T17:52:31.226Z","rhyme-same_different-task_switching-phon_sim","","null","rhyme","<img src=""square.png"" width=""306"" height=""306"" style=""position: fixed;left:14%;top:30%""><img src=""square.png"" width=""306"" height=""306"" style=""position: fixed;left:64%;top:30%"">","null","","","","","","","","","","","","","","","","","","","","","","","","","","","","","","","","","","",""
"","","","","","html-keyboard-response","49","185901","0.0-6.0-2.10","A26RO8GGTQAXGG","2022-05-23T17:52:31.226Z","rhyme-same_different-task_switching-phon_sim","","4178.600000023842","rhyme","<div style=""border: 3px solid #000000; position: fixed;left:14%;top:30%""><img src=""visual/cake.png"" width=""300""></div><div style=""border: 3px solid #000000; position: fixed;left:64%;top:30%""><img src=""visual/rake.png"" width=""300""></div>","arrowup","","true","experiment","visual/cake.png","visual/rake.png","ArrowUp","ortho","","","","","","","","","","","","","","","","","","","","","","","","","","","",""
"","","","","","html-keyboard-response","50","186406","0.0-6.0-0.11","A26RO8GGTQAXGG","2022-05-23T17:52:31.226Z","rhyme-same_different-task_switching-phon_sim","","null","rhyme","<div style=""font-size:60px;"">+</div>","null","500","","","","","","","","","","","","","","","","","","","","","","","","","","","","","","","","","",""
"","","","","","html-keyboard-response","51","186917","0.0-6.0-1.11","A26RO8GGTQAXGG","2022-05-23T17:52:31.226Z","rhyme-same_different-task_switching-phon_sim","","null","rhyme","<img src=""square.png"" width=""306"" height=""306"" style=""position: fixed;left:14%;top:30%""><img src=""square.png"" width=""306"" height=""306"" style=""position: fixed;left:64%;top:30%"">","null","","","","","","","","","","","","","","","","","","","","","","","","","","","","","","","","","","",""
"","","","","","html-keyboard-response","52","189160","0.0-6.0-2.11","A26RO8GGTQAXGG","2022-05-23T17:52:31.226Z","rhyme-same_different-task_switching-phon_sim","","2241","rhyme","<div style=""border: 3px solid #000000; position: fixed;left:14%;top:30%""><img src=""visual/fan.png"" width=""300""></div><div style=""border: 3px solid #000000; position: fixed;left:64%;top:30%""><img src=""visual/man.png"" width=""300""></div>","arrowdown","","false","experiment","visual/fan.png","visual/man.png","ArrowUp","ortho","","","","","","","","","","","","","","","","","","","","","","","","","","","",""
"","","","","","html-keyboard-response","53","190175","0.0-6.0-0.12","A26RO8GGTQAXGG","2022-05-23T17:52:31.226Z","rhyme-same_different-task_switching-phon_sim","","null","rhyme","<div style=""font-size:60px;"">+</div>","null","1000","","","","","","","","","","","","","","","","","","","","","","","","","","","","","","","","","",""
"","","","","","html-keyboard-response","54","190687","0.0-6.0-1.12","A26RO8GGTQAXGG","2022-05-23T17:52:31.226Z","rhyme-same_different-task_switching-phon_sim","","null","rhyme","<img src=""square.png"" width=""306"" height=""306"" style=""position: fixed;left:14%;top:30%""><img src=""square.png"" width=""306"" height=""306"" style=""position: fixed;left:64%;top:30%"">","null","","","","","","","","","","","","","","","","","","","","","","","","","","","","","","","","","","",""
"","","","","","html-keyboard-response","55","192647","0.0-6.0-2.12","A26RO8GGTQAXGG","2022-05-23T17:52:31.226Z","rhyme-same_different-task_switching-phon_sim","","1958","rhyme","<div style=""border: 3px solid #000000; position: fixed;left:14%;top:30%""><img src=""visual/saw.png"" width=""300""></div><div style=""border: 3px solid #000000; position: fixed;left:64%;top:30%""><img src=""visual/claw.png"" width=""300""></div>","arrowup","","true","experiment","visual/saw.png","visual/claw.png","ArrowUp","ortho","","","","","","","","","","","","","","","","","","","","","","","","","","","",""
"","","","","","html-keyboard-response","56","193161","0.0-6.0-0.13","A26RO8GGTQAXGG","2022-05-23T17:52:31.226Z","rhyme-same_different-task_switching-phon_sim","","null","rhyme","<div style=""font-size:60px;"">+</div>","null","500","","","","","","","","","","","","","","","","","","","","","","","","","","","","","","","","","",""
"","","","","","html-keyboard-response","57","193674","0.0-6.0-1.13","A26RO8GGTQAXGG","2022-05-23T17:52:31.226Z","rhyme-same_different-task_switching-phon_sim","","null","rhyme","<img src=""square.png"" width=""306"" height=""306"" style=""position: fixed;left:14%;top:30%""><img src=""square.png"" width=""306"" height=""306"" style=""position: fixed;left:64%;top:30%"">","null","","","","","","","","","","","","","","","","","","","","","","","","","","","","","","","","","","",""
"","","","","","html-keyboard-response","58","195310","0.0-6.0-2.13","A26RO8GGTQAXGG","2022-05-23T17:52:31.226Z","rhyme-same_different-task_switching-phon_sim","","1634.6999999284744","rhyme","<div style=""border: 3px solid #000000; position: fixed;left:14%;top:30%""><img src=""visual/drawer.png"" width=""300""></div><div style=""border: 3px solid #000000; position: fixed;left:64%;top:30%""><img src=""visual/chair.png"" width=""300""></div>","arrowdown","","true","experiment","visual/drawer.png","visual/chair.png","ArrowDown","NR","","","","","","","","","","","","","","","","","","","","","","","","","","","",""
"","","","","","html-keyboard-response","59","195817","0.0-6.0-0.14","A26RO8GGTQAXGG","2022-05-23T17:52:31.226Z","rhyme-same_different-task_switching-phon_sim","","null","rhyme","<div style=""font-size:60px;"">+</div>","null","500","","","","","","","","","","","","","","","","","","","","","","","","","","","","","","","","","",""
"","","","","","html-keyboard-response","60","196329","0.0-6.0-1.14","A26RO8GGTQAXGG","2022-05-23T17:52:31.226Z","rhyme-same_different-task_switching-phon_sim","","null","rhyme","<img src=""square.png"" width=""306"" height=""306"" style=""position: fixed;left:14%;top:30%""><img src=""square.png"" width=""306"" height=""306"" style=""position: fixed;left:64%;top:30%"">","null","","","","","","","","","","","","","","","","","","","","","","","","","","","","","","","","","","",""
"","","","","","html-keyboard-response","61","198303","0.0-6.0-2.14","A26RO8GGTQAXGG","2022-05-23T17:52:31.226Z","rhyme-same_different-task_switching-phon_sim","","1972.3999999761581","rhyme","<div style=""border: 3px solid #000000; position: fixed;left:14%;top:30%""><img src=""visual/cat.png"" width=""300""></div><div style=""border: 3px solid #000000; position: fixed;left:64%;top:30%""><img src=""visual/sock.png"" width=""300""></div>","arrowdown","","true","experiment","visual/cat.png","visual/sock.png","ArrowDown","NR","","","","","","","","","","","","","","","","","","","","","","","","","","","",""
"","","","","","html-keyboard-response","62","199065","0.0-6.0-0.15","A26RO8GGTQAXGG","2022-05-23T17:52:31.226Z","rhyme-same_different-task_switching-phon_sim","","null","rhyme","<div style=""font-size:60px;"">+</div>","null","750","","","","","","","","","","","","","","","","","","","","","","","","","","","","","","","","","",""
"","","","","","html-keyboard-response","63","199579","0.0-6.0-1.15","A26RO8GGTQAXGG","2022-05-23T17:52:31.226Z","rhyme-same_different-task_switching-phon_sim","","null","rhyme","<img src=""square.png"" width=""306"" height=""306"" style=""position: fixed;left:14%;top:30%""><img src=""square.png"" width=""306"" height=""306"" style=""position: fixed;left:64%;top:30%"">","null","","","","","","","","","","","","","","","","","","","","","","","","","","","","","","","","","","",""
"","","","","","html-keyboard-response","64","201334","0.0-6.0-2.15","A26RO8GGTQAXGG","2022-05-23T17:52:31.226Z","rhyme-same_different-task_switching-phon_sim","","1754.2999999523163","rhyme","<div style=""border: 3px solid #000000; position: fixed;left:14%;top:30%""><img src=""visual/bone.png"" width=""300""></div><div style=""border: 3px solid #000000; position: fixed;left:64%;top:30%""><img src=""visual/cone.png"" width=""300""></div>","arrowup","","true","experiment","visual/bone.png","visual/cone.png","ArrowUp","ortho","","","","","","","","","","","","","","","","","","","","","","","","","","","",""
"","","","","","html-keyboard-response","65","202098","0.0-6.0-0.16","A26RO8GGTQAXGG","2022-05-23T17:52:31.226Z","rhyme-same_different-task_switching-phon_sim","","null","rhyme","<div style=""font-size:60px;"">+</div>","null","750","","","","","","","","","","","","","","","","","","","","","","","","","","","","","","","","","",""
"","","","","","html-keyboard-response","66","202611","0.0-6.0-1.16","A26RO8GGTQAXGG","2022-05-23T17:52:31.226Z","rhyme-same_different-task_switching-phon_sim","","null","rhyme","<img src=""square.png"" width=""306"" height=""306"" style=""position: fixed;left:14%;top:30%""><img src=""square.png"" width=""306"" height=""306"" style=""position: fixed;left:64%;top:30%"">","null","","","","","","","","","","","","","","","","","","","","","","","","","","","","","","","","","","",""
"","","","","","html-keyboard-response","67","204591","0.0-6.0-2.16","A26RO8GGTQAXGG","2022-05-23T17:52:31.226Z","rhyme-same_different-task_switching-phon_sim","","1978.3999999761581","rhyme","<div style=""border: 3px solid #000000; position: fixed;left:14%;top:30%""><img src=""visual/tree.png"" width=""300""></div><div style=""border: 3px solid #000000; position: fixed;left:64%;top:30%""><img src=""visual/door.png"" width=""300""></div>","arrowdown","","true","experiment","visual/tree.png","visual/door.png","ArrowDown","NR","","","","","","","","","","","","","","","","","","","","","","","","","","","",""
"","","","","","html-keyboard-response","68","204856","0.0-6.0-0.17","A26RO8GGTQAXGG","2022-05-23T17:52:31.226Z","rhyme-same_different-task_switching-phon_sim","","null","rhyme","<div style=""font-size:60px;"">+</div>","null","250","","","","","","","","","","","","","","","","","","","","","","","","","","","","","","","","","",""
"","","","","","html-keyboard-response","69","205366","0.0-6.0-1.17","A26RO8GGTQAXGG","2022-05-23T17:52:31.226Z","rhyme-same_different-task_switching-phon_sim","","null","rhyme","<img src=""square.png"" width=""306"" height=""306"" style=""position: fixed;left:14%;top:30%""><img src=""square.png"" width=""306"" height=""306"" style=""position: fixed;left:64%;top:30%"">","null","","","","","","","","","","","","","","","","","","","","","","","","","","","","","","","","","","",""
"","","","","","html-keyboard-response","70","208175","0.0-6.0-2.17","A26RO8GGTQAXGG","2022-05-23T17:52:31.226Z","rhyme-same_different-task_switching-phon_sim","","2807.5","rhyme","<div style=""border: 3px solid #000000; position: fixed;left:14%;top:30%""><img src=""visual/soap.png"" width=""300""></div><div style=""border: 3px solid #000000; position: fixed;left:64%;top:30%""><img src=""visual/rope.png"" width=""300""></div>","arrowup","","true","experiment","visual/soap.png","visual/rope.png","ArrowUp","non-ortho","","","","","","","","","","","","","","","","","","","","","","","","","","","",""
"","","","","","html-keyboard-response","71","208428","0.0-6.0-0.18","A26RO8GGTQAXGG","2022-05-23T17:52:31.226Z","rhyme-same_different-task_switching-phon_sim","","null","rhyme","<div style=""font-size:60px;"">+</div>","null","250","","","","","","","","","","","","","","","","","","","","","","","","","","","","","","","","","",""
"","","","","","html-keyboard-response","72","208941","0.0-6.0-1.18","A26RO8GGTQAXGG","2022-05-23T17:52:31.226Z","rhyme-same_different-task_switching-phon_sim","","null","rhyme","<img src=""square.png"" width=""306"" height=""306"" style=""position: fixed;left:14%;top:30%""><img src=""square.png"" width=""306"" height=""306"" style=""position: fixed;left:64%;top:30%"">","null","","","","","","","","","","","","","","","","","","","","","","","","","","","","","","","","","","",""
"","","","","","html-keyboard-response","73","213047","0.0-6.0-2.18","A26RO8GGTQAXGG","2022-05-23T17:52:31.226Z","rhyme-same_different-task_switching-phon_sim","","4105.199999928474","rhyme","<div style=""border: 3px solid #000000; position: fixed;left:14%;top:30%""><img src=""visual/wheel.png"" width=""300""></div><div style=""border: 3px solid #000000; position: fixed;left:64%;top:30%""><img src=""visual/seal.png"" width=""300""></div>","arrowdown","","false","experiment","visual/wheel.png","visual/seal.png","ArrowUp","non-ortho","","","","","","","","","","","","","","","","","","","","","","","","","","","",""
"","","","","","html-keyboard-response","74","213551","0.0-6.0-0.19","A26RO8GGTQAXGG","2022-05-23T17:52:31.226Z","rhyme-same_different-task_switching-phon_sim","","null","rhyme","<div style=""font-size:60px;"">+</div>","null","500","","","","","","","","","","","","","","","","","","","","","","","","","","","","","","","","","",""
"","","","","","html-keyboard-response","75","214063","0.0-6.0-1.19","A26RO8GGTQAXGG","2022-05-23T17:52:31.226Z","rhyme-same_different-task_switching-phon_sim","","null","rhyme","<img src=""square.png"" width=""306"" height=""306"" style=""position: fixed;left:14%;top:30%""><img src=""square.png"" width=""306"" height=""306"" style=""position: fixed;left:64%;top:30%"">","null","","","","","","","","","","","","","","","","","","","","","","","","","","","","","","","","","","",""
"","","","","","html-keyboard-response","76","216174","0.0-6.0-2.19","A26RO8GGTQAXGG","2022-05-23T17:52:31.226Z","rhyme-same_different-task_switching-phon_sim","","2108.5","rhyme","<div style=""border: 3px solid #000000; position: fixed;left:14%;top:30%""><img src=""visual/tie.png"" width=""300""></div><div style=""border: 3px solid #000000; position: fixed;left:64%;top:30%""><img src=""visual/fly.png"" width=""300""></div>","arrowup","","true","experiment","visual/tie.png","visual/fly.png","ArrowUp","non-ortho","","","","","","","","","","","","","","","","","","","","","","","","","","","",""
"","","","","","html-keyboard-response","77","216676","0.0-6.0-0.20","A26RO8GGTQAXGG","2022-05-23T17:52:31.226Z","rhyme-same_different-task_switching-phon_sim","","null","rhyme","<div style=""font-size:60px;"">+</div>","null","500","","","","","","","","","","","","","","","","","","","","","","","","","","","","","","","","","",""
"","","","","","html-keyboard-response","78","217193","0.0-6.0-1.20","A26RO8GGTQAXGG","2022-05-23T17:52:31.226Z","rhyme-same_different-task_switching-phon_sim","","null","rhyme","<img src=""square.png"" width=""306"" height=""306"" style=""position: fixed;left:14%;top:30%""><img src=""square.png"" width=""306"" height=""306"" style=""position: fixed;left:64%;top:30%"">","null","","","","","","","","","","","","","","","","","","","","","","","","","","","","","","","","","","",""
"","","","","","html-keyboard-response","79","218983","0.0-6.0-2.20","A26RO8GGTQAXGG","2022-05-23T17:52:31.226Z","rhyme-same_different-task_switching-phon_sim","","1787.3000000715256","rhyme","<div style=""border: 3px solid #000000; position: fixed;left:14%;top:30%""><img src=""visual/dart.png"" width=""300""></div><div style=""border: 3px solid #000000; position: fixed;left:64%;top:30%""><img src=""visual/tie.png"" width=""300""></div>","arrowdown","","true","experiment","visual/dart.png","visual/tie.png","ArrowDown","NR","","","","","","","","","","","","","","","","","","","","","","","","","","","",""
"","","","","","html-keyboard-response","80","219995","0.0-6.0-0.21","A26RO8GGTQAXGG","2022-05-23T17:52:31.226Z","rhyme-same_different-task_switching-phon_sim","","null","rhyme","<div style=""font-size:60px;"">+</div>","null","1000","","","","","","","","","","","","","","","","","","","","","","","","","","","","","","","","","",""
"","","","","","html-keyboard-response","81","220505","0.0-6.0-1.21","A26RO8GGTQAXGG","2022-05-23T17:52:31.226Z","rhyme-same_different-task_switching-phon_sim","","null","rhyme","<img src=""square.png"" width=""306"" height=""306"" style=""position: fixed;left:14%;top:30%""><img src=""square.png"" width=""306"" height=""306"" style=""position: fixed;left:64%;top:30%"">","null","","","","","","","","","","","","","","","","","","","","","","","","","","","","","","","","","","",""
"","","","","","html-keyboard-response","82","223702","0.0-6.0-2.21","A26RO8GGTQAXGG","2022-05-23T17:52:31.226Z","rhyme-same_different-task_switching-phon_sim","","3195.2999999523163","rhyme","<div style=""border: 3px solid #000000; position: fixed;left:14%;top:30%""><img src=""visual/socks.png"" width=""300""></div><div style=""border: 3px solid #000000; position: fixed;left:64%;top:30%""><img src=""visual/fox.png"" width=""300""></div>","arrowup","","true","experiment","visual/socks.png","visual/fox.png","ArrowUp","non-ortho","","","","","","","","","","","","","","","","","","","","","","","","","","","",""
"","","","","","html-keyboard-response","83","224208","0.0-6.0-0.22","A26RO8GGTQAXGG","2022-05-23T17:52:31.226Z","rhyme-same_different-task_switching-phon_sim","","null","rhyme","<div style=""font-size:60px;"">+</div>","null","500","","","","","","","","","","","","","","","","","","","","","","","","","","","","","","","","","",""
"","","","","","html-keyboard-response","84","224710","0.0-6.0-1.22","A26RO8GGTQAXGG","2022-05-23T17:52:31.226Z","rhyme-same_different-task_switching-phon_sim","","null","rhyme","<img src=""square.png"" width=""306"" height=""306"" style=""position: fixed;left:14%;top:30%""><img src=""square.png"" width=""306"" height=""306"" style=""position: fixed;left:64%;top:30%"">","null","","","","","","","","","","","","","","","","","","","","","","","","","","","","","","","","","","",""
"","","","","","html-keyboard-response","85","226503","0.0-6.0-2.22","A26RO8GGTQAXGG","2022-05-23T17:52:31.226Z","rhyme-same_different-task_switching-phon_sim","","1792.3999999761581","rhyme","<div style=""border: 3px solid #000000; position: fixed;left:14%;top:30%""><img src=""visual/brain.png"" width=""300""></div><div style=""border: 3px solid #000000; position: fixed;left:64%;top:30%""><img src=""visual/clock.png"" width=""300""></div>","arrowdown","","true","experiment","visual/brain.png","visual/clock.png","ArrowDown","NR","","","","","","","","","","","","","","","","","","","","","","","","","","","",""
"","","","","","html-keyboard-response","86","227269","0.0-6.0-0.23","A26RO8GGTQAXGG","2022-05-23T17:52:31.226Z","rhyme-same_different-task_switching-phon_sim","","null","rhyme","<div style=""font-size:60px;"">+</div>","null","750","","","","","","","","","","","","","","","","","","","","","","","","","","","","","","","","","",""
"","","","","","html-keyboard-response","87","227782","0.0-6.0-1.23","A26RO8GGTQAXGG","2022-05-23T17:52:31.226Z","rhyme-same_different-task_switching-phon_sim","","null","rhyme","<img src=""square.png"" width=""306"" height=""306"" style=""position: fixed;left:14%;top:30%""><img src=""square.png"" width=""306"" height=""306"" style=""position: fixed;left:64%;top:30%"">","null","","","","","","","","","","","","","","","","","","","","","","","","","","","","","","","","","","",""
"","","","","","html-keyboard-response","88","229223","0.0-6.0-2.23","A26RO8GGTQAXGG","2022-05-23T17:52:31.226Z","rhyme-same_different-task_switching-phon_sim","","1440.6999999284744","rhyme","<div style=""border: 3px solid #000000; position: fixed;left:14%;top:30%""><img src=""visual/flag.png"" width=""300""></div><div style=""border: 3px solid #000000; position: fixed;left:64%;top:30%""><img src=""visual/bag.png"" width=""300""></div>","arrowup","","true","experiment","visual/flag.png","visual/bag.png","ArrowUp","ortho","","","","","","","","","","","","","","","","","","","","","","","","","","","",""
"","","","","","html-keyboard-response","89","229741","0.0-6.0-0.24","A26RO8GGTQAXGG","2022-05-23T17:52:31.226Z","rhyme-same_different-task_switching-phon_sim","","null","rhyme","<div style=""font-size:60px;"">+</div>","null","500","","","","","","","","","","","","","","","","","","","","","","","","","","","","","","","","","",""
"","","","","","html-keyboard-response","90","230255","0.0-6.0-1.24","A26RO8GGTQAXGG","2022-05-23T17:52:31.226Z","rhyme-same_different-task_switching-phon_sim","","null","rhyme","<img src=""square.png"" width=""306"" height=""306"" style=""position: fixed;left:14%;top:30%""><img src=""square.png"" width=""306"" height=""306"" style=""position: fixed;left:64%;top:30%"">","null","","","","","","","","","","","","","","","","","","","","","","","","","","","","","","","","","","",""
"","","","","","html-keyboard-response","91","231870","0.0-6.0-2.24","A26RO8GGTQAXGG","2022-05-23T17:52:31.226Z","rhyme-same_different-task_switching-phon_sim","","1614.3000000715256","rhyme","<div style=""border: 3px solid #000000; position: fixed;left:14%;top:30%""><img src=""visual/shark.png"" width=""300""></div><div style=""border: 3px solid #000000; position: fixed;left:64%;top:30%""><img src=""visual/park.png"" width=""300""></div>","arrowdown","","false","experiment","visual/shark.png","visual/park.png","ArrowUp","ortho","","","","","","","","","","","","","","","","","","","","","","","","","","","",""
"","","","","","html-keyboard-response","92","232133","0.0-6.0-0.25","A26RO8GGTQAXGG","2022-05-23T17:52:31.226Z","rhyme-same_different-task_switching-phon_sim","","null","rhyme","<div style=""font-size:60px;"">+</div>","null","250","","","","","","","","","","","","","","","","","","","","","","","","","","","","","","","","","",""
"","","","","","html-keyboard-response","93","232647","0.0-6.0-1.25","A26RO8GGTQAXGG","2022-05-23T17:52:31.226Z","rhyme-same_different-task_switching-phon_sim","","null","rhyme","<img src=""square.png"" width=""306"" height=""306"" style=""position: fixed;left:14%;top:30%""><img src=""square.png"" width=""306"" height=""306"" style=""position: fixed;left:64%;top:30%"">","null","","","","","","","","","","","","","","","","","","","","","","","","","","","","","","","","","","",""
"","","","","","html-keyboard-response","94","234103","0.0-6.0-2.25","A26RO8GGTQAXGG","2022-05-23T17:52:31.226Z","rhyme-same_different-task_switching-phon_sim","","1454.5","rhyme","<div style=""border: 3px solid #000000; position: fixed;left:14%;top:30%""><img src=""visual/dart.png"" width=""300""></div><div style=""border: 3px solid #000000; position: fixed;left:64%;top:30%""><img src=""visual/heart.png"" width=""300""></div>","arrowup","","true","experiment","visual/dart.png","visual/heart.png","ArrowUp","non-ortho","","","","","","","","","","","","","","","","","","","","","","","","","","","",""
"","","","","","html-keyboard-response","95","235108","0.0-6.0-0.26","A26RO8GGTQAXGG","2022-05-23T17:52:31.226Z","rhyme-same_different-task_switching-phon_sim","","null","rhyme","<div style=""font-size:60px;"">+</div>","null","1000","","","","","","","","","","","","","","","","","","","","","","","","","","","","","","","","","",""
"","","","","","html-keyboard-response","96","235621","0.0-6.0-1.26","A26RO8GGTQAXGG","2022-05-23T17:52:31.226Z","rhyme-same_different-task_switching-phon_sim","","null","rhyme","<img src=""square.png"" width=""306"" height=""306"" style=""position: fixed;left:14%;top:30%""><img src=""square.png"" width=""306"" height=""306"" style=""position: fixed;left:64%;top:30%"">","null","","","","","","","","","","","","","","","","","","","","","","","","","","","","","","","","","","",""
"","","","","","html-keyboard-response","97","237590","0.0-6.0-2.26","A26RO8GGTQAXGG","2022-05-23T17:52:31.226Z","rhyme-same_different-task_switching-phon_sim","","1968.2999999523163","rhyme","<div style=""border: 3px solid #000000; position: fixed;left:14%;top:30%""><img src=""visual/soap.png"" width=""300""></div><div style=""border: 3px solid #000000; position: fixed;left:64%;top:30%""><img src=""visual/shoe.png"" width=""300""></div>","arrowdown","","true","experiment","visual/soap.png","visual/shoe.png","ArrowDown","NR","","","","","","","","","","","","","","","","","","","","","","","","","","","",""
"","","","","","html-keyboard-response","98","238349","0.0-6.0-0.27","A26RO8GGTQAXGG","2022-05-23T17:52:31.226Z","rhyme-same_different-task_switching-phon_sim","","null","rhyme","<div style=""font-size:60px;"">+</div>","null","750","","","","","","","","","","","","","","","","","","","","","","","","","","","","","","","","","",""
"","","","","","html-keyboard-response","99","238861","0.0-6.0-1.27","A26RO8GGTQAXGG","2022-05-23T17:52:31.226Z","rhyme-same_different-task_switching-phon_sim","","null","rhyme","<img src=""square.png"" width=""306"" height=""306"" style=""position: fixed;left:14%;top:30%""><img src=""square.png"" width=""306"" height=""306"" style=""position: fixed;left:64%;top:30%"">","null","","","","","","","","","","","","","","","","","","","","","","","","","","","","","","","","","","",""
"","","","","","html-keyboard-response","100","240319","0.0-6.0-2.27","A26RO8GGTQAXGG","2022-05-23T17:52:31.226Z","rhyme-same_different-task_switching-phon_sim","","1456.3999999761581","rhyme","<div style=""border: 3px solid #000000; position: fixed;left:14%;top:30%""><img src=""visual/key.png"" width=""300""></div><div style=""border: 3px solid #000000; position: fixed;left:64%;top:30%""><img src=""visual/tree.png"" width=""300""></div>","arrowup","","true","experiment","visual/key.png","visual/tree.png","ArrowUp","non-ortho","","","","","","","","","","","","","","","","","","","","","","","","","","","",""
"","","","","","html-keyboard-response","101","241322","0.0-6.0-0.28","A26RO8GGTQAXGG","2022-05-23T17:52:31.226Z","rhyme-same_different-task_switching-phon_sim","","null","rhyme","<div style=""font-size:60px;"">+</div>","null","1000","","","","","","","","","","","","","","","","","","","","","","","","","","","","","","","","","",""
"","","","","","html-keyboard-response","102","241834","0.0-6.0-1.28","A26RO8GGTQAXGG","2022-05-23T17:52:31.226Z","rhyme-same_different-task_switching-phon_sim","","null","rhyme","<img src=""square.png"" width=""306"" height=""306"" style=""position: fixed;left:14%;top:30%""><img src=""square.png"" width=""306"" height=""306"" style=""position: fixed;left:64%;top:30%"">","null","","","","","","","","","","","","","","","","","","","","","","","","","","","","","","","","","","",""
"","","","","","html-keyboard-response","103","244879","0.0-6.0-2.28","A26RO8GGTQAXGG","2022-05-23T17:52:31.226Z","rhyme-same_different-task_switching-phon_sim","","3043.5","rhyme","<div style=""border: 3px solid #000000; position: fixed;left:14%;top:30%""><img src=""visual/pope.png"" width=""300""></div><div style=""border: 3px solid #000000; position: fixed;left:64%;top:30%""><img src=""visual/soap.png"" width=""300""></div>","arrowup","","true","experiment","visual/pope.png","visual/soap.png","ArrowUp","non-ortho","","","","","","","","","","","","","","","","","","","","","","","","","","","",""
"","","","","","html-keyboard-response","104","245385","0.0-6.0-0.29","A26RO8GGTQAXGG","2022-05-23T17:52:31.226Z","rhyme-same_different-task_switching-phon_sim","","null","rhyme","<div style=""font-size:60px;"">+</div>","null","500","","","","","","","","","","","","","","","","","","","","","","","","","","","","","","","","","",""
"","","","","","html-keyboard-response","105","245898","0.0-6.0-1.29","A26RO8GGTQAXGG","2022-05-23T17:52:31.226Z","rhyme-same_different-task_switching-phon_sim","","null","rhyme","<img src=""square.png"" width=""306"" height=""306"" style=""position: fixed;left:14%;top:30%""><img src=""square.png"" width=""306"" height=""306"" style=""position: fixed;left:64%;top:30%"">","null","","","","","","","","","","","","","","","","","","","","","","","","","","","","","","","","","","",""
"","","","","","html-keyboard-response","106","248743","0.0-6.0-2.29","A26RO8GGTQAXGG","2022-05-23T17:52:31.226Z","rhyme-same_different-task_switching-phon_sim","","2843.100000023842","rhyme","<div style=""border: 3px solid #000000; position: fixed;left:14%;top:30%""><img src=""visual/drawer.png"" width=""300""></div><div style=""border: 3px solid #000000; position: fixed;left:64%;top:30%""><img src=""visual/door.png"" width=""300""></div>","arrowdown","","false","experiment","visual/drawer.png","visual/door.png","ArrowUp","non-ortho","","","","","","","","","","","","","","","","","","","","","","","","","","","",""
"","","","","","html-keyboard-response","107","249004","0.0-6.0-0.30","A26RO8GGTQAXGG","2022-05-23T17:52:31.226Z","rhyme-same_different-task_switching-phon_sim","","null","rhyme","<div style=""font-size:60px;"">+</div>","null","250","","","","","","","","","","","","","","","","","","","","","","","","","","","","","","","","","",""
"","","","","","html-keyboard-response","108","249517","0.0-6.0-1.30","A26RO8GGTQAXGG","2022-05-23T17:52:31.226Z","rhyme-same_different-task_switching-phon_sim","","null","rhyme","<img src=""square.png"" width=""306"" height=""306"" style=""position: fixed;left:14%;top:30%""><img src=""square.png"" width=""306"" height=""306"" style=""position: fixed;left:64%;top:30%"">","null","","","","","","","","","","","","","","","","","","","","","","","","","","","","","","","","","","",""
"","","","","","html-keyboard-response","109","251478","0.0-6.0-2.30","A26RO8GGTQAXGG","2022-05-23T17:52:31.226Z","rhyme-same_different-task_switching-phon_sim","","1960.3000000715256","rhyme","<div style=""border: 3px solid #000000; position: fixed;left:14%;top:30%""><img src=""visual/shark.png"" width=""300""></div><div style=""border: 3px solid #000000; position: fixed;left:64%;top:30%""><img src=""visual/moon.png"" width=""300""></div>","arrowdown","","true","experiment","visual/shark.png","visual/moon.png","ArrowDown","NR","","","","","","","","","","","","","","","","","","","","","","","","","","","",""
"","","","","","html-keyboard-response","110","252231","0.0-6.0-0.31","A26RO8GGTQAXGG","2022-05-23T17:52:31.226Z","rhyme-same_different-task_switching-phon_sim","","null","rhyme","<div style=""font-size:60px;"">+</div>","null","750","","","","","","","","","","","","","","","","","","","","","","","","","","","","","","","","","",""
"","","","","","html-keyboard-response","111","252742","0.0-6.0-1.31","A26RO8GGTQAXGG","2022-05-23T17:52:31.226Z","rhyme-same_different-task_switching-phon_sim","","null","rhyme","<img src=""square.png"" width=""306"" height=""306"" style=""position: fixed;left:14%;top:30%""><img src=""square.png"" width=""306"" height=""306"" style=""position: fixed;left:64%;top:30%"">","null","","","","","","","","","","","","","","","","","","","","","","","","","","","","","","","","","","",""
"","","","","","html-keyboard-response","112","257015","0.0-6.0-2.31","A26RO8GGTQAXGG","2022-05-23T17:52:31.226Z","rhyme-same_different-task_switching-phon_sim","","4269.700000047684","rhyme","<div style=""border: 3px solid #000000; position: fixed;left:14%;top:30%""><img src=""visual/bin.png"" width=""300""></div><div style=""border: 3px solid #000000; position: fixed;left:64%;top:30%""><img src=""visual/chin.png"" width=""300""></div>","arrowdown","","false","experiment","visual/bin.png","visual/chin.png","ArrowUp","ortho","","","","","","","","","","","","","","","","","","","","","","","","","","","",""
"","","","","","html-keyboard-response","113","258020","0.0-6.0-0.32","A26RO8GGTQAXGG","2022-05-23T17:52:31.226Z","rhyme-same_different-task_switching-phon_sim","","null","rhyme","<div style=""font-size:60px;"">+</div>","null","1000","","","","","","","","","","","","","","","","","","","","","","","","","","","","","","","","","",""
"","","","","","html-keyboard-response","114","258532","0.0-6.0-1.32","A26RO8GGTQAXGG","2022-05-23T17:52:31.226Z","rhyme-same_different-task_switching-phon_sim","","null","rhyme","<img src=""square.png"" width=""306"" height=""306"" style=""position: fixed;left:14%;top:30%""><img src=""square.png"" width=""306"" height=""306"" style=""position: fixed;left:64%;top:30%"">","null","","","","","","","","","","","","","","","","","","","","","","","","","","","","","","","","","","",""
"","","","","","html-keyboard-response","115","260294","0.0-6.0-2.32","A26RO8GGTQAXGG","2022-05-23T17:52:31.226Z","rhyme-same_different-task_switching-phon_sim","","1760.7000000476837","rhyme","<div style=""border: 3px solid #000000; position: fixed;left:14%;top:30%""><img src=""visual/jar.png"" width=""300""></div><div style=""border: 3px solid #000000; position: fixed;left:64%;top:30%""><img src=""visual/whale.png"" width=""300""></div>","arrowdown","","true","experiment","visual/jar.png","visual/whale.png","ArrowDown","NR","","","","","","","","","","","","","","","","","","","","","","","","","","","",""
"","","","","","html-keyboard-response","116","261061","0.0-6.0-0.33","A26RO8GGTQAXGG","2022-05-23T17:52:31.226Z","rhyme-same_different-task_switching-phon_sim","","null","rhyme","<div style=""font-size:60px;"">+</div>","null","750","","","","","","","","","","","","","","","","","","","","","","","","","","","","","","","","","",""
"","","","","","html-keyboard-response","117","261577","0.0-6.0-1.33","A26RO8GGTQAXGG","2022-05-23T17:52:31.226Z","rhyme-same_different-task_switching-phon_sim","","null","rhyme","<img src=""square.png"" width=""306"" height=""306"" style=""position: fixed;left:14%;top:30%""><img src=""square.png"" width=""306"" height=""306"" style=""position: fixed;left:64%;top:30%"">","null","","","","","","","","","","","","","","","","","","","","","","","","","","","","","","","","","","",""
"","","","","","html-keyboard-response","118","263438","0.0-6.0-2.33","A26RO8GGTQAXGG","2022-05-23T17:52:31.226Z","rhyme-same_different-task_switching-phon_sim","","1859.6999999284744","rhyme","<div style=""border: 3px solid #000000; position: fixed;left:14%;top:30%""><img src=""visual/king.png"" width=""300""></div><div style=""border: 3px solid #000000; position: fixed;left:64%;top:30%""><img src=""visual/cab.png"" width=""300""></div>","arrowdown","","true","experiment","visual/king.png","visual/cab.png","ArrowDown","NR","","","","","","","","","","","","","","","","","","","","","","","","","","","",""
"","","","","","html-keyboard-response","119","263694","0.0-6.0-0.34","A26RO8GGTQAXGG","2022-05-23T17:52:31.226Z","rhyme-same_different-task_switching-phon_sim","","null","rhyme","<div style=""font-size:60px;"">+</div>","null","250","","","","","","","","","","","","","","","","","","","","","","","","","","","","","","","","","",""
"","","","","","html-keyboard-response","120","264205","0.0-6.0-1.34","A26RO8GGTQAXGG","2022-05-23T17:52:31.226Z","rhyme-same_different-task_switching-phon_sim","","null","rhyme","<img src=""square.png"" width=""306"" height=""306"" style=""position: fixed;left:14%;top:30%""><img src=""square.png"" width=""306"" height=""306"" style=""position: fixed;left:64%;top:30%"">","null","","","","","","","","","","","","","","","","","","","","","","","","","","","","","","","","","","",""
"","","","","","html-keyboard-response","121","265750","0.0-6.0-2.34","A26RO8GGTQAXGG","2022-05-23T17:52:31.226Z","rhyme-same_different-task_switching-phon_sim","","1542.8999999761581","rhyme","<div style=""border: 3px solid #000000; position: fixed;left:14%;top:30%""><img src=""visual/spoon.png"" width=""300""></div><div style=""border: 3px solid #000000; position: fixed;left:64%;top:30%""><img src=""visual/moon.png"" width=""300""></div>","arrowup","","true","experiment","visual/spoon.png","visual/moon.png","ArrowUp","ortho","","","","","","","","","","","","","","","","","","","","","","","","","","","",""
"","","","","","html-keyboard-response","122","266263","0.0-6.0-0.35","A26RO8GGTQAXGG","2022-05-23T17:52:31.226Z","rhyme-same_different-task_switching-phon_sim","","null","rhyme","<div style=""font-size:60px;"">+</div>","null","500","","","","","","","","","","","","","","","","","","","","","","","","","","","","","","","","","",""
"","","","","","html-keyboard-response","123","266774","0.0-6.0-1.35","A26RO8GGTQAXGG","2022-05-23T17:52:31.226Z","rhyme-same_different-task_switching-phon_sim","","null","rhyme","<img src=""square.png"" width=""306"" height=""306"" style=""position: fixed;left:14%;top:30%""><img src=""square.png"" width=""306"" height=""306"" style=""position: fixed;left:64%;top:30%"">","null","","","","","","","","","","","","","","","","","","","","","","","","","","","","","","","","","","",""
"","","","","","html-keyboard-response","124","267830","0.0-6.0-2.35","A26RO8GGTQAXGG","2022-05-23T17:52:31.226Z","rhyme-same_different-task_switching-phon_sim","","1054.7999999523163","rhyme","<div style=""border: 3px solid #000000; position: fixed;left:14%;top:30%""><img src=""visual/cat.png"" width=""300""></div><div style=""border: 3px solid #000000; position: fixed;left:64%;top:30%""><img src=""visual/hat.png"" width=""300""></div>","arrowup","","true","experiment","visual/cat.png","visual/hat.png","ArrowUp","ortho","","","","","","","","","","","","","","","","","","","","","","","","","","","",""
"","","","","","html-keyboard-response","125","268090","0.0-6.0-0.36","A26RO8GGTQAXGG","2022-05-23T17:52:31.226Z","rhyme-same_different-task_switching-phon_sim","","null","rhyme","<div style=""font-size:60px;"">+</div>","null","250","","","","","","","","","","","","","","","","","","","","","","","","","","","","","","","","","",""
"","","","","","html-keyboard-response","126","268602","0.0-6.0-1.36","A26RO8GGTQAXGG","2022-05-23T17:52:31.226Z","rhyme-same_different-task_switching-phon_sim","","null","rhyme","<img src=""square.png"" width=""306"" height=""306"" style=""position: fixed;left:14%;top:30%""><img src=""square.png"" width=""306"" height=""306"" style=""position: fixed;left:64%;top:30%"">","null","","","","","","","","","","","","","","","","","","","","","","","","","","","","","","","","","","",""
"","","","","","html-keyboard-response","127","272527","0.0-6.0-2.36","A26RO8GGTQAXGG","2022-05-23T17:52:31.226Z","rhyme-same_different-task_switching-phon_sim","","3923.899999976158","rhyme","<div style=""border: 3px solid #000000; position: fixed;left:14%;top:30%""><img src=""visual/well.png"" width=""300""></div><div style=""border: 3px solid #000000; position: fixed;left:64%;top:30%""><img src=""visual/rose.png"" width=""300""></div>","arrowdown","","true","experiment","visual/well.png","visual/rose.png","ArrowDown","NR","","","","","","","","","","","","","","","","","","","","","","","","","","","",""
"","","","","","html-keyboard-response","128","273284","0.0-6.0-0.37","A26RO8GGTQAXGG","2022-05-23T17:52:31.226Z","rhyme-same_different-task_switching-phon_sim","","null","rhyme","<div style=""font-size:60px;"">+</div>","null","750","","","","","","","","","","","","","","","","","","","","","","","","","","","","","","","","","",""
"","","","","","html-keyboard-response","129","273798","0.0-6.0-1.37","A26RO8GGTQAXGG","2022-05-23T17:52:31.226Z","rhyme-same_different-task_switching-phon_sim","","null","rhyme","<img src=""square.png"" width=""306"" height=""306"" style=""position: fixed;left:14%;top:30%""><img src=""square.png"" width=""306"" height=""306"" style=""position: fixed;left:64%;top:30%"">","null","","","","","","","","","","","","","","","","","","","","","","","","","","","","","","","","","","",""
"","","","","","html-keyboard-response","130","275244","0.0-6.0-2.37","A26RO8GGTQAXGG","2022-05-23T17:52:31.226Z","rhyme-same_different-task_switching-phon_sim","","1444.3999999761581","rhyme","<div style=""border: 3px solid #000000; position: fixed;left:14%;top:30%""><img src=""visual/train.png"" width=""300""></div><div style=""border: 3px solid #000000; position: fixed;left:64%;top:30%""><img src=""visual/screw.png"" width=""300""></div>","arrowdown","","true","experiment","visual/train.png","visual/screw.png","ArrowDown","NR","","","","","","","","","","","","","","","","","","","","","","","","","","","",""
"","","","","","html-keyboard-response","131","275756","0.0-6.0-0.38","A26RO8GGTQAXGG","2022-05-23T17:52:31.226Z","rhyme-same_different-task_switching-phon_sim","","null","rhyme","<div style=""font-size:60px;"">+</div>","null","500","","","","","","","","","","","","","","","","","","","","","","","","","","","","","","","","","",""
"","","","","","html-keyboard-response","132","276271","0.0-6.0-1.38","A26RO8GGTQAXGG","2022-05-23T17:52:31.226Z","rhyme-same_different-task_switching-phon_sim","","null","rhyme","<img src=""square.png"" width=""306"" height=""306"" style=""position: fixed;left:14%;top:30%""><img src=""square.png"" width=""306"" height=""306"" style=""position: fixed;left:64%;top:30%"">","null","","","","","","","","","","","","","","","","","","","","","","","","","","","","","","","","","","",""
"","","","","","html-keyboard-response","133","277670","0.0-6.0-2.38","A26RO8GGTQAXGG","2022-05-23T17:52:31.226Z","rhyme-same_different-task_switching-phon_sim","","1397.7999999523163","rhyme","<div style=""border: 3px solid #000000; position: fixed;left:14%;top:30%""><img src=""visual/star.png"" width=""300""></div><div style=""border: 3px solid #000000; position: fixed;left:64%;top:30%""><img src=""visual/jar.png"" width=""300""></div>","arrowup","","true","experiment","visual/star.png","visual/jar.png","ArrowUp","ortho","","","","","","","","","","","","","","","","","","","","","","","","","","","",""
"","","","","","html-keyboard-response","134","278676","0.0-6.0-0.39","A26RO8GGTQAXGG","2022-05-23T17:52:31.226Z","rhyme-same_different-task_switching-phon_sim","","null","rhyme","<div style=""font-size:60px;"">+</div>","null","1000","","","","","","","","","","","","","","","","","","","","","","","","","","","","","","","","","",""
"","","","","","html-keyboard-response","135","279188","0.0-6.0-1.39","A26RO8GGTQAXGG","2022-05-23T17:52:31.226Z","rhyme-same_different-task_switching-phon_sim","","null","rhyme","<img src=""square.png"" width=""306"" height=""306"" style=""position: fixed;left:14%;top:30%""><img src=""square.png"" width=""306"" height=""306"" style=""position: fixed;left:64%;top:30%"">","null","","","","","","","","","","","","","","","","","","","","","","","","","","","","","","","","","","",""
"","","","","","html-keyboard-response","136","280368","0.0-6.0-2.39","A26RO8GGTQAXGG","2022-05-23T17:52:31.226Z","rhyme-same_different-task_switching-phon_sim","","1177.5","rhyme","<div style=""border: 3px solid #000000; position: fixed;left:14%;top:30%""><img src=""visual/box.png"" width=""300""></div><div style=""border: 3px solid #000000; position: fixed;left:64%;top:30%""><img src=""visual/fox.png"" width=""300""></div>","arrowup","","true","experiment","visual/box.png","visual/fox.png","ArrowUp","ortho","","","","","","","","","","","","","","","","","","","","","","","","","","","",""
"","","","","","html-keyboard-response","137","281133","0.0-6.0-0.40","A26RO8GGTQAXGG","2022-05-23T17:52:31.226Z","rhyme-same_different-task_switching-phon_sim","","null","rhyme","<div style=""font-size:60px;"">+</div>","null","750","","","","","","","","","","","","","","","","","","","","","","","","","","","","","","","","","",""
"","","","","","html-keyboard-response","138","281646","0.0-6.0-1.40","A26RO8GGTQAXGG","2022-05-23T17:52:31.226Z","rhyme-same_different-task_switching-phon_sim","","null","rhyme","<img src=""square.png"" width=""306"" height=""306"" style=""position: fixed;left:14%;top:30%""><img src=""square.png"" width=""306"" height=""306"" style=""position: fixed;left:64%;top:30%"">","null","","","","","","","","","","","","","","","","","","","","","","","","","","","","","","","","","","",""
"","","","","","html-keyboard-response","139","283230","0.0-6.0-2.40","A26RO8GGTQAXGG","2022-05-23T17:52:31.226Z","rhyme-same_different-task_switching-phon_sim","","1581.8999999761581","rhyme","<div style=""border: 3px solid #000000; position: fixed;left:14%;top:30%""><img src=""visual/well.png"" width=""300""></div><div style=""border: 3px solid #000000; position: fixed;left:64%;top:30%""><img src=""visual/bell.png"" width=""300""></div>","arrowup","","true","experiment","visual/well.png","visual/bell.png","ArrowUp","ortho","","","","","","","","","","","","","","","","","","","","","","","","","","","",""
"","","","","","html-keyboard-response","140","283483","0.0-6.0-0.41","A26RO8GGTQAXGG","2022-05-23T17:52:31.226Z","rhyme-same_different-task_switching-phon_sim","","null","rhyme","<div style=""font-size:60px;"">+</div>","null","250","","","","","","","","","","","","","","","","","","","","","","","","","","","","","","","","","",""
"","","","","","html-keyboard-response","141","283997","0.0-6.0-1.41","A26RO8GGTQAXGG","2022-05-23T17:52:31.226Z","rhyme-same_different-task_switching-phon_sim","","null","rhyme","<img src=""square.png"" width=""306"" height=""306"" style=""position: fixed;left:14%;top:30%""><img src=""square.png"" width=""306"" height=""306"" style=""position: fixed;left:64%;top:30%"">","null","","","","","","","","","","","","","","","","","","","","","","","","","","","","","","","","","","",""
"","","","","","html-keyboard-response","142","286270","0.0-6.0-2.41","A26RO8GGTQAXGG","2022-05-23T17:52:31.226Z","rhyme-same_different-task_switching-phon_sim","","2272","rhyme","<div style=""border: 3px solid #000000; position: fixed;left:14%;top:30%""><img src=""visual/cab.png"" width=""300""></div><div style=""border: 3px solid #000000; position: fixed;left:64%;top:30%""><img src=""visual/crab.png"" width=""300""></div>","arrowup","","true","experiment","visual/cab.png","visual/crab.png","ArrowUp","ortho","","","","","","","","","","","","","","","","","","","","","","","","","","","",""
"","","","","","html-keyboard-response","143","286528","0.0-6.0-0.42","A26RO8GGTQAXGG","2022-05-23T17:52:31.226Z","rhyme-same_different-task_switching-phon_sim","","null","rhyme","<div style=""font-size:60px;"">+</div>","null","250","","","","","","","","","","","","","","","","","","","","","","","","","","","","","","","","","",""
"","","","","","html-keyboard-response","144","287044","0.0-6.0-1.42","A26RO8GGTQAXGG","2022-05-23T17:52:31.226Z","rhyme-same_different-task_switching-phon_sim","","null","rhyme","<img src=""square.png"" width=""306"" height=""306"" style=""position: fixed;left:14%;top:30%""><img src=""square.png"" width=""306"" height=""306"" style=""position: fixed;left:64%;top:30%"">","null","","","","","","","","","","","","","","","","","","","","","","","","","","","","","","","","","","",""
"","","","","","html-keyboard-response","145","288534","0.0-6.0-2.42","A26RO8GGTQAXGG","2022-05-23T17:52:31.226Z","rhyme-same_different-task_switching-phon_sim","","1487.6999999284744","rhyme","<div style=""border: 3px solid #000000; position: fixed;left:14%;top:30%""><img src=""visual/key.png"" width=""300""></div><div style=""border: 3px solid #000000; position: fixed;left:64%;top:30%""><img src=""visual/snail.png"" width=""300""></div>","arrowdown","","true","experiment","visual/key.png","visual/snail.png","ArrowDown","NR","","","","","","","","","","","","","","","","","","","","","","","","","","","",""
"","","","","","html-keyboard-response","146","289293","0.0-6.0-0.43","A26RO8GGTQAXGG","2022-05-23T17:52:31.226Z","rhyme-same_different-task_switching-phon_sim","","null","rhyme","<div style=""font-size:60px;"">+</div>","null","750","","","","","","","","","","","","","","","","","","","","","","","","","","","","","","","","","",""
"","","","","","html-keyboard-response","147","289805","0.0-6.0-1.43","A26RO8GGTQAXGG","2022-05-23T17:52:31.226Z","rhyme-same_different-task_switching-phon_sim","","null","rhyme","<img src=""square.png"" width=""306"" height=""306"" style=""position: fixed;left:14%;top:30%""><img src=""square.png"" width=""306"" height=""306"" style=""position: fixed;left:64%;top:30%"">","null","","","","","","","","","","","","","","","","","","","","","","","","","","","","","","","","","","",""
"","","","","","html-keyboard-response","148","291151","0.0-6.0-2.43","A26RO8GGTQAXGG","2022-05-23T17:52:31.226Z","rhyme-same_different-task_switching-phon_sim","","1344.3999999761581","rhyme","<div style=""border: 3px solid #000000; position: fixed;left:14%;top:30%""><img src=""visual/rose.png"" width=""300""></div><div style=""border: 3px solid #000000; position: fixed;left:64%;top:30%""><img src=""visual/nose.png"" width=""300""></div>","arrowup","","true","experiment","visual/rose.png","visual/nose.png","ArrowUp","ortho","","","","","","","","","","","","","","","","","","","","","","","","","","","",""
"","","","","","html-keyboard-response","149","291411","0.0-6.0-0.44","A26RO8GGTQAXGG","2022-05-23T17:52:31.226Z","rhyme-same_different-task_switching-phon_sim","","null","rhyme","<div style=""font-size:60px;"">+</div>","null","250","","","","","","","","","","","","","","","","","","","","","","","","","","","","","","","","","",""
"","","","","","html-keyboard-response","150","291926","0.0-6.0-1.44","A26RO8GGTQAXGG","2022-05-23T17:52:31.226Z","rhyme-same_different-task_switching-phon_sim","","null","rhyme","<img src=""square.png"" width=""306"" height=""306"" style=""position: fixed;left:14%;top:30%""><img src=""square.png"" width=""306"" height=""306"" style=""position: fixed;left:64%;top:30%"">","null","","","","","","","","","","","","","","","","","","","","","","","","","","","","","","","","","","",""
"","","","","","html-keyboard-response","151","293686","0.0-6.0-2.44","A26RO8GGTQAXGG","2022-05-23T17:52:31.226Z","rhyme-same_different-task_switching-phon_sim","","1758.7000000476837","rhyme","<div style=""border: 3px solid #000000; position: fixed;left:14%;top:30%""><img src=""visual/eye.png"" width=""300""></div><div style=""border: 3px solid #000000; position: fixed;left:64%;top:30%""><img src=""visual/tie.png"" width=""300""></div>","arrowup","","true","experiment","visual/eye.png","visual/tie.png","ArrowUp","non-ortho","","","","","","","","","","","","","","","","","","","","","","","","","","","",""
"","","","","","html-keyboard-response","152","293950","0.0-6.0-0.45","A26RO8GGTQAXGG","2022-05-23T17:52:31.226Z","rhyme-same_different-task_switching-phon_sim","","null","rhyme","<div style=""font-size:60px;"">+</div>","null","250","","","","","","","","","","","","","","","","","","","","","","","","","","","","","","","","","",""
"","","","","","html-keyboard-response","153","294461","0.0-6.0-1.45","A26RO8GGTQAXGG","2022-05-23T17:52:31.226Z","rhyme-same_different-task_switching-phon_sim","","null","rhyme","<img src=""square.png"" width=""306"" height=""306"" style=""position: fixed;left:14%;top:30%""><img src=""square.png"" width=""306"" height=""306"" style=""position: fixed;left:64%;top:30%"">","null","","","","","","","","","","","","","","","","","","","","","","","","","","","","","","","","","","",""
"","","","","","html-keyboard-response","154","295742","0.0-6.0-2.45","A26RO8GGTQAXGG","2022-05-23T17:52:31.226Z","rhyme-same_different-task_switching-phon_sim","","1279.1000000238419","rhyme","<div style=""border: 3px solid #000000; position: fixed;left:14%;top:30%""><img src=""visual/drum.png"" width=""300""></div><div style=""border: 3px solid #000000; position: fixed;left:64%;top:30%""><img src=""visual/thumb.png"" width=""300""></div>","arrowup","","true","experiment","visual/drum.png","visual/thumb.png","ArrowUp","non-ortho","","","","","","","","","","","","","","","","","","","","","","","","","","","",""
"","","","","","html-keyboard-response","155","296248","0.0-6.0-0.46","A26RO8GGTQAXGG","2022-05-23T17:52:31.226Z","rhyme-same_different-task_switching-phon_sim","","null","rhyme","<div style=""font-size:60px;"">+</div>","null","500","","","","","","","","","","","","","","","","","","","","","","","","","","","","","","","","","",""
"","","","","","html-keyboard-response","156","296755","0.0-6.0-1.46","A26RO8GGTQAXGG","2022-05-23T17:52:31.226Z","rhyme-same_different-task_switching-phon_sim","","null","rhyme","<img src=""square.png"" width=""306"" height=""306"" style=""position: fixed;left:14%;top:30%""><img src=""square.png"" width=""306"" height=""306"" style=""position: fixed;left:64%;top:30%"">","null","","","","","","","","","","","","","","","","","","","","","","","","","","","","","","","","","","",""
"","","","","","html-keyboard-response","157","300487","0.0-6.0-2.46","A26RO8GGTQAXGG","2022-05-23T17:52:31.226Z","rhyme-same_different-task_switching-phon_sim","","3730.100000023842","rhyme","<div style=""border: 3px solid #000000; position: fixed;left:14%;top:30%""><img src=""visual/bear.png"" width=""300""></div><div style=""border: 3px solid #000000; position: fixed;left:64%;top:30%""><img src=""visual/square_rhyme.png"" width=""300""></div>","arrowdown","","false","experiment","visual/bear.png","visual/square_rhyme.png","ArrowUp","non-ortho","","","","","","","","","","","","","","","","","","","","","","","","","","","",""
"","","","","","html-keyboard-response","158","300992","0.0-6.0-0.47","A26RO8GGTQAXGG","2022-05-23T17:52:31.226Z","rhyme-same_different-task_switching-phon_sim","","null","rhyme","<div style=""font-size:60px;"">+</div>","null","500","","","","","","","","","","","","","","","","","","","","","","","","","","","","","","","","","",""
"","","","","","html-keyboard-response","159","301503","0.0-6.0-1.47","A26RO8GGTQAXGG","2022-05-23T17:52:31.226Z","rhyme-same_different-task_switching-phon_sim","","null","rhyme","<img src=""square.png"" width=""306"" height=""306"" style=""position: fixed;left:14%;top:30%""><img src=""square.png"" width=""306"" height=""306"" style=""position: fixed;left:64%;top:30%"">","null","","","","","","","","","","","","","","","","","","","","","","","","","","","","","","","","","","",""
"","","","","","html-keyboard-response","160","305039","0.0-6.0-2.47","A26RO8GGTQAXGG","2022-05-23T17:52:31.226Z","rhyme-same_different-task_switching-phon_sim","","3533.7000000476837","rhyme","<div style=""border: 3px solid #000000; position: fixed;left:14%;top:30%""><img src=""visual/rake.png"" width=""300""></div><div style=""border: 3px solid #000000; position: fixed;left:64%;top:30%""><img src=""visual/park.png"" width=""300""></div>","arrowdown","","true","experiment","visual/rake.png","visual/park.png","ArrowDown","NR","","","","","","","","","","","","","","","","","","","","","","","","","","","",""
"","","","","","html-keyboard-response","161","305803","0.0-6.0-0.48","A26RO8GGTQAXGG","2022-05-23T17:52:31.226Z","rhyme-same_different-task_switching-phon_sim","","null","rhyme","<div style=""font-size:60px;"">+</div>","null","750","","","","","","","","","","","","","","","","","","","","","","","","","","","","","","","","","",""
"","","","","","html-keyboard-response","162","306317","0.0-6.0-1.48","A26RO8GGTQAXGG","2022-05-23T17:52:31.226Z","rhyme-same_different-task_switching-phon_sim","","null","rhyme","<img src=""square.png"" width=""306"" height=""306"" style=""position: fixed;left:14%;top:30%""><img src=""square.png"" width=""306"" height=""306"" style=""position: fixed;left:64%;top:30%"">","null","","","","","","","","","","","","","","","","","","","","","","","","","","","","","","","","","","",""
"","","","","","html-keyboard-response","163","308334","0.0-6.0-2.48","A26RO8GGTQAXGG","2022-05-23T17:52:31.226Z","rhyme-same_different-task_switching-phon_sim","","2015.3000000715256","rhyme","<div style=""border: 3px solid #000000; position: fixed;left:14%;top:30%""><img src=""visual/bed.png"" width=""300""></div><div style=""border: 3px solid #000000; position: fixed;left:64%;top:30%""><img src=""visual/bread.png"" width=""300""></div>","arrowup","","true","experiment","visual/bed.png","visual/bread.png","ArrowUp","non-ortho","","","","","","","","","","","","","","","","","","","","","","","","","","","",""
"","","","","","html-keyboard-response","164","308595","0.0-6.0-0.49","A26RO8GGTQAXGG","2022-05-23T17:52:31.226Z","rhyme-same_different-task_switching-phon_sim","","null","rhyme","<div style=""font-size:60px;"">+</div>","null","250","","","","","","","","","","","","","","","","","","","","","","","","","","","","","","","","","",""
"","","","","","html-keyboard-response","165","309110","0.0-6.0-1.49","A26RO8GGTQAXGG","2022-05-23T17:52:31.226Z","rhyme-same_different-task_switching-phon_sim","","null","rhyme","<img src=""square.png"" width=""306"" height=""306"" style=""position: fixed;left:14%;top:30%""><img src=""square.png"" width=""306"" height=""306"" style=""position: fixed;left:64%;top:30%"">","null","","","","","","","","","","","","","","","","","","","","","","","","","","","","","","","","","","",""
"","","","","","html-keyboard-response","166","310374","0.0-6.0-2.49","A26RO8GGTQAXGG","2022-05-23T17:52:31.226Z","rhyme-same_different-task_switching-phon_sim","","1262.0999999046326","rhyme","<div style=""border: 3px solid #000000; position: fixed;left:14%;top:30%""><img src=""visual/deer.png"" width=""300""></div><div style=""border: 3px solid #000000; position: fixed;left:64%;top:30%""><img src=""visual/beer.png"" width=""300""></div>","arrowup","","true","experiment","visual/deer.png","visual/beer.png","ArrowUp","ortho","","","","","","","","","","","","","","","","","","","","","","","","","","","",""
"","","","","","html-keyboard-response","167","310880","0.0-6.0-0.50","A26RO8GGTQAXGG","2022-05-23T17:52:31.226Z","rhyme-same_different-task_switching-phon_sim","","null","rhyme","<div style=""font-size:60px;"">+</div>","null","500","","","","","","","","","","","","","","","","","","","","","","","","","","","","","","","","","",""
"","","","","","html-keyboard-response","168","311392","0.0-6.0-1.50","A26RO8GGTQAXGG","2022-05-23T17:52:31.226Z","rhyme-same_different-task_switching-phon_sim","","null","rhyme","<img src=""square.png"" width=""306"" height=""306"" style=""position: fixed;left:14%;top:30%""><img src=""square.png"" width=""306"" height=""306"" style=""position: fixed;left:64%;top:30%"">","null","","","","","","","","","","","","","","","","","","","","","","","","","","","","","","","","","","",""
"","","","","","html-keyboard-response","169","313221","0.0-6.0-2.50","A26RO8GGTQAXGG","2022-05-23T17:52:31.226Z","rhyme-same_different-task_switching-phon_sim","","1828.2000000476837","rhyme","<div style=""border: 3px solid #000000; position: fixed;left:14%;top:30%""><img src=""visual/egg.png"" width=""300""></div><div style=""border: 3px solid #000000; position: fixed;left:64%;top:30%""><img src=""visual/ring.png"" width=""300""></div>","arrowdown","","true","experiment","visual/egg.png","visual/ring.png","ArrowDown","NR","","","","","","","","","","","","","","","","","","","","","","","","","","","",""
"","","","","","html-keyboard-response","170","313977","0.0-6.0-0.51","A26RO8GGTQAXGG","2022-05-23T17:52:31.226Z","rhyme-same_different-task_switching-phon_sim","","null","rhyme","<div style=""font-size:60px;"">+</div>","null","750","","","","","","","","","","","","","","","","","","","","","","","","","","","","","","","","","",""
"","","","","","html-keyboard-response","171","314478","0.0-6.0-1.51","A26RO8GGTQAXGG","2022-05-23T17:52:31.226Z","rhyme-same_different-task_switching-phon_sim","","null","rhyme","<img src=""square.png"" width=""306"" height=""306"" style=""position: fixed;left:14%;top:30%""><img src=""square.png"" width=""306"" height=""306"" style=""position: fixed;left:64%;top:30%"">","null","","","","","","","","","","","","","","","","","","","","","","","","","","","","","","","","","","",""
"","","","","","html-keyboard-response","172","317806","0.0-6.0-2.51","A26RO8GGTQAXGG","2022-05-23T17:52:31.226Z","rhyme-same_different-task_switching-phon_sim","","3326.8000000715256","rhyme","<div style=""border: 3px solid #000000; position: fixed;left:14%;top:30%""><img src=""visual/sock.png"" width=""300""></div><div style=""border: 3px solid #000000; position: fixed;left:64%;top:30%""><img src=""visual/clock.png"" width=""300""></div>","arrowup","","true","experiment","visual/sock.png","visual/clock.png","ArrowUp","ortho","","","","","","","","","","","","","","","","","","","","","","","","","","","",""
"","","","","","html-keyboard-response","173","318819","0.0-6.0-0.52","A26RO8GGTQAXGG","2022-05-23T17:52:31.226Z","rhyme-same_different-task_switching-phon_sim","","null","rhyme","<div style=""font-size:60px;"">+</div>","null","1000","","","","","","","","","","","","","","","","","","","","","","","","","","","","","","","","","",""
"","","","","","html-keyboard-response","174","319331","0.0-6.0-1.52","A26RO8GGTQAXGG","2022-05-23T17:52:31.226Z","rhyme-same_different-task_switching-phon_sim","","null","rhyme","<img src=""square.png"" width=""306"" height=""306"" style=""position: fixed;left:14%;top:30%""><img src=""square.png"" width=""306"" height=""306"" style=""position: fixed;left:64%;top:30%"">","null","","","","","","","","","","","","","","","","","","","","","","","","","","","","","","","","","","",""
"","","","","","html-keyboard-response","175","320703","0.0-6.0-2.52","A26RO8GGTQAXGG","2022-05-23T17:52:31.226Z","rhyme-same_different-task_switching-phon_sim","","1370.0999999046326","rhyme","<div style=""border: 3px solid #000000; position: fixed;left:14%;top:30%""><img src=""visual/chain.png"" width=""300""></div><div style=""border: 3px solid #000000; position: fixed;left:64%;top:30%""><img src=""visual/brain.png"" width=""300""></div>","arrowup","","true","experiment","visual/chain.png","visual/brain.png","ArrowUp","ortho","","","","","","","","","","","","","","","","","","","","","","","","","","","",""
"","","","","","html-keyboard-response","176","321459","0.0-6.0-0.53","A26RO8GGTQAXGG","2022-05-23T17:52:31.226Z","rhyme-same_different-task_switching-phon_sim","","null","rhyme","<div style=""font-size:60px;"">+</div>","null","750","","","","","","","","","","","","","","","","","","","","","","","","","","","","","","","","","",""
"","","","","","html-keyboard-response","177","321975","0.0-6.0-1.53","A26RO8GGTQAXGG","2022-05-23T17:52:31.226Z","rhyme-same_different-task_switching-phon_sim","","null","rhyme","<img src=""square.png"" width=""306"" height=""306"" style=""position: fixed;left:14%;top:30%""><img src=""square.png"" width=""306"" height=""306"" style=""position: fixed;left:64%;top:30%"">","null","","","","","","","","","","","","","","","","","","","","","","","","","","","","","","","","","","",""
"","","","","","html-keyboard-response","178","326989","0.0-6.0-2.53","A26RO8GGTQAXGG","2022-05-23T17:52:31.226Z","rhyme-same_different-task_switching-phon_sim","","null","rhyme","<div style=""border: 3px solid #000000; position: fixed;left:14%;top:30%""><img src=""visual/bear.png"" width=""300""></div><div style=""border: 3px solid #000000; position: fixed;left:64%;top:30%""><img src=""visual/hair.png"" width=""300""></div>","null","","false","experiment","visual/bear.png","visual/hair.png","ArrowUp","non-ortho","","","","","","","","","","","","","","","","","","","","","","","","","","","",""
"","","","","","html-keyboard-response","179","327503","0.0-6.0-0.54","A26RO8GGTQAXGG","2022-05-23T17:52:31.226Z","rhyme-same_different-task_switching-phon_sim","","null","rhyme","<div style=""font-size:60px;"">+</div>","null","500","","","","","","","","","","","","","","","","","","","","","","","","","","","","","","","","","",""
"","","","","","html-keyboard-response","180","328019","0.0-6.0-1.54","A26RO8GGTQAXGG","2022-05-23T17:52:31.226Z","rhyme-same_different-task_switching-phon_sim","","null","rhyme","<img src=""square.png"" width=""306"" height=""306"" style=""position: fixed;left:14%;top:30%""><img src=""square.png"" width=""306"" height=""306"" style=""position: fixed;left:64%;top:30%"">","null","","","","","","","","","","","","","","","","","","","","","","","","","","","","","","","","","","",""
"","","","","","html-keyboard-response","181","329734","0.0-6.0-2.54","A26RO8GGTQAXGG","2022-05-23T17:52:31.226Z","rhyme-same_different-task_switching-phon_sim","","1713.6000000238419","rhyme","<div style=""border: 3px solid #000000; position: fixed;left:14%;top:30%""><img src=""visual/plane.png"" width=""300""></div><div style=""border: 3px solid #000000; position: fixed;left:64%;top:30%""><img src=""visual/chain.png"" width=""300""></div>","arrowup","","true","experiment","visual/plane.png","visual/chain.png","ArrowUp","non-ortho","","","","","","","","","","","","","","","","","","","","","","","","","","","",""
"","","","","","html-keyboard-response","182","330247","0.0-6.0-0.55","A26RO8GGTQAXGG","2022-05-23T17:52:31.226Z","rhyme-same_different-task_switching-phon_sim","","null","rhyme","<div style=""font-size:60px;"">+</div>","null","500","","","","","","","","","","","","","","","","","","","","","","","","","","","","","","","","","",""
"","","","","","html-keyboard-response","183","330760","0.0-6.0-1.55","A26RO8GGTQAXGG","2022-05-23T17:52:31.226Z","rhyme-same_different-task_switching-phon_sim","","null","rhyme","<img src=""square.png"" width=""306"" height=""306"" style=""position: fixed;left:14%;top:30%""><img src=""square.png"" width=""306"" height=""306"" style=""position: fixed;left:64%;top:30%"">","null","","","","","","","","","","","","","","","","","","","","","","","","","","","","","","","","","","",""
"","","","","","html-keyboard-response","184","332070","0.0-6.0-2.55","A26RO8GGTQAXGG","2022-05-23T17:52:31.226Z","rhyme-same_different-task_switching-phon_sim","","1307.2999999523163","rhyme","<div style=""border: 3px solid #000000; position: fixed;left:14%;top:30%""><img src=""visual/screw.png"" width=""300""></div><div style=""border: 3px solid #000000; position: fixed;left:64%;top:30%""><img src=""visual/shoe.png"" width=""300""></div>","arrowdown","","false","experiment","visual/screw.png","visual/shoe.png","ArrowUp","non-ortho","","","","","","","","","","","","","","","","","","","","","","","","","","","",""
"","","","","","html-keyboard-response","185","332579","0.0-6.0-0.56","A26RO8GGTQAXGG","2022-05-23T17:52:31.226Z","rhyme-same_different-task_switching-phon_sim","","null","rhyme","<div style=""font-size:60px;"">+</div>","null","500","","","","","","","","","","","","","","","","","","","","","","","","","","","","","","","","","",""
"","","","","","html-keyboard-response","186","333091","0.0-6.0-1.56","A26RO8GGTQAXGG","2022-05-23T17:52:31.226Z","rhyme-same_different-task_switching-phon_sim","","null","rhyme","<img src=""square.png"" width=""306"" height=""306"" style=""position: fixed;left:14%;top:30%""><img src=""square.png"" width=""306"" height=""306"" style=""position: fixed;left:64%;top:30%"">","null","","","","","","","","","","","","","","","","","","","","","","","","","","","","","","","","","","",""
"","","","","","html-keyboard-response","187","334367","0.0-6.0-2.56","A26RO8GGTQAXGG","2022-05-23T17:52:31.226Z","rhyme-same_different-task_switching-phon_sim","","1273.8000000715256","rhyme","<div style=""border: 3px solid #000000; position: fixed;left:14%;top:30%""><img src=""visual/king.png"" width=""300""></div><div style=""border: 3px solid #000000; position: fixed;left:64%;top:30%""><img src=""visual/ring.png"" width=""300""></div>","arrowup","","true","experiment","visual/king.png","visual/ring.png","ArrowUp","ortho","","","","","","","","","","","","","","","","","","","","","","","","","","","",""
"","","","","","html-keyboard-response","188","334882","0.0-6.0-0.57","A26RO8GGTQAXGG","2022-05-23T17:52:31.226Z","rhyme-same_different-task_switching-phon_sim","","null","rhyme","<div style=""font-size:60px;"">+</div>","null","500","","","","","","","","","","","","","","","","","","","","","","","","","","","","","","","","","",""
"","","","","","html-keyboard-response","189","335396","0.0-6.0-1.57","A26RO8GGTQAXGG","2022-05-23T17:52:31.226Z","rhyme-same_different-task_switching-phon_sim","","null","rhyme","<img src=""square.png"" width=""306"" height=""306"" style=""position: fixed;left:14%;top:30%""><img src=""square.png"" width=""306"" height=""306"" style=""position: fixed;left:64%;top:30%"">","null","","","","","","","","","","","","","","","","","","","","","","","","","","","","","","","","","","",""
"","","","","","html-keyboard-response","190","337014","0.0-6.0-2.57","A26RO8GGTQAXGG","2022-05-23T17:52:31.226Z","rhyme-same_different-task_switching-phon_sim","","1617.7000000476837","rhyme","<div style=""border: 3px solid #000000; position: fixed;left:14%;top:30%""><img src=""visual/fly.png"" width=""300""></div><div style=""border: 3px solid #000000; position: fixed;left:64%;top:30%""><img src=""visual/plane.png"" width=""300""></div>","arrowdown","","true","experiment","visual/fly.png","visual/plane.png","ArrowDown","NR","","","","","","","","","","","","","","","","","","","","","","","","","","","",""
"","","","","","html-keyboard-response","191","337275","0.0-6.0-0.58","A26RO8GGTQAXGG","2022-05-23T17:52:31.226Z","rhyme-same_different-task_switching-phon_sim","","null","rhyme","<div style=""font-size:60px;"">+</div>","null","250","","","","","","","","","","","","","","","","","","","","","","","","","","","","","","","","","",""
"","","","","","html-keyboard-response","192","337788","0.0-6.0-1.58","A26RO8GGTQAXGG","2022-05-23T17:52:31.226Z","rhyme-same_different-task_switching-phon_sim","","null","rhyme","<img src=""square.png"" width=""306"" height=""306"" style=""position: fixed;left:14%;top:30%""><img src=""square.png"" width=""306"" height=""306"" style=""position: fixed;left:64%;top:30%"">","null","","","","","","","","","","","","","","","","","","","","","","","","","","","","","","","","","","",""
"","","","","","html-keyboard-response","193","339430","0.0-6.0-2.58","A26RO8GGTQAXGG","2022-05-23T17:52:31.226Z","rhyme-same_different-task_switching-phon_sim","","1641.6999999284744","rhyme","<div style=""border: 3px solid #000000; position: fixed;left:14%;top:30%""><img src=""visual/nail.png"" width=""300""></div><div style=""border: 3px solid #000000; position: fixed;left:64%;top:30%""><img src=""visual/whale.png"" width=""300""></div>","arrowup","","true","experiment","visual/nail.png","visual/whale.png","ArrowUp","non-ortho","","","","","","","","","","","","","","","","","","","","","","","","","","","",""
"","","","","","html-keyboard-response","194","339683","0.0-6.0-0.59","A26RO8GGTQAXGG","2022-05-23T17:52:31.226Z","rhyme-same_different-task_switching-phon_sim","","null","rhyme","<div style=""font-size:60px;"">+</div>","null","250","","","","","","","","","","","","","","","","","","","","","","","","","","","","","","","","","",""
"","","","","","html-keyboard-response","195","340196","0.0-6.0-1.59","A26RO8GGTQAXGG","2022-05-23T17:52:31.226Z","rhyme-same_different-task_switching-phon_sim","","null","rhyme","<img src=""square.png"" width=""306"" height=""306"" style=""position: fixed;left:14%;top:30%""><img src=""square.png"" width=""306"" height=""306"" style=""position: fixed;left:64%;top:30%"">","null","","","","","","","","","","","","","","","","","","","","","","","","","","","","","","","","","","",""
"","","","","","html-keyboard-response","196","341687","0.0-6.0-2.59","A26RO8GGTQAXGG","2022-05-23T17:52:31.226Z","rhyme-same_different-task_switching-phon_sim","","1489.7999999523163","rhyme","<div style=""border: 3px solid #000000; position: fixed;left:14%;top:30%""><img src=""visual/spoon.png"" width=""300""></div><div style=""border: 3px solid #000000; position: fixed;left:64%;top:30%""><img src=""visual/crab.png"" width=""300""></div>","arrowdown","","true","experiment","visual/spoon.png","visual/crab.png","ArrowDown","NR","","","","","","","","","","","","","","","","","","","","","","","","","","","",""
"","","","","","survey-multi-choice","197","346288","0.0-7.0","A26RO8GGTQAXGG","2022-05-23T17:52:31.226Z","rhyme-same_different-task_switching-phon_sim","","4598.599999904633","rhyme","","{""Q0"":""No""}","","","","","","","","[0]","No","","","","","","","","","","","","","","","","","","","","","","","","","",""
"","","","","","survey-text","198","365710","0.0-8.0","A26RO8GGTQAXGG","2022-05-23T17:52:31.226Z","rhyme-same_different-task_switching-phon_sim","","19419.200000047684","rhyme","","{""Q0"":""some were hard to tell what they were supposed to be""}","","","","","","","","","","some were hard to tell what they were supposed to be","","","","","","","","","","","","","","","","","","","","","","","","",""
"","","","","","instructions","199","367671","0.0-9.0","A26RO8GGTQAXGG","2022-05-23T17:52:31.226Z","rhyme-same_different-task_switching-phon_sim","[{""page_index"":0,""viewing_time"":1959.1000000238419}]","1959.3000000715256","rhyme","","","","","","","","","","","","","","","","","","","","","","","","","","","","","","","","","","","","",""
"","","","","","instructions","200","380950","0.0-10.0","A26RO8GGTQAXGG","2022-05-23T17:52:31.226Z","rhyme-same_different-task_switching-phon_sim","[{""page_index"":0,""viewing_time"":13278.699999928474}]","13279","same_different","","","","","","","","","","","","","","","","","","","","","","","","","","","","","","","","","","","","",""
"","","","","","instructions","201","393840","0.0-11.0","A26RO8GGTQAXGG","2022-05-23T17:52:31.226Z","rhyme-same_different-task_switching-phon_sim","[{""page_index"":0,""viewing_time"":12889}]","12889.299999952316","","","","","","","","","","","","","","","","","","","","","","","","","","","","","","","","","","","","","",""
"","","","","","html-keyboard-response","202","394593","0.0-12.0-0.0","A26RO8GGTQAXGG","2022-05-23T17:52:31.226Z","rhyme-same_different-task_switching-phon_sim","","null","same_different","<div style=""font-size:60px"">+</div>","null","","","","","","","","","","","","","","","","","","","","","","","","","","","","","","","","","","",""
"","","","","","html-keyboard-response","203","398063","0.0-12.0-1.0","A26RO8GGTQAXGG","2022-05-23T17:52:31.226Z","rhyme-same_different-task_switching-phon_sim","","3466.600000023842","same_different","[""<img src=\""square.png\"" width=\""100\"" height=\""100\"" style=\""position: fixed;left:39%;top:47%\""><img src=\""square.png\"" width=\""100\"" height=\""100\"" style=\""position: fixed;left:54%;top:47%\""><img src=\""square.png\"" width=\""100\"" height=\""100\"" style=\""position: fixed;left:46.5%;top:32%\""><img src=\""square.png\"" width=\""100\"" height=\""100\"" style=\""position: fixed;left:46.5%;top:61%\""><div style=\""font-size:60px;text-align: center;margin-top:45.5%\"">+</div><div id=\""first\"" style=\""position: fixed;visibility: hidden;left:48%;top:34%\""><img src=\""same_diff_imgs/C14.gif\"" style=\""-webkit-transform: scaleX(-1);transform: scaleX(-1);\""></div><div id=\""delayed\"" style=\""position: fixed;visibility: hidden;left:55%;top:49%\""><img src=\""same_diff_imgs/C09.gif\"" style=\""-webkit-transform: scaleX(-1);transform: scaleX(-1);\""></div>""]","arrowdown","","true","","","","","","","","","identical_image","same_diff_imgs/C14.gif","same_diff_imgs/C09.gif","yes","different","1","","","","","","","","","","","","","","","","","","",""
"","","","","","html-keyboard-response","204","398065","0.0-12.0-2.0","A26RO8GGTQAXGG","2022-05-23T17:52:31.226Z","rhyme-same_different-task_switching-phon_sim","","null",""," ","null","","","","","","","","","","","","","","","","","","","","","","","","","","","","","","","","","","",""
"","","","","","html-keyboard-response","205","398369","0.0-12.0-3.0","A26RO8GGTQAXGG","2022-05-23T17:52:31.226Z","rhyme-same_different-task_switching-phon_sim","","null","same_different"," ","null","","","","","","","","","","","","","","","","","","","","","","","","","","","","","","","","","","",""
"","","","","","html-keyboard-response","206","399131","0.0-12.0-0.1","A26RO8GGTQAXGG","2022-05-23T17:52:31.226Z","rhyme-same_different-task_switching-phon_sim","","null","same_different","<div style=""font-size:60px"">+</div>","null","","","","","","","","","","","","","","","","","","","","","","","","","","","","","","","","","","",""
"","","","","","html-keyboard-response","207","400887","0.0-12.0-1.1","A26RO8GGTQAXGG","2022-05-23T17:52:31.226Z","rhyme-same_different-task_switching-phon_sim","","1754.3999999761581","same_different","[""<img src=\""square.png\"" width=\""100\"" height=\""100\"" style=\""position: fixed;left:39%;top:47%\""><img src=\""square.png\"" width=\""100\"" height=\""100\"" style=\""position: fixed;left:54%;top:47%\""><img src=\""square.png\"" width=\""100\"" height=\""100\"" style=\""position: fixed;left:46.5%;top:32%\""><img src=\""square.png\"" width=\""100\"" height=\""100\"" style=\""position: fixed;left:46.5%;top:61%\""><div style=\""font-size:60px; text-align: center;margin-top:45.5%\"">+</div><div id=\""first\"" style=\""position: fixed;visibility: hidden;left:48%;top:62%\""><img src=\""same_diff_imgs/C09.gif\""></div><div id=\""delayed\"" style=\""position: fixed;visibility: hidden;left:48%;top:34%\""><img src=\""same_diff_imgs/C09.gif\""></div>""]","arrowup","","true","","","","","","","","","identical_image","same_diff_imgs/C09.gif","same_diff_imgs/C09.gif","no","same","","1","","","","","","","","","","","","","","","","","",""
"","","","","","html-keyboard-response","208","400890","0.0-12.0-2.1","A26RO8GGTQAXGG","2022-05-23T17:52:31.226Z","rhyme-same_different-task_switching-phon_sim","","null",""," ","null","","","","","","","","","","","","","","","","","","","","","","","","","","","","","","","","","","",""
