"success","timeout","failed_images","failed_audio","failed_video","trial_type","trial_index","time_elapsed","internal_node_id","worker_id","start_time","experiment_order","view_history","rt","experiment","stimulus","response","phase","word_1","word_2","word_3","word_4","word_5","original_word_set","response_1","response_2","response_3","response_4","response_5","question_order","talk_out_loud","strategy_free_ans","wait_time","correct","image_1","image_2","cor_key","type","judgment_type","stim_1","stim_2","inverted","answer","true_pos","true_neg","false_neg","false_pos","condition","operation","trial_no","symbol_cue","color_cue"
"true","false","[]","[]","[]","preload","0","3620","0.0-0.0","A5P12YJP805RG","2022-05-19T01:32:21.382Z","phon_sim-rhyme-same_different-task_switching","","","","","","","","","","","","","","","","","","","","","","","","","","","","","","","","","","","","","","","",""
"","","","","","instructions","1","5653","0.0-1.0","A5P12YJP805RG","2022-05-19T01:32:21.382Z","phon_sim-rhyme-same_different-task_switching","[{""page_index"":0,""viewing_time"":2032.0999999940395}]","2032.2999999821186","","","","","","","","","","","","","","","","","","","","","","","","","","","","","","","","","","","","","",""
"true","","","","","fullscreen","2","7706","0.0-2.0","A5P12YJP805RG","2022-05-19T01:32:21.382Z","phon_sim-rhyme-same_different-task_switching","","","","","","","","","","","","","","","","","","","","","","","","","","","","","","","","","","","","","","","",""
"","","","","","instructions","3","14270","0.0-3.0","A5P12YJP805RG","2022-05-19T01:32:21.382Z","phon_sim-rhyme-same_different-task_switching","[{""page_index"":0,""viewing_time"":6562.9000000059605}]","6563.0999999940395","phon_sim","","","","","","","","","","","","","","","","","","","","","","","","","","","","","","","","","","","","",""
"","","","","","html-keyboard-response","4","27275","0.0-4.0-0.0","A5P12YJP805RG","2022-05-19T01:32:21.382Z","phon_sim-rhyme-same_different-task_switching","","null","phon_sim","<div style=""display:grid""><h1 id=""word_1"" style=""grid-column:1; grid-row:1"">mad</h1><h1 id=""word_2"" style=""visibility:hidden;grid-column:1; grid-row:1"">man</h1><h1 id=""word_3"" style=""visibility:hidden;grid-column:1; grid-row:1"">map</h1><h1 id=""word_4"" style=""visibility:hidden;grid-column:1; grid-row:1"">mat</h1><h1 id=""word_5"" style=""visibility:hidden;grid-column:1; grid-row:1"">max</h1></div>","null","training","mad","man","map","mat","max","training","","","","","","","","","","","","","","","","","","","","","","","","","","","",""
"","","","","","survey-text","5","33817","0.0-4.0-1.0","A5P12YJP805RG","2022-05-19T01:32:21.382Z","phon_sim-rhyme-same_different-task_switching","","6540.199999988079","phon_sim","","{""position_1"":""dog"",""position_2"":""mat"",""position_3"":""map"",""position_4"":"""",""position_5"":""""}","training","","","","","","","dog","mat","map","","","","","","","","","","","","","","","","","","","","","","","","",""
"","","","","","html-keyboard-response","6","38831","0.0-4.0-2.0","A5P12YJP805RG","2022-05-19T01:32:21.382Z","phon_sim-rhyme-same_different-task_switching","","null","phon_sim","<h1 id=""word_1"">mad</h1><h1 id=""word_2"">man</h1><h1 id=""word_3"">map</h1><h1 id=""word_4"">mat</h1><h1 id=""word_5"">max</h1>","null","","","","","","","","","","","","","","","","","","","","","","","","","","","","","","","","","","",""
"","","","","","html-keyboard-response","7","51842","0.0-4.0-0.1","A5P12YJP805RG","2022-05-19T01:32:21.382Z","phon_sim-rhyme-same_different-task_switching","","null","phon_sim","<div style=""display:grid""><h1 id=""word_1"" style=""grid-column:1; grid-row:1"">pen</h1><h1 id=""word_2"" style=""visibility:hidden;grid-column:1; grid-row:1"">rig</h1><h1 id=""word_3"" style=""visibility:hidden;grid-column:1; grid-row:1"">day</h1><h1 id=""word_4"" style=""visibility:hidden;grid-column:1; grid-row:1"">bar</h1><h1 id=""word_5"" style=""visibility:hidden;grid-column:1; grid-row:1"">cow</h1></div>","null","training","pen","rig","day","bar","cow","training","","","","","","","","","","","","","","","","","","","","","","","","","","","",""
"","","","","","survey-text","8","58805","0.0-4.0-1.1","A5P12YJP805RG","2022-05-19T01:32:21.382Z","phon_sim-rhyme-same_different-task_switching","","6961.300000011921","phon_sim","","{""position_1"":""pen"",""position_2"":""rig"",""position_3"":""day"",""position_4"":""bar"",""position_5"":""cow""}","training","","","","","","","pen","rig","day","bar","cow","","","","","","","","","","","","","","","","","","","","","","",""
"","","","","","html-keyboard-response","9","63814","0.0-4.0-2.1","A5P12YJP805RG","2022-05-19T01:32:21.382Z","phon_sim-rhyme-same_different-task_switching","","null","phon_sim","<h1 id=""word_1"">pen</h1><h1 id=""word_2"">rig</h1><h1 id=""word_3"">day</h1><h1 id=""word_4"">bar</h1><h1 id=""word_5"">cow</h1>","null","","","","","","","","","","","","","","","","","","","","","","","","","","","","","","","","","","",""
"","","","","","instructions","10","64910","0.0-5.0","A5P12YJP805RG","2022-05-19T01:32:21.382Z","phon_sim-rhyme-same_different-task_switching","[{""page_index"":0,""viewing_time"":1095.4000000059605}]","1095.800000011921","","","","","","","","","","","","","","","","","","","","","","","","","","","","","","","","","","","","","",""
"","","","","","html-keyboard-response","11","77920","0.0-6.0-0.0","A5P12YJP805RG","2022-05-19T01:32:21.382Z","phon_sim-rhyme-same_different-task_switching","","null","phon_sim","<div style=""display:grid""><h1 id=""word_1"" style=""grid-column:1; grid-row:1"">bought</h1><h1 id=""word_2"" style=""visibility:hidden;grid-column:1; grid-row:1"">caught</h1><h1 id=""word_3"" style=""visibility:hidden;grid-column:1; grid-row:1"">wart</h1><h1 id=""word_4"" style=""visibility:hidden;grid-column:1; grid-row:1"">taut</h1><h1 id=""word_5"" style=""visibility:hidden;grid-column:1; grid-row:1"">sort</h1></div>","null","experiment","bought","caught","wart","taut","sort","phonSet","","","","","","","","","","","","","","","","","","","","","","","","","","","",""
"","","","","","survey-text","12","84185","0.0-6.0-1.0","A5P12YJP805RG","2022-05-19T01:32:21.382Z","phon_sim-rhyme-same_different-task_switching","","6263.100000023842","phon_sim","","{""position_1"":""bought"",""position_2"":""caught"",""position_3"":""wort"",""position_4"":"""",""position_5"":""""}","experiment","","","","","","","bought","caught","wort","","","","","","","","","","","","","","","","","","","","","","","","",""
"","","","","","html-keyboard-response","13","97194","0.0-6.0-0.1","A5P12YJP805RG","2022-05-19T01:32:21.382Z","phon_sim-rhyme-same_different-task_switching","","null","phon_sim","<div style=""display:grid""><h1 id=""word_1"" style=""grid-column:1; grid-row:1"">friend</h1><h1 id=""word_2"" style=""visibility:hidden;grid-column:1; grid-row:1"">sleigh</h1><h1 id=""word_3"" style=""visibility:hidden;grid-column:1; grid-row:1"">row</h1><h1 id=""word_4"" style=""visibility:hidden;grid-column:1; grid-row:1"">board</h1><h1 id=""word_5"" style=""visibility:hidden;grid-column:1; grid-row:1"">plea</h1></div>","null","experiment","friend","sleigh","row","board","plea","controlSet","","","","","","","","","","","","","","","","","","","","","","","","","","","",""
"","","","","","survey-text","14","103315","0.0-6.0-1.1","A5P12YJP805RG","2022-05-19T01:32:21.382Z","phon_sim-rhyme-same_different-task_switching","","6119","phon_sim","","{""position_1"":""friend"",""position_2"":""sleigh"",""position_3"":""board"",""position_4"":""flew"",""position_5"":""""}","experiment","","","","","","","friend","sleigh","board","flew","","","","","","","","","","","","","","","","","","","","","","","",""
"","","","","","html-keyboard-response","15","116324","0.0-6.0-0.2","A5P12YJP805RG","2022-05-19T01:32:21.382Z","phon_sim-rhyme-same_different-task_switching","","null","phon_sim","<div style=""display:grid""><h1 id=""word_1"" style=""grid-column:1; grid-row:1"">row</h1><h1 id=""word_2"" style=""visibility:hidden;grid-column:1; grid-row:1"">board</h1><h1 id=""word_3"" style=""visibility:hidden;grid-column:1; grid-row:1"">friend</h1><h1 id=""word_4"" style=""visibility:hidden;grid-column:1; grid-row:1"">plea</h1><h1 id=""word_5"" style=""visibility:hidden;grid-column:1; grid-row:1"">sleigh</h1></div>","null","experiment","row","board","friend","plea","sleigh","controlSet","","","","","","","","","","","","","","","","","","","","","","","","","","","",""
"","","","","","survey-text","16","125279","0.0-6.0-1.2","A5P12YJP805RG","2022-05-19T01:32:21.382Z","phon_sim-rhyme-same_different-task_switching","","8952.700000017881","phon_sim","","{""position_1"":""row"",""position_2"":""board"",""position_3"":""friend"",""position_4"":""plea"",""position_5"":""sleigh""}","experiment","","","","","","","row","board","friend","plea","sleigh","","","","","","","","","","","","","","","","","","","","","","",""
"","","","","","html-keyboard-response","17","138292","0.0-6.0-0.3","A5P12YJP805RG","2022-05-19T01:32:21.382Z","phon_sim-rhyme-same_different-task_switching","","null","phon_sim","<div style=""display:grid""><h1 id=""word_1"" style=""grid-column:1; grid-row:1"">through</h1><h1 id=""word_2"" style=""visibility:hidden;grid-column:1; grid-row:1"">bough</h1><h1 id=""word_3"" style=""visibility:hidden;grid-column:1; grid-row:1"">dough</h1><h1 id=""word_4"" style=""visibility:hidden;grid-column:1; grid-row:1"">rough</h1><h1 id=""word_5"" style=""visibility:hidden;grid-column:1; grid-row:1"">cough</h1></div>","null","experiment","through","bough","dough","rough","cough","orthoSet","","","","","","","","","","","","","","","","","","","","","","","","","","","",""
"","","","","","survey-text","18","143697","0.0-6.0-1.3","A5P12YJP805RG","2022-05-19T01:32:21.382Z","phon_sim-rhyme-same_different-task_switching","","5403.300000011921","phon_sim","","{""position_1"":""dough"",""position_2"":""rough"",""position_3"":""cough"",""position_4"":"""",""position_5"":""""}","experiment","","","","","","","dough","rough","cough","","","","","","","","","","","","","","","","","","","","","","","","",""
"","","","","","html-keyboard-response","19","156705","0.0-6.0-0.4","A5P12YJP805RG","2022-05-19T01:32:21.382Z","phon_sim-rhyme-same_different-task_switching","","null","phon_sim","<div style=""display:grid""><h1 id=""word_1"" style=""grid-column:1; grid-row:1"">sort</h1><h1 id=""word_2"" style=""visibility:hidden;grid-column:1; grid-row:1"">bought</h1><h1 id=""word_3"" style=""visibility:hidden;grid-column:1; grid-row:1"">caught</h1><h1 id=""word_4"" style=""visibility:hidden;grid-column:1; grid-row:1"">wart</h1><h1 id=""word_5"" style=""visibility:hidden;grid-column:1; grid-row:1"">taut</h1></div>","null","experiment","sort","bought","caught","wart","taut","phonSet","","","","","","","","","","","","","","","","","","","","","","","","","","","",""
"","","","","","survey-text","20","162932","0.0-6.0-1.4","A5P12YJP805RG","2022-05-19T01:32:21.382Z","phon_sim-rhyme-same_different-task_switching","","6225.399999976158","phon_sim","","{""position_1"":""sort"",""position_2"":""bought"",""position_3"":""caught"",""position_4"":""wort"",""position_5"":""""}","experiment","","","","","","","sort","bought","caught","wort","","","","","","","","","","","","","","","","","","","","","","","",""
"","","","","","html-keyboard-response","21","175940","0.0-6.0-0.5","A5P12YJP805RG","2022-05-19T01:32:21.382Z","phon_sim-rhyme-same_different-task_switching","","null","phon_sim","<div style=""display:grid""><h1 id=""word_1"" style=""grid-column:1; grid-row:1"">taut</h1><h1 id=""word_2"" style=""visibility:hidden;grid-column:1; grid-row:1"">bought</h1><h1 id=""word_3"" style=""visibility:hidden;grid-column:1; grid-row:1"">wart</h1><h1 id=""word_4"" style=""visibility:hidden;grid-column:1; grid-row:1"">caught</h1><h1 id=""word_5"" style=""visibility:hidden;grid-column:1; grid-row:1"">sort</h1></div>","null","experiment","taut","bought","wart","caught","sort","phonSet","","","","","","","","","","","","","","","","","","","","","","","","","","","",""
"","","","","","survey-text","22","181271","0.0-6.0-1.5","A5P12YJP805RG","2022-05-19T01:32:21.382Z","phon_sim-rhyme-same_different-task_switching","","5328.4000000059605","phon_sim","","{""position_1"":""taut"",""position_2"":""bought"",""position_3"":""wart"",""position_4"":""caught"",""position_5"":""""}","experiment","","","","","","","taut","bought","wart","caught","","","","","","","","","","","","","","","","","","","","","","","",""
"","","","","","html-keyboard-response","23","194279","0.0-6.0-0.6","A5P12YJP805RG","2022-05-19T01:32:21.382Z","phon_sim-rhyme-same_different-task_switching","","null","phon_sim","<div style=""display:grid""><h1 id=""word_1"" style=""grid-column:1; grid-row:1"">cough</h1><h1 id=""word_2"" style=""visibility:hidden;grid-column:1; grid-row:1"">through</h1><h1 id=""word_3"" style=""visibility:hidden;grid-column:1; grid-row:1"">dough</h1><h1 id=""word_4"" style=""visibility:hidden;grid-column:1; grid-row:1"">rough</h1><h1 id=""word_5"" style=""visibility:hidden;grid-column:1; grid-row:1"">bough</h1></div>","null","experiment","cough","through","dough","rough","bough","orthoSet","","","","","","","","","","","","","","","","","","","","","","","","","","","",""
"","","","","","survey-text","24","200290","0.0-6.0-1.6","A5P12YJP805RG","2022-05-19T01:32:21.382Z","phon_sim-rhyme-same_different-task_switching","","6008.5999999940395","phon_sim","","{""position_1"":""through"",""position_2"":""dough"",""position_3"":""rough"",""position_4"":"""",""position_5"":""""}","experiment","","","","","","","through","dough","rough","","","","","","","","","","","","","","","","","","","","","","","","",""
"","","","","","html-keyboard-response","25","213300","0.0-6.0-0.7","A5P12YJP805RG","2022-05-19T01:32:21.382Z","phon_sim-rhyme-same_different-task_switching","","null","phon_sim","<div style=""display:grid""><h1 id=""word_1"" style=""grid-column:1; grid-row:1"">taut</h1><h1 id=""word_2"" style=""visibility:hidden;grid-column:1; grid-row:1"">sort</h1><h1 id=""word_3"" style=""visibility:hidden;grid-column:1; grid-row:1"">caught</h1><h1 id=""word_4"" style=""visibility:hidden;grid-column:1; grid-row:1"">bought</h1><h1 id=""word_5"" style=""visibility:hidden;grid-column:1; grid-row:1"">wart</h1></div>","null","experiment","taut","sort","caught","bought","wart","phonSet","","","","","","","","","","","","","","","","","","","","","","","","","","","",""
"","","","","","survey-text","26","218172","0.0-6.0-1.7","A5P12YJP805RG","2022-05-19T01:32:21.382Z","phon_sim-rhyme-same_different-task_switching","","4870.0999999940395","phon_sim","","{""position_1"":""caught"",""position_2"":""bought"",""position_3"":""wart"",""position_4"":"""",""position_5"":""""}","experiment","","","","","","","caught","bought","wart","","","","","","","","","","","","","","","","","","","","","","","","",""
"","","","","","html-keyboard-response","27","231185","0.0-6.0-0.8","A5P12YJP805RG","2022-05-19T01:32:21.382Z","phon_sim-rhyme-same_different-task_switching","","null","phon_sim","<div style=""display:grid""><h1 id=""word_1"" style=""grid-column:1; grid-row:1"">friend</h1><h1 id=""word_2"" style=""visibility:hidden;grid-column:1; grid-row:1"">row</h1><h1 id=""word_3"" style=""visibility:hidden;grid-column:1; grid-row:1"">board</h1><h1 id=""word_4"" style=""visibility:hidden;grid-column:1; grid-row:1"">sleigh</h1><h1 id=""word_5"" style=""visibility:hidden;grid-column:1; grid-row:1"">plea</h1></div>","null","experiment","friend","row","board","sleigh","plea","controlSet","","","","","","","","","","","","","","","","","","","","","","","","","","","",""
"","","","","","survey-text","28","236567","0.0-6.0-1.8","A5P12YJP805RG","2022-05-19T01:32:21.382Z","phon_sim-rhyme-same_different-task_switching","","5380","phon_sim","","{""position_1"":""sleigh"",""position_2"":""plea"",""position_3"":"""",""position_4"":"""",""position_5"":""""}","experiment","","","","","","","sleigh","plea","","","","","","","","","","","","","","","","","","","","","","","","","",""
"","","","","","html-keyboard-response","29","249575","0.0-6.0-0.9","A5P12YJP805RG","2022-05-19T01:32:21.382Z","phon_sim-rhyme-same_different-task_switching","","null","phon_sim","<div style=""display:grid""><h1 id=""word_1"" style=""grid-column:1; grid-row:1"">friend</h1><h1 id=""word_2"" style=""visibility:hidden;grid-column:1; grid-row:1"">board</h1><h1 id=""word_3"" style=""visibility:hidden;grid-column:1; grid-row:1"">row</h1><h1 id=""word_4"" style=""visibility:hidden;grid-column:1; grid-row:1"">plea</h1><h1 id=""word_5"" style=""visibility:hidden;grid-column:1; grid-row:1"">sleigh</h1></div>","null","experiment","friend","board","row","plea","sleigh","controlSet","","","","","","","","","","","","","","","","","","","","","","","","","","","",""
"","","","","","survey-text","30","253137","0.0-6.0-1.9","A5P12YJP805RG","2022-05-19T01:32:21.382Z","phon_sim-rhyme-same_different-task_switching","","3559.2000000178814","phon_sim","","{""position_1"":""plea"",""position_2"":""sleigh"",""position_3"":"""",""position_4"":"""",""position_5"":""""}","experiment","","","","","","","plea","sleigh","","","","","","","","","","","","","","","","","","","","","","","","","",""
"","","","","","html-keyboard-response","31","266153","0.0-6.0-0.10","A5P12YJP805RG","2022-05-19T01:32:21.382Z","phon_sim-rhyme-same_different-task_switching","","null","phon_sim","<div style=""display:grid""><h1 id=""word_1"" style=""grid-column:1; grid-row:1"">bough</h1><h1 id=""word_2"" style=""visibility:hidden;grid-column:1; grid-row:1"">rough</h1><h1 id=""word_3"" style=""visibility:hidden;grid-column:1; grid-row:1"">cough</h1><h1 id=""word_4"" style=""visibility:hidden;grid-column:1; grid-row:1"">through</h1><h1 id=""word_5"" style=""visibility:hidden;grid-column:1; grid-row:1"">dough</h1></div>","null","experiment","bough","rough","cough","through","dough","orthoSet","","","","","","","","","","","","","","","","","","","","","","","","","","","",""
"","","","","","survey-text","32","271243","0.0-6.0-1.10","A5P12YJP805RG","2022-05-19T01:32:21.382Z","phon_sim-rhyme-same_different-task_switching","","5087.699999988079","phon_sim","","{""position_1"":""rough"",""position_2"":""cough"",""position_3"":""through"",""position_4"":""dough"",""position_5"":""""}","experiment","","","","","","","rough","cough","through","dough","","","","","","","","","","","","","","","","","","","","","","","",""
"","","","","","html-keyboard-response","33","284258","0.0-6.0-0.11","A5P12YJP805RG","2022-05-19T01:32:21.382Z","phon_sim-rhyme-same_different-task_switching","","null","phon_sim","<div style=""display:grid""><h1 id=""word_1"" style=""grid-column:1; grid-row:1"">friend</h1><h1 id=""word_2"" style=""visibility:hidden;grid-column:1; grid-row:1"">sleigh</h1><h1 id=""word_3"" style=""visibility:hidden;grid-column:1; grid-row:1"">board</h1><h1 id=""word_4"" style=""visibility:hidden;grid-column:1; grid-row:1"">row</h1><h1 id=""word_5"" style=""visibility:hidden;grid-column:1; grid-row:1"">plea</h1></div>","null","experiment","friend","sleigh","board","row","plea","controlSet","","","","","","","","","","","","","","","","","","","","","","","","","","","",""
"","","","","","survey-text","34","292030","0.0-6.0-1.11","A5P12YJP805RG","2022-05-19T01:32:21.382Z","phon_sim-rhyme-same_different-task_switching","","7769.800000011921","phon_sim","","{""position_1"":""friend"",""position_2"":""sleigh"",""position_3"":""board"",""position_4"":""row"",""position_5"":""flea""}","experiment","","","","","","","friend","sleigh","board","row","flea","","","","","","","","","","","","","","","","","","","","","","",""
"","","","","","html-keyboard-response","35","305032","0.0-6.0-0.12","A5P12YJP805RG","2022-05-19T01:32:21.382Z","phon_sim-rhyme-same_different-task_switching","","null","phon_sim","<div style=""display:grid""><h1 id=""word_1"" style=""grid-column:1; grid-row:1"">wart</h1><h1 id=""word_2"" style=""visibility:hidden;grid-column:1; grid-row:1"">caught</h1><h1 id=""word_3"" style=""visibility:hidden;grid-column:1; grid-row:1"">taut</h1><h1 id=""word_4"" style=""visibility:hidden;grid-column:1; grid-row:1"">sort</h1><h1 id=""word_5"" style=""visibility:hidden;grid-column:1; grid-row:1"">bought</h1></div>","null","experiment","wart","caught","taut","sort","bought","phonSet","","","","","","","","","","","","","","","","","","","","","","","","","","","",""
"","","","","","survey-text","36","310569","0.0-6.0-1.12","A5P12YJP805RG","2022-05-19T01:32:21.382Z","phon_sim-rhyme-same_different-task_switching","","5534.699999988079","phon_sim","","{""position_1"":""wart"",""position_2"":""caught"",""position_3"":""taut"",""position_4"":""sort"",""position_5"":""""}","experiment","","","","","","","wart","caught","taut","sort","","","","","","","","","","","","","","","","","","","","","","","",""
"","","","","","html-keyboard-response","37","323571","0.0-6.0-0.13","A5P12YJP805RG","2022-05-19T01:32:21.382Z","phon_sim-rhyme-same_different-task_switching","","null","phon_sim","<div style=""display:grid""><h1 id=""word_1"" style=""grid-column:1; grid-row:1"">through</h1><h1 id=""word_2"" style=""visibility:hidden;grid-column:1; grid-row:1"">cough</h1><h1 id=""word_3"" style=""visibility:hidden;grid-column:1; grid-row:1"">bough</h1><h1 id=""word_4"" style=""visibility:hidden;grid-column:1; grid-row:1"">rough</h1><h1 id=""word_5"" style=""visibility:hidden;grid-column:1; grid-row:1"">dough</h1></div>","null","experiment","through","cough","bough","rough","dough","orthoSet","","","","","","","","","","","","","","","","","","","","","","","","","","","",""
"","","","","","survey-text","38","330364","0.0-6.0-1.13","A5P12YJP805RG","2022-05-19T01:32:21.382Z","phon_sim-rhyme-same_different-task_switching","","6791.700000017881","phon_sim","","{""position_1"":""bough"",""position_2"":""cough"",""position_3"":""dough"",""position_4"":"""",""position_5"":""""}","experiment","","","","","","","bough","cough","dough","","","","","","","","","","","","","","","","","","","","","","","","",""
"","","","","","html-keyboard-response","39","343376","0.0-6.0-0.14","A5P12YJP805RG","2022-05-19T01:32:21.382Z","phon_sim-rhyme-same_different-task_switching","","null","phon_sim","<div style=""display:grid""><h1 id=""word_1"" style=""grid-column:1; grid-row:1"">plea</h1><h1 id=""word_2"" style=""visibility:hidden;grid-column:1; grid-row:1"">row</h1><h1 id=""word_3"" style=""visibility:hidden;grid-column:1; grid-row:1"">friend</h1><h1 id=""word_4"" style=""visibility:hidden;grid-column:1; grid-row:1"">board</h1><h1 id=""word_5"" style=""visibility:hidden;grid-column:1; grid-row:1"">sleigh</h1></div>","null","experiment","plea","row","friend","board","sleigh","controlSet","","","","","","","","","","","","","","","","","","","","","","","","","","","",""
"","","","","","survey-text","40","349631","0.0-6.0-1.14","A5P12YJP805RG","2022-05-19T01:32:21.382Z","phon_sim-rhyme-same_different-task_switching","","6252.699999988079","phon_sim","","{""position_1"":""plea"",""position_2"":""row"",""position_3"":""friend"",""position_4"":""board"",""position_5"":""sleigh""}","experiment","","","","","","","plea","row","friend","board","sleigh","","","","","","","","","","","","","","","","","","","","","","",""
"","","","","","html-keyboard-response","41","362647","0.0-6.0-0.15","A5P12YJP805RG","2022-05-19T01:32:21.382Z","phon_sim-rhyme-same_different-task_switching","","null","phon_sim","<div style=""display:grid""><h1 id=""word_1"" style=""grid-column:1; grid-row:1"">dough</h1><h1 id=""word_2"" style=""visibility:hidden;grid-column:1; grid-row:1"">bough</h1><h1 id=""word_3"" style=""visibility:hidden;grid-column:1; grid-row:1"">rough</h1><h1 id=""word_4"" style=""visibility:hidden;grid-column:1; grid-row:1"">through</h1><h1 id=""word_5"" style=""visibility:hidden;grid-column:1; grid-row:1"">cough</h1></div>","null","experiment","dough","bough","rough","through","cough","orthoSet","","","","","","","","","","","","","","","","","","","","","","","","","","","",""
"","","","","","survey-text","42","371066","0.0-6.0-1.15","A5P12YJP805RG","2022-05-19T01:32:21.382Z","phon_sim-rhyme-same_different-task_switching","","8416.799999982119","phon_sim","","{""position_1"":""dough"",""position_2"":""bough"",""position_3"":""rough"",""position_4"":""through"",""position_5"":""cough""}","experiment","","","","","","","dough","bough","rough","through","cough","","","","","","","","","","","","","","","","","","","","","","",""
"","","","","","html-keyboard-response","43","384075","0.0-6.0-0.16","A5P12YJP805RG","2022-05-19T01:32:21.382Z","phon_sim-rhyme-same_different-task_switching","","null","phon_sim","<div style=""display:grid""><h1 id=""word_1"" style=""grid-column:1; grid-row:1"">through</h1><h1 id=""word_2"" style=""visibility:hidden;grid-column:1; grid-row:1"">bough</h1><h1 id=""word_3"" style=""visibility:hidden;grid-column:1; grid-row:1"">rough</h1><h1 id=""word_4"" style=""visibility:hidden;grid-column:1; grid-row:1"">dough</h1><h1 id=""word_5"" style=""visibility:hidden;grid-column:1; grid-row:1"">cough</h1></div>","null","experiment","through","bough","rough","dough","cough","orthoSet","","","","","","","","","","","","","","","","","","","","","","","","","","","",""
"","","","","","survey-text","44","390645","0.0-6.0-1.16","A5P12YJP805RG","2022-05-19T01:32:21.382Z","phon_sim-rhyme-same_different-task_switching","","6568.300000011921","phon_sim","","{""position_1"":""rough"",""position_2"":""dough"",""position_3"":""bough"",""position_4"":""cough"",""position_5"":""""}","experiment","","","","","","","rough","dough","bough","cough","","","","","","","","","","","","","","","","","","","","","","","",""
"","","","","","html-keyboard-response","45","403655","0.0-6.0-0.17","A5P12YJP805RG","2022-05-19T01:32:21.382Z","phon_sim-rhyme-same_different-task_switching","","null","phon_sim","<div style=""display:grid""><h1 id=""word_1"" style=""grid-column:1; grid-row:1"">bough</h1><h1 id=""word_2"" style=""visibility:hidden;grid-column:1; grid-row:1"">dough</h1><h1 id=""word_3"" style=""visibility:hidden;grid-column:1; grid-row:1"">rough</h1><h1 id=""word_4"" style=""visibility:hidden;grid-column:1; grid-row:1"">cough</h1><h1 id=""word_5"" style=""visibility:hidden;grid-column:1; grid-row:1"">through</h1></div>","null","experiment","bough","dough","rough","cough","through","orthoSet","","","","","","","","","","","","","","","","","","","","","","","","","","","",""
"","","","","","survey-text","46","411416","0.0-6.0-1.17","A5P12YJP805RG","2022-05-19T01:32:21.382Z","phon_sim-rhyme-same_different-task_switching","","7758.800000011921","phon_sim","","{""position_1"":""bough"",""position_2"":""dough"",""position_3"":""rough"",""position_4"":""cough"",""position_5"":""""}","experiment","","","","","","","bough","dough","rough","cough","","","","","","","","","","","","","","","","","","","","","","","",""
"","","","","","html-keyboard-response","47","424419","0.0-6.0-0.18","A5P12YJP805RG","2022-05-19T01:32:21.382Z","phon_sim-rhyme-same_different-task_switching","","null","phon_sim","<div style=""display:grid""><h1 id=""word_1"" style=""grid-column:1; grid-row:1"">row</h1><h1 id=""word_2"" style=""visibility:hidden;grid-column:1; grid-row:1"">plea</h1><h1 id=""word_3"" style=""visibility:hidden;grid-column:1; grid-row:1"">friend</h1><h1 id=""word_4"" style=""visibility:hidden;grid-column:1; grid-row:1"">board</h1><h1 id=""word_5"" style=""visibility:hidden;grid-column:1; grid-row:1"">sleigh</h1></div>","null","experiment","row","plea","friend","board","sleigh","controlSet","","","","","","","","","","","","","","","","","","","","","","","","","","","",""
"","","","","","survey-text","48","430875","0.0-6.0-1.18","A5P12YJP805RG","2022-05-19T01:32:21.382Z","phon_sim-rhyme-same_different-task_switching","","6454.100000023842","phon_sim","","{""position_1"":""row"",""position_2"":""plea"",""position_3"":""friend"",""position_4"":""board"",""position_5"":""sleigh""}","experiment","","","","","","","row","plea","friend","board","sleigh","","","","","","","","","","","","","","","","","","","","","","",""
"","","","","","html-keyboard-response","49","443883","0.0-6.0-0.19","A5P12YJP805RG","2022-05-19T01:32:21.382Z","phon_sim-rhyme-same_different-task_switching","","null","phon_sim","<div style=""display:grid""><h1 id=""word_1"" style=""grid-column:1; grid-row:1"">taut</h1><h1 id=""word_2"" style=""visibility:hidden;grid-column:1; grid-row:1"">wart</h1><h1 id=""word_3"" style=""visibility:hidden;grid-column:1; grid-row:1"">caught</h1><h1 id=""word_4"" style=""visibility:hidden;grid-column:1; grid-row:1"">bought</h1><h1 id=""word_5"" style=""visibility:hidden;grid-column:1; grid-row:1"">sort</h1></div>","null","experiment","taut","wart","caught","bought","sort","phonSet","","","","","","","","","","","","","","","","","","","","","","","","","","","",""
"","","","","","survey-text","50","449414","0.0-6.0-1.19","A5P12YJP805RG","2022-05-19T01:32:21.382Z","phon_sim-rhyme-same_different-task_switching","","5528.300000011921","phon_sim","","{""position_1"":""taut"",""position_2"":""wart"",""position_3"":""caught"",""position_4"":"""",""position_5"":""""}","experiment","","","","","","","taut","wart","caught","","","","","","","","","","","","","","","","","","","","","","","","",""
"","","","","","html-keyboard-response","51","462427","0.0-6.0-0.20","A5P12YJP805RG","2022-05-19T01:32:21.382Z","phon_sim-rhyme-same_different-task_switching","","null","phon_sim","<div style=""display:grid""><h1 id=""word_1"" style=""grid-column:1; grid-row:1"">cough</h1><h1 id=""word_2"" style=""visibility:hidden;grid-column:1; grid-row:1"">through</h1><h1 id=""word_3"" style=""visibility:hidden;grid-column:1; grid-row:1"">bough</h1><h1 id=""word_4"" style=""visibility:hidden;grid-column:1; grid-row:1"">rough</h1><h1 id=""word_5"" style=""visibility:hidden;grid-column:1; grid-row:1"">dough</h1></div>","null","experiment","cough","through","bough","rough","dough","orthoSet","","","","","","","","","","","","","","","","","","","","","","","","","","","",""
"","","","","","survey-text","52","468208","0.0-6.0-1.20","A5P12YJP805RG","2022-05-19T01:32:21.382Z","phon_sim-rhyme-same_different-task_switching","","5778.699999988079","phon_sim","","{""position_1"":""caught"",""position_2"":""through"",""position_3"":""bough"",""position_4"":""rough"",""position_5"":""""}","experiment","","","","","","","caught","through","bough","rough","","","","","","","","","","","","","","","","","","","","","","","",""
"","","","","","html-keyboard-response","53","481218","0.0-6.0-0.21","A5P12YJP805RG","2022-05-19T01:32:21.382Z","phon_sim-rhyme-same_different-task_switching","","null","phon_sim","<div style=""display:grid""><h1 id=""word_1"" style=""grid-column:1; grid-row:1"">caught</h1><h1 id=""word_2"" style=""visibility:hidden;grid-column:1; grid-row:1"">sort</h1><h1 id=""word_3"" style=""visibility:hidden;grid-column:1; grid-row:1"">bought</h1><h1 id=""word_4"" style=""visibility:hidden;grid-column:1; grid-row:1"">taut</h1><h1 id=""word_5"" style=""visibility:hidden;grid-column:1; grid-row:1"">wart</h1></div>","null","experiment","caught","sort","bought","taut","wart","phonSet","","","","","","","","","","","","","","","","","","","","","","","","","","","",""
"","","","","","survey-text","54","487236","0.0-6.0-1.21","A5P12YJP805RG","2022-05-19T01:32:21.382Z","phon_sim-rhyme-same_different-task_switching","","6015.899999976158","phon_sim","","{""position_1"":""cough"",""position_2"":""sort"",""position_3"":""bough"",""position_4"":"""",""position_5"":""""}","experiment","","","","","","","cough","sort","bough","","","","","","","","","","","","","","","","","","","","","","","","",""
"","","","","","html-keyboard-response","55","500246","0.0-6.0-0.22","A5P12YJP805RG","2022-05-19T01:32:21.382Z","phon_sim-rhyme-same_different-task_switching","","null","phon_sim","<div style=""display:grid""><h1 id=""word_1"" style=""grid-column:1; grid-row:1"">friend</h1><h1 id=""word_2"" style=""visibility:hidden;grid-column:1; grid-row:1"">sleigh</h1><h1 id=""word_3"" style=""visibility:hidden;grid-column:1; grid-row:1"">plea</h1><h1 id=""word_4"" style=""visibility:hidden;grid-column:1; grid-row:1"">row</h1><h1 id=""word_5"" style=""visibility:hidden;grid-column:1; grid-row:1"">board</h1></div>","null","experiment","friend","sleigh","plea","row","board","controlSet","","","","","","","","","","","","","","","","","","","","","","","","","","","",""
"","","","","","survey-text","56","505614","0.0-6.0-1.22","A5P12YJP805RG","2022-05-19T01:32:21.382Z","phon_sim-rhyme-same_different-task_switching","","5366.299999982119","phon_sim","","{""position_1"":""friend"",""position_2"":""sleigh"",""position_3"":""plea"",""position_4"":"""",""position_5"":""""}","experiment","","","","","","","friend","sleigh","plea","","","","","","","","","","","","","","","","","","","","","","","","",""
"","","","","","html-keyboard-response","57","518629","0.0-6.0-0.23","A5P12YJP805RG","2022-05-19T01:32:21.382Z","phon_sim-rhyme-same_different-task_switching","","null","phon_sim","<div style=""display:grid""><h1 id=""word_1"" style=""grid-column:1; grid-row:1"">wart</h1><h1 id=""word_2"" style=""visibility:hidden;grid-column:1; grid-row:1"">taut</h1><h1 id=""word_3"" style=""visibility:hidden;grid-column:1; grid-row:1"">sort</h1><h1 id=""word_4"" style=""visibility:hidden;grid-column:1; grid-row:1"">bought</h1><h1 id=""word_5"" style=""visibility:hidden;grid-column:1; grid-row:1"">caught</h1></div>","null","experiment","wart","taut","sort","bought","caught","phonSet","","","","","","","","","","","","","","","","","","","","","","","","","","","",""
"","","","","","survey-text","58","525177","0.0-6.0-1.23","A5P12YJP805RG","2022-05-19T01:32:21.382Z","phon_sim-rhyme-same_different-task_switching","","6545.700000017881","phon_sim","","{""position_1"":""wart"",""position_2"":""taut"",""position_3"":""sort"",""position_4"":""bought"",""position_5"":""caught""}","experiment","","","","","","","wart","taut","sort","bought","caught","","","","","","","","","","","","","","","","","","","","","","",""
"","","","","","survey-multi-choice","59","529137","0.0-7.0","A5P12YJP805RG","2022-05-19T01:32:21.382Z","phon_sim-rhyme-same_different-task_switching","","3959.199999988079","phon_sim","","{""Q0"":""No""}","","","","","","","","","","","","","[0]","No","","","","","","","","","","","","","","","","","","","","",""
"","","","","","survey-text","60","531906","0.0-8.0","A5P12YJP805RG","2022-05-19T01:32:21.382Z","phon_sim-rhyme-same_different-task_switching","","2766.4000000059605","phon_sim","","{""Q0"":""""}","","","","","","","","","","","","","","","","","","","","","","","","","","","","","","","","","","",""
"","","","","","instructions","61","533394","0.0-9.0","A5P12YJP805RG","2022-05-19T01:32:21.382Z","phon_sim-rhyme-same_different-task_switching","[{""page_index"":0,""viewing_time"":1487.5999999940395}]","1487.800000011921","phon_sim","","","","","","","","","","","","","","","","","","","","","","","","","","","","","","","","","","","","",""
"","","","","","instructions","62","551541","0.0-10.0","A5P12YJP805RG","2022-05-19T01:32:21.382Z","phon_sim-rhyme-same_different-task_switching","[{""page_index"":0,""viewing_time"":18146.30000001192}]","18146.59999999404","rhyme","","","","","","","","","","","","","","","","","","","","","","","","","","","","","","","","","","","","",""
"","","","","","html-keyboard-response","63","552294","0.0-11.0-0.0","A5P12YJP805RG","2022-05-19T01:32:21.382Z","phon_sim-rhyme-same_different-task_switching","","null","rhyme","<div style=""font-size:60px;"">+</div>","null","","","","","","","","","","","","","","","","750","","","","","","","","","","","","","","","","","","",""
"","","","","","html-keyboard-response","64","552809","0.0-11.0-1.0","A5P12YJP805RG","2022-05-19T01:32:21.382Z","phon_sim-rhyme-same_different-task_switching","","null","rhyme","<img src=""square.png"" width=""306"" height=""306"" style=""position: fixed;left:14%;top:30%""><img src=""square.png"" width=""306"" height=""306"" style=""position: fixed;left:64%;top:30%"">","null","","","","","","","","","","","","","","","","","","","","","","","","","","","","","","","","","","",""
"","","","","","categorize-html","65","558003","0.0-11.0-2.0","A5P12YJP805RG","2022-05-19T01:32:21.382Z","phon_sim-rhyme-same_different-task_switching","","4179.4000000059605","rhyme","<div style=""border: 3px solid #000000; position: fixed;left:14%;top:30%""><img src=""visual/mouse.png"" width=""300""></div><div style=""border: 3px solid #000000; position: fixed;left:64%;top:30%""><img src=""visual/dress.png"" width=""300""></div>","arrowdown","training","","","","","","","","","","","","","","","","true","visual/mouse.png","visual/dress.png","ArrowDown","NA","","","","","","","","","","","","","",""
"","","","","","html-keyboard-response","66","559011","0.0-11.0-0.1","A5P12YJP805RG","2022-05-19T01:32:21.382Z","phon_sim-rhyme-same_different-task_switching","","null","rhyme","<div style=""font-size:60px;"">+</div>","null","","","","","","","","","","","","","","","","1000","","","","","","","","","","","","","","","","","","",""
"","","","","","html-keyboard-response","67","559524","0.0-11.0-1.1","A5P12YJP805RG","2022-05-19T01:32:21.382Z","phon_sim-rhyme-same_different-task_switching","","null","rhyme","<img src=""square.png"" width=""306"" height=""306"" style=""position: fixed;left:14%;top:30%""><img src=""square.png"" width=""306"" height=""306"" style=""position: fixed;left:64%;top:30%"">","null","","","","","","","","","","","","","","","","","","","","","","","","","","","","","","","","","","",""
"","","","","","categorize-html","68","562348","0.0-11.0-2.1","A5P12YJP805RG","2022-05-19T01:32:21.382Z","phon_sim-rhyme-same_different-task_switching","","1816.800000011921","rhyme","<div style=""border: 3px solid #000000; position: fixed;left:14%;top:30%""><img src=""visual/house.png"" width=""300""></div><div style=""border: 3px solid #000000; position: fixed;left:64%;top:30%""><img src=""visual/mouse.png"" width=""300""></div>","arrowup","training","","","","","","","","","","","","","","","","true","visual/house.png","visual/mouse.png","ArrowUp","NA","","","","","","","","","","","","","",""
"","","","","","html-keyboard-response","69","563350","0.0-11.0-0.2","A5P12YJP805RG","2022-05-19T01:32:21.382Z","phon_sim-rhyme-same_different-task_switching","","null","rhyme","<div style=""font-size:60px;"">+</div>","null","","","","","","","","","","","","","","","","1000","","","","","","","","","","","","","","","","","","",""
"","","","","","html-keyboard-response","70","563860","0.0-11.0-1.2","A5P12YJP805RG","2022-05-19T01:32:21.382Z","phon_sim-rhyme-same_different-task_switching","","null","rhyme","<img src=""square.png"" width=""306"" height=""306"" style=""position: fixed;left:14%;top:30%""><img src=""square.png"" width=""306"" height=""306"" style=""position: fixed;left:64%;top:30%"">","null","","","","","","","","","","","","","","","","","","","","","","","","","","","","","","","","","","",""
"","","","","","categorize-html","71","566378","0.0-11.0-2.2","A5P12YJP805RG","2022-05-19T01:32:21.382Z","phon_sim-rhyme-same_different-task_switching","","1506.2999999821186","rhyme","<div style=""border: 3px solid #000000; position: fixed;left:14%;top:30%""><img src=""visual/dress.png"" width=""300""></div><div style=""border: 3px solid #000000; position: fixed;left:64%;top:30%""><img src=""visual/chess.png"" width=""300""></div>","arrowdown","training","","","","","","","","","","","","","","","","false","visual/dress.png","visual/chess.png","ArrowUp","NA","","","","","","","","","","","","","",""
"","","","","","html-keyboard-response","72","567384","0.0-11.0-0.3","A5P12YJP805RG","2022-05-19T01:32:21.382Z","phon_sim-rhyme-same_different-task_switching","","null","rhyme","<div style=""font-size:60px;"">+</div>","null","","","","","","","","","","","","","","","","1000","","","","","","","","","","","","","","","","","","",""
"","","","","","html-keyboard-response","73","567895","0.0-11.0-1.3","A5P12YJP805RG","2022-05-19T01:32:21.382Z","phon_sim-rhyme-same_different-task_switching","","null","rhyme","<img src=""square.png"" width=""306"" height=""306"" style=""position: fixed;left:14%;top:30%""><img src=""square.png"" width=""306"" height=""306"" style=""position: fixed;left:64%;top:30%"">","null","","","","","","","","","","","","","","","","","","","","","","","","","","","","","","","","","","",""
"","","","","","categorize-html","74","571404","0.0-11.0-2.3","A5P12YJP805RG","2022-05-19T01:32:21.382Z","phon_sim-rhyme-same_different-task_switching","","2503.7999999821186","rhyme","<div style=""border: 3px solid #000000; position: fixed;left:14%;top:30%""><img src=""visual/chess.png"" width=""300""></div><div style=""border: 3px solid #000000; position: fixed;left:64%;top:30%""><img src=""visual/suit.png"" width=""300""></div>","arrowdown","training","","","","","","","","","","","","","","","","true","visual/chess.png","visual/suit.png","ArrowDown","NA","","","","","","","","","","","","","",""
"","","","","","instructions","75","573736","0.0-12.0","A5P12YJP805RG","2022-05-19T01:32:21.382Z","phon_sim-rhyme-same_different-task_switching","[{""page_index"":0,""viewing_time"":2331.4000000059605}]","2331.600000023842","","","","","","","","","","","","","","","","","","","","","","","","","","","","","","","","","","","","","",""
"","","","","","html-keyboard-response","76","574737","0.0-13.0-0.0","A5P12YJP805RG","2022-05-19T01:32:21.382Z","phon_sim-rhyme-same_different-task_switching","","null","rhyme","<div style=""font-size:60px;"">+</div>","null","","","","","","","","","","","","","","","","1000","","","","","","","","","","","","","","","","","","",""
"","","","","","html-keyboard-response","77","575250","0.0-13.0-1.0","A5P12YJP805RG","2022-05-19T01:32:21.382Z","phon_sim-rhyme-same_different-task_switching","","null","rhyme","<img src=""square.png"" width=""306"" height=""306"" style=""position: fixed;left:14%;top:30%""><img src=""square.png"" width=""306"" height=""306"" style=""position: fixed;left:64%;top:30%"">","null","","","","","","","","","","","","","","","","","","","","","","","","","","","","","","","","","","",""
"","","","","","html-keyboard-response","78","577273","0.0-13.0-2.0","A5P12YJP805RG","2022-05-19T01:32:21.382Z","phon_sim-rhyme-same_different-task_switching","","2021.7999999821186","rhyme","<div style=""border: 3px solid #000000; position: fixed;left:14%;top:30%""><img src=""visual/tree.png"" width=""300""></div><div style=""border: 3px solid #000000; position: fixed;left:64%;top:30%""><img src=""visual/door.png"" width=""300""></div>","arrowdown","experiment","","","","","","","","","","","","","","","","true","visual/tree.png","visual/door.png","ArrowDown","NR","","","","","","","","","","","","","",""
"","","","","","html-keyboard-response","79","577526","0.0-13.0-0.1","A5P12YJP805RG","2022-05-19T01:32:21.382Z","phon_sim-rhyme-same_different-task_switching","","null","rhyme","<div style=""font-size:60px;"">+</div>","null","","","","","","","","","","","","","","","","250","","","","","","","","","","","","","","","","","","",""
"","","","","","html-keyboard-response","80","578039","0.0-13.0-1.1","A5P12YJP805RG","2022-05-19T01:32:21.382Z","phon_sim-rhyme-same_different-task_switching","","null","rhyme","<img src=""square.png"" width=""306"" height=""306"" style=""position: fixed;left:14%;top:30%""><img src=""square.png"" width=""306"" height=""306"" style=""position: fixed;left:64%;top:30%"">","null","","","","","","","","","","","","","","","","","","","","","","","","","","","","","","","","","","",""
"","","","","","html-keyboard-response","81","580081","0.0-13.0-2.1","A5P12YJP805RG","2022-05-19T01:32:21.382Z","phon_sim-rhyme-same_different-task_switching","","2041","rhyme","<div style=""border: 3px solid #000000; position: fixed;left:14%;top:30%""><img src=""visual/bin.png"" width=""300""></div><div style=""border: 3px solid #000000; position: fixed;left:64%;top:30%""><img src=""visual/chin.png"" width=""300""></div>","arrowdown","experiment","","","","","","","","","","","","","","","","false","visual/bin.png","visual/chin.png","ArrowUp","ortho","","","","","","","","","","","","","",""
"","","","","","html-keyboard-response","82","581082","0.0-13.0-0.2","A5P12YJP805RG","2022-05-19T01:32:21.382Z","phon_sim-rhyme-same_different-task_switching","","null","rhyme","<div style=""font-size:60px;"">+</div>","null","","","","","","","","","","","","","","","","1000","","","","","","","","","","","","","","","","","","",""
"","","","","","html-keyboard-response","83","581590","0.0-13.0-1.2","A5P12YJP805RG","2022-05-19T01:32:21.382Z","phon_sim-rhyme-same_different-task_switching","","null","rhyme","<img src=""square.png"" width=""306"" height=""306"" style=""position: fixed;left:14%;top:30%""><img src=""square.png"" width=""306"" height=""306"" style=""position: fixed;left:64%;top:30%"">","null","","","","","","","","","","","","","","","","","","","","","","","","","","","","","","","","","","",""
"","","","","","html-keyboard-response","84","583201","0.0-13.0-2.2","A5P12YJP805RG","2022-05-19T01:32:21.382Z","phon_sim-rhyme-same_different-task_switching","","1610.2000000178814","rhyme","<div style=""border: 3px solid #000000; position: fixed;left:14%;top:30%""><img src=""visual/well.png"" width=""300""></div><div style=""border: 3px solid #000000; position: fixed;left:64%;top:30%""><img src=""visual/bell.png"" width=""300""></div>","arrowup","experiment","","","","","","","","","","","","","","","","true","visual/well.png","visual/bell.png","ArrowUp","ortho","","","","","","","","","","","","","",""
"","","","","","html-keyboard-response","85","583464","0.0-13.0-0.3","A5P12YJP805RG","2022-05-19T01:32:21.382Z","phon_sim-rhyme-same_different-task_switching","","null","rhyme","<div style=""font-size:60px;"">+</div>","null","","","","","","","","","","","","","","","","250","","","","","","","","","","","","","","","","","","",""
"","","","","","html-keyboard-response","86","583974","0.0-13.0-1.3","A5P12YJP805RG","2022-05-19T01:32:21.382Z","phon_sim-rhyme-same_different-task_switching","","null","rhyme","<img src=""square.png"" width=""306"" height=""306"" style=""position: fixed;left:14%;top:30%""><img src=""square.png"" width=""306"" height=""306"" style=""position: fixed;left:64%;top:30%"">","null","","","","","","","","","","","","","","","","","","","","","","","","","","","","","","","","","","",""
"","","","","","html-keyboard-response","87","585842","0.0-13.0-2.3","A5P12YJP805RG","2022-05-19T01:32:21.382Z","phon_sim-rhyme-same_different-task_switching","","1866.4000000059605","rhyme","<div style=""border: 3px solid #000000; position: fixed;left:14%;top:30%""><img src=""visual/spoon.png"" width=""300""></div><div style=""border: 3px solid #000000; position: fixed;left:64%;top:30%""><img src=""visual/crab.png"" width=""300""></div>","arrowdown","experiment","","","","","","","","","","","","","","","","true","visual/spoon.png","visual/crab.png","ArrowDown","NR","","","","","","","","","","","","","",""
"","","","","","html-keyboard-response","88","586108","0.0-13.0-0.4","A5P12YJP805RG","2022-05-19T01:32:21.382Z","phon_sim-rhyme-same_different-task_switching","","null","rhyme","<div style=""font-size:60px;"">+</div>","null","","","","","","","","","","","","","","","","250","","","","","","","","","","","","","","","","","","",""
"","","","","","html-keyboard-response","89","586620","0.0-13.0-1.4","A5P12YJP805RG","2022-05-19T01:32:21.382Z","phon_sim-rhyme-same_different-task_switching","","null","rhyme","<img src=""square.png"" width=""306"" height=""306"" style=""position: fixed;left:14%;top:30%""><img src=""square.png"" width=""306"" height=""306"" style=""position: fixed;left:64%;top:30%"">","null","","","","","","","","","","","","","","","","","","","","","","","","","","","","","","","","","","",""
"","","","","","html-keyboard-response","90","588355","0.0-13.0-2.4","A5P12YJP805RG","2022-05-19T01:32:21.382Z","phon_sim-rhyme-same_different-task_switching","","1733.4000000059605","rhyme","<div style=""border: 3px solid #000000; position: fixed;left:14%;top:30%""><img src=""visual/snail.png"" width=""300""></div><div style=""border: 3px solid #000000; position: fixed;left:64%;top:30%""><img src=""visual/whale.png"" width=""300""></div>","arrowup","experiment","","","","","","","","","","","","","","","","true","visual/snail.png","visual/whale.png","ArrowUp","non-ortho","","","","","","","","","","","","","",""
"","","","","","html-keyboard-response","91","589371","0.0-13.0-0.5","A5P12YJP805RG","2022-05-19T01:32:21.382Z","phon_sim-rhyme-same_different-task_switching","","null","rhyme","<div style=""font-size:60px;"">+</div>","null","","","","","","","","","","","","","","","","1000","","","","","","","","","","","","","","","","","","",""
"","","","","","html-keyboard-response","92","589884","0.0-13.0-1.5","A5P12YJP805RG","2022-05-19T01:32:21.382Z","phon_sim-rhyme-same_different-task_switching","","null","rhyme","<img src=""square.png"" width=""306"" height=""306"" style=""position: fixed;left:14%;top:30%""><img src=""square.png"" width=""306"" height=""306"" style=""position: fixed;left:64%;top:30%"">","null","","","","","","","","","","","","","","","","","","","","","","","","","","","","","","","","","","",""
"","","","","","html-keyboard-response","93","591770","0.0-13.0-2.5","A5P12YJP805RG","2022-05-19T01:32:21.382Z","phon_sim-rhyme-same_different-task_switching","","1885.300000011921","rhyme","<div style=""border: 3px solid #000000; position: fixed;left:14%;top:30%""><img src=""visual/plane.png"" width=""300""></div><div style=""border: 3px solid #000000; position: fixed;left:64%;top:30%""><img src=""visual/chain.png"" width=""300""></div>","arrowup","experiment","","","","","","","","","","","","","","","","true","visual/plane.png","visual/chain.png","ArrowUp","non-ortho","","","","","","","","","","","","","",""
"","","","","","html-keyboard-response","94","592534","0.0-13.0-0.6","A5P12YJP805RG","2022-05-19T01:32:21.382Z","phon_sim-rhyme-same_different-task_switching","","null","rhyme","<div style=""font-size:60px;"">+</div>","null","","","","","","","","","","","","","","","","750","","","","","","","","","","","","","","","","","","",""
"","","","","","html-keyboard-response","95","593045","0.0-13.0-1.6","A5P12YJP805RG","2022-05-19T01:32:21.382Z","phon_sim-rhyme-same_different-task_switching","","null","rhyme","<img src=""square.png"" width=""306"" height=""306"" style=""position: fixed;left:14%;top:30%""><img src=""square.png"" width=""306"" height=""306"" style=""position: fixed;left:64%;top:30%"">","null","","","","","","","","","","","","","","","","","","","","","","","","","","","","","","","","","","",""
"","","","","","html-keyboard-response","96","594531","0.0-13.0-2.6","A5P12YJP805RG","2022-05-19T01:32:21.382Z","phon_sim-rhyme-same_different-task_switching","","1484.9000000059605","rhyme","<div style=""border: 3px solid #000000; position: fixed;left:14%;top:30%""><img src=""visual/cake.png"" width=""300""></div><div style=""border: 3px solid #000000; position: fixed;left:64%;top:30%""><img src=""visual/rake.png"" width=""300""></div>","arrowdown","experiment","","","","","","","","","","","","","","","","false","visual/cake.png","visual/rake.png","ArrowUp","ortho","","","","","","","","","","","","","",""
"","","","","","html-keyboard-response","97","595294","0.0-13.0-0.7","A5P12YJP805RG","2022-05-19T01:32:21.382Z","phon_sim-rhyme-same_different-task_switching","","null","rhyme","<div style=""font-size:60px;"">+</div>","null","","","","","","","","","","","","","","","","750","","","","","","","","","","","","","","","","","","",""
"","","","","","html-keyboard-response","98","595804","0.0-13.0-1.7","A5P12YJP805RG","2022-05-19T01:32:21.382Z","phon_sim-rhyme-same_different-task_switching","","null","rhyme","<img src=""square.png"" width=""306"" height=""306"" style=""position: fixed;left:14%;top:30%""><img src=""square.png"" width=""306"" height=""306"" style=""position: fixed;left:64%;top:30%"">","null","","","","","","","","","","","","","","","","","","","","","","","","","","","","","","","","","","",""
"","","","","","html-keyboard-response","99","597387","0.0-13.0-2.7","A5P12YJP805RG","2022-05-19T01:32:21.382Z","phon_sim-rhyme-same_different-task_switching","","1582.9000000059605","rhyme","<div style=""border: 3px solid #000000; position: fixed;left:14%;top:30%""><img src=""visual/bed.png"" width=""300""></div><div style=""border: 3px solid #000000; position: fixed;left:64%;top:30%""><img src=""visual/bread.png"" width=""300""></div>","arrowup","experiment","","","","","","","","","","","","","","","","true","visual/bed.png","visual/bread.png","ArrowUp","non-ortho","","","","","","","","","","","","","",""
"","","","","","html-keyboard-response","100","597890","0.0-13.0-0.8","A5P12YJP805RG","2022-05-19T01:32:21.382Z","phon_sim-rhyme-same_different-task_switching","","null","rhyme","<div style=""font-size:60px;"">+</div>","null","","","","","","","","","","","","","","","","500","","","","","","","","","","","","","","","","","","",""
"","","","","","html-keyboard-response","101","598402","0.0-13.0-1.8","A5P12YJP805RG","2022-05-19T01:32:21.382Z","phon_sim-rhyme-same_different-task_switching","","null","rhyme","<img src=""square.png"" width=""306"" height=""306"" style=""position: fixed;left:14%;top:30%""><img src=""square.png"" width=""306"" height=""306"" style=""position: fixed;left:64%;top:30%"">","null","","","","","","","","","","","","","","","","","","","","","","","","","","","","","","","","","","",""
"","","","","","html-keyboard-response","102","599980","0.0-13.0-2.8","A5P12YJP805RG","2022-05-19T01:32:21.382Z","phon_sim-rhyme-same_different-task_switching","","1576.9000000059605","rhyme","<div style=""border: 3px solid #000000; position: fixed;left:14%;top:30%""><img src=""visual/egg.png"" width=""300""></div><div style=""border: 3px solid #000000; position: fixed;left:64%;top:30%""><img src=""visual/ring.png"" width=""300""></div>","arrowdown","experiment","","","","","","","","","","","","","","","","true","visual/egg.png","visual/ring.png","ArrowDown","NR","","","","","","","","","","","","","",""
"","","","","","html-keyboard-response","103","600235","0.0-13.0-0.9","A5P12YJP805RG","2022-05-19T01:32:21.382Z","phon_sim-rhyme-same_different-task_switching","","null","rhyme","<div style=""font-size:60px;"">+</div>","null","","","","","","","","","","","","","","","","250","","","","","","","","","","","","","","","","","","",""
"","","","","","html-keyboard-response","104","600748","0.0-13.0-1.9","A5P12YJP805RG","2022-05-19T01:32:21.382Z","phon_sim-rhyme-same_different-task_switching","","null","rhyme","<img src=""square.png"" width=""306"" height=""306"" style=""position: fixed;left:14%;top:30%""><img src=""square.png"" width=""306"" height=""306"" style=""position: fixed;left:64%;top:30%"">","null","","","","","","","","","","","","","","","","","","","","","","","","","","","","","","","","","","",""
"","","","","","html-keyboard-response","105","603316","0.0-13.0-2.9","A5P12YJP805RG","2022-05-19T01:32:21.382Z","phon_sim-rhyme-same_different-task_switching","","2567.199999988079","rhyme","<div style=""border: 3px solid #000000; position: fixed;left:14%;top:30%""><img src=""visual/wave.png"" width=""300""></div><div style=""border: 3px solid #000000; position: fixed;left:64%;top:30%""><img src=""visual/cave.png"" width=""300""></div>","arrowdown","experiment","","","","","","","","","","","","","","","","false","visual/wave.png","visual/cave.png","ArrowUp","ortho","","","","","","","","","","","","","",""
"","","","","","html-keyboard-response","106","604077","0.0-13.0-0.10","A5P12YJP805RG","2022-05-19T01:32:21.382Z","phon_sim-rhyme-same_different-task_switching","","null","rhyme","<div style=""font-size:60px;"">+</div>","null","","","","","","","","","","","","","","","","750","","","","","","","","","","","","","","","","","","",""
"","","","","","html-keyboard-response","107","604587","0.0-13.0-1.10","A5P12YJP805RG","2022-05-19T01:32:21.382Z","phon_sim-rhyme-same_different-task_switching","","null","rhyme","<img src=""square.png"" width=""306"" height=""306"" style=""position: fixed;left:14%;top:30%""><img src=""square.png"" width=""306"" height=""306"" style=""position: fixed;left:64%;top:30%"">","null","","","","","","","","","","","","","","","","","","","","","","","","","","","","","","","","","","",""
"","","","","","html-keyboard-response","108","607085","0.0-13.0-2.10","A5P12YJP805RG","2022-05-19T01:32:21.382Z","phon_sim-rhyme-same_different-task_switching","","2496.2999999821186","rhyme","<div style=""border: 3px solid #000000; position: fixed;left:14%;top:30%""><img src=""visual/pope.png"" width=""300""></div><div style=""border: 3px solid #000000; position: fixed;left:64%;top:30%""><img src=""visual/soap.png"" width=""300""></div>","arrowup","experiment","","","","","","","","","","","","","","","","true","visual/pope.png","visual/soap.png","ArrowUp","non-ortho","","","","","","","","","","","","","",""
"","","","","","html-keyboard-response","109","608092","0.0-13.0-0.11","A5P12YJP805RG","2022-05-19T01:32:21.382Z","phon_sim-rhyme-same_different-task_switching","","null","rhyme","<div style=""font-size:60px;"">+</div>","null","","","","","","","","","","","","","","","","1000","","","","","","","","","","","","","","","","","","",""
"","","","","","html-keyboard-response","110","608599","0.0-13.0-1.11","A5P12YJP805RG","2022-05-19T01:32:21.382Z","phon_sim-rhyme-same_different-task_switching","","null","rhyme","<img src=""square.png"" width=""306"" height=""306"" style=""position: fixed;left:14%;top:30%""><img src=""square.png"" width=""306"" height=""306"" style=""position: fixed;left:64%;top:30%"">","null","","","","","","","","","","","","","","","","","","","","","","","","","","","","","","","","","","",""
"","","","","","html-keyboard-response","111","610326","0.0-13.0-2.11","A5P12YJP805RG","2022-05-19T01:32:21.382Z","phon_sim-rhyme-same_different-task_switching","","1726.199999988079","rhyme","<div style=""border: 3px solid #000000; position: fixed;left:14%;top:30%""><img src=""visual/soap.png"" width=""300""></div><div style=""border: 3px solid #000000; position: fixed;left:64%;top:30%""><img src=""visual/shoe.png"" width=""300""></div>","arrowdown","experiment","","","","","","","","","","","","","","","","true","visual/soap.png","visual/shoe.png","ArrowDown","NR","","","","","","","","","","","","","",""
"","","","","","html-keyboard-response","112","610592","0.0-13.0-0.12","A5P12YJP805RG","2022-05-19T01:32:21.382Z","phon_sim-rhyme-same_different-task_switching","","null","rhyme","<div style=""font-size:60px;"">+</div>","null","","","","","","","","","","","","","","","","250","","","","","","","","","","","","","","","","","","",""
"","","","","","html-keyboard-response","113","611104","0.0-13.0-1.12","A5P12YJP805RG","2022-05-19T01:32:21.382Z","phon_sim-rhyme-same_different-task_switching","","null","rhyme","<img src=""square.png"" width=""306"" height=""306"" style=""position: fixed;left:14%;top:30%""><img src=""square.png"" width=""306"" height=""306"" style=""position: fixed;left:64%;top:30%"">","null","","","","","","","","","","","","","","","","","","","","","","","","","","","","","","","","","","",""
"","","","","","html-keyboard-response","114","612781","0.0-13.0-2.12","A5P12YJP805RG","2022-05-19T01:32:21.382Z","phon_sim-rhyme-same_different-task_switching","","1676.699999988079","rhyme","<div style=""border: 3px solid #000000; position: fixed;left:14%;top:30%""><img src=""visual/king.png"" width=""300""></div><div style=""border: 3px solid #000000; position: fixed;left:64%;top:30%""><img src=""visual/ring.png"" width=""300""></div>","arrowup","experiment","","","","","","","","","","","","","","","","true","visual/king.png","visual/ring.png","ArrowUp","ortho","","","","","","","","","","","","","",""
"","","","","","html-keyboard-response","115","613288","0.0-13.0-0.13","A5P12YJP805RG","2022-05-19T01:32:21.382Z","phon_sim-rhyme-same_different-task_switching","","null","rhyme","<div style=""font-size:60px;"">+</div>","null","","","","","","","","","","","","","","","","500","","","","","","","","","","","","","","","","","","",""
"","","","","","html-keyboard-response","116","613795","0.0-13.0-1.13","A5P12YJP805RG","2022-05-19T01:32:21.382Z","phon_sim-rhyme-same_different-task_switching","","null","rhyme","<img src=""square.png"" width=""306"" height=""306"" style=""position: fixed;left:14%;top:30%""><img src=""square.png"" width=""306"" height=""306"" style=""position: fixed;left:64%;top:30%"">","null","","","","","","","","","","","","","","","","","","","","","","","","","","","","","","","","","","",""
"","","","","","html-keyboard-response","117","616486","0.0-13.0-2.13","A5P12YJP805RG","2022-05-19T01:32:21.382Z","phon_sim-rhyme-same_different-task_switching","","2690.0999999940395","rhyme","<div style=""border: 3px solid #000000; position: fixed;left:14%;top:30%""><img src=""visual/drawer.png"" width=""300""></div><div style=""border: 3px solid #000000; position: fixed;left:64%;top:30%""><img src=""visual/door.png"" width=""300""></div>","arrowdown","experiment","","","","","","","","","","","","","","","","false","visual/drawer.png","visual/door.png","ArrowUp","non-ortho","","","","","","","","","","","","","",""
"","","","","","html-keyboard-response","118","617500","0.0-13.0-0.14","A5P12YJP805RG","2022-05-19T01:32:21.382Z","phon_sim-rhyme-same_different-task_switching","","null","rhyme","<div style=""font-size:60px;"">+</div>","null","","","","","","","","","","","","","","","","1000","","","","","","","","","","","","","","","","","","",""
"","","","","","html-keyboard-response","119","618010","0.0-13.0-1.14","A5P12YJP805RG","2022-05-19T01:32:21.382Z","phon_sim-rhyme-same_different-task_switching","","null","rhyme","<img src=""square.png"" width=""306"" height=""306"" style=""position: fixed;left:14%;top:30%""><img src=""square.png"" width=""306"" height=""306"" style=""position: fixed;left:64%;top:30%"">","null","","","","","","","","","","","","","","","","","","","","","","","","","","","","","","","","","","",""
"","","","","","html-keyboard-response","120","619423","0.0-13.0-2.14","A5P12YJP805RG","2022-05-19T01:32:21.382Z","phon_sim-rhyme-same_different-task_switching","","1410.9000000059605","rhyme","<div style=""border: 3px solid #000000; position: fixed;left:14%;top:30%""><img src=""visual/rose.png"" width=""300""></div><div style=""border: 3px solid #000000; position: fixed;left:64%;top:30%""><img src=""visual/nose.png"" width=""300""></div>","arrowup","experiment","","","","","","","","","","","","","","","","true","visual/rose.png","visual/nose.png","ArrowUp","ortho","","","","","","","","","","","","","",""
"","","","","","html-keyboard-response","121","619939","0.0-13.0-0.15","A5P12YJP805RG","2022-05-19T01:32:21.382Z","phon_sim-rhyme-same_different-task_switching","","null","rhyme","<div style=""font-size:60px;"">+</div>","null","","","","","","","","","","","","","","","","500","","","","","","","","","","","","","","","","","","",""
"","","","","","html-keyboard-response","122","620446","0.0-13.0-1.15","A5P12YJP805RG","2022-05-19T01:32:21.382Z","phon_sim-rhyme-same_different-task_switching","","null","rhyme","<img src=""square.png"" width=""306"" height=""306"" style=""position: fixed;left:14%;top:30%""><img src=""square.png"" width=""306"" height=""306"" style=""position: fixed;left:64%;top:30%"">","null","","","","","","","","","","","","","","","","","","","","","","","","","","","","","","","","","","",""
"","","","","","html-keyboard-response","123","621760","0.0-13.0-2.15","A5P12YJP805RG","2022-05-19T01:32:21.382Z","phon_sim-rhyme-same_different-task_switching","","1313.300000011921","rhyme","<div style=""border: 3px solid #000000; position: fixed;left:14%;top:30%""><img src=""visual/eye.png"" width=""300""></div><div style=""border: 3px solid #000000; position: fixed;left:64%;top:30%""><img src=""visual/tie.png"" width=""300""></div>","arrowup","experiment","","","","","","","","","","","","","","","","true","visual/eye.png","visual/tie.png","ArrowUp","non-ortho","","","","","","","","","","","","","",""
"","","","","","html-keyboard-response","124","622518","0.0-13.0-0.16","A5P12YJP805RG","2022-05-19T01:32:21.382Z","phon_sim-rhyme-same_different-task_switching","","null","rhyme","<div style=""font-size:60px;"">+</div>","null","","","","","","","","","","","","","","","","750","","","","","","","","","","","","","","","","","","",""
"","","","","","html-keyboard-response","125","623032","0.0-13.0-1.16","A5P12YJP805RG","2022-05-19T01:32:21.382Z","phon_sim-rhyme-same_different-task_switching","","null","rhyme","<img src=""square.png"" width=""306"" height=""306"" style=""position: fixed;left:14%;top:30%""><img src=""square.png"" width=""306"" height=""306"" style=""position: fixed;left:64%;top:30%"">","null","","","","","","","","","","","","","","","","","","","","","","","","","","","","","","","","","","",""
"","","","","","html-keyboard-response","126","624751","0.0-13.0-2.16","A5P12YJP805RG","2022-05-19T01:32:21.382Z","phon_sim-rhyme-same_different-task_switching","","1717.800000011921","rhyme","<div style=""border: 3px solid #000000; position: fixed;left:14%;top:30%""><img src=""visual/sock.png"" width=""300""></div><div style=""border: 3px solid #000000; position: fixed;left:64%;top:30%""><img src=""visual/clock.png"" width=""300""></div>","arrowup","experiment","","","","","","","","","","","","","","","","true","visual/sock.png","visual/clock.png","ArrowUp","ortho","","","","","","","","","","","","","",""
"","","","","","html-keyboard-response","127","625016","0.0-13.0-0.17","A5P12YJP805RG","2022-05-19T01:32:21.382Z","phon_sim-rhyme-same_different-task_switching","","null","rhyme","<div style=""font-size:60px;"">+</div>","null","","","","","","","","","","","","","","","","250","","","","","","","","","","","","","","","","","","",""
"","","","","","html-keyboard-response","128","625523","0.0-13.0-1.17","A5P12YJP805RG","2022-05-19T01:32:21.382Z","phon_sim-rhyme-same_different-task_switching","","null","rhyme","<img src=""square.png"" width=""306"" height=""306"" style=""position: fixed;left:14%;top:30%""><img src=""square.png"" width=""306"" height=""306"" style=""position: fixed;left:64%;top:30%"">","null","","","","","","","","","","","","","","","","","","","","","","","","","","","","","","","","","","",""
"","","","","","html-keyboard-response","129","628336","0.0-13.0-2.17","A5P12YJP805RG","2022-05-19T01:32:21.382Z","phon_sim-rhyme-same_different-task_switching","","2811.699999988079","rhyme","<div style=""border: 3px solid #000000; position: fixed;left:14%;top:30%""><img src=""visual/claw.png"" width=""300""></div><div style=""border: 3px solid #000000; position: fixed;left:64%;top:30%""><img src=""visual/beer.png"" width=""300""></div>","arrowdown","experiment","","","","","","","","","","","","","","","","true","visual/claw.png","visual/beer.png","ArrowDown","NR","","","","","","","","","","","","","",""
"","","","","","html-keyboard-response","130","628597","0.0-13.0-0.18","A5P12YJP805RG","2022-05-19T01:32:21.382Z","phon_sim-rhyme-same_different-task_switching","","null","rhyme","<div style=""font-size:60px;"">+</div>","null","","","","","","","","","","","","","","","","250","","","","","","","","","","","","","","","","","","",""
"","","","","","html-keyboard-response","131","629108","0.0-13.0-1.18","A5P12YJP805RG","2022-05-19T01:32:21.382Z","phon_sim-rhyme-same_different-task_switching","","null","rhyme","<img src=""square.png"" width=""306"" height=""306"" style=""position: fixed;left:14%;top:30%""><img src=""square.png"" width=""306"" height=""306"" style=""position: fixed;left:64%;top:30%"">","null","","","","","","","","","","","","","","","","","","","","","","","","","","","","","","","","","","",""
"","","","","","html-keyboard-response","132","630416","0.0-13.0-2.18","A5P12YJP805RG","2022-05-19T01:32:21.382Z","phon_sim-rhyme-same_different-task_switching","","1307.0999999940395","rhyme","<div style=""border: 3px solid #000000; position: fixed;left:14%;top:30%""><img src=""visual/spoon.png"" width=""300""></div><div style=""border: 3px solid #000000; position: fixed;left:64%;top:30%""><img src=""visual/moon.png"" width=""300""></div>","arrowup","experiment","","","","","","","","","","","","","","","","true","visual/spoon.png","visual/moon.png","ArrowUp","ortho","","","","","","","","","","","","","",""
"","","","","","html-keyboard-response","133","630677","0.0-13.0-0.19","A5P12YJP805RG","2022-05-19T01:32:21.382Z","phon_sim-rhyme-same_different-task_switching","","null","rhyme","<div style=""font-size:60px;"">+</div>","null","","","","","","","","","","","","","","","","250","","","","","","","","","","","","","","","","","","",""
"","","","","","html-keyboard-response","134","631189","0.0-13.0-1.19","A5P12YJP805RG","2022-05-19T01:32:21.382Z","phon_sim-rhyme-same_different-task_switching","","null","rhyme","<img src=""square.png"" width=""306"" height=""306"" style=""position: fixed;left:14%;top:30%""><img src=""square.png"" width=""306"" height=""306"" style=""position: fixed;left:64%;top:30%"">","null","","","","","","","","","","","","","","","","","","","","","","","","","","","","","","","","","","",""
"","","","","","html-keyboard-response","135","632489","0.0-13.0-2.19","A5P12YJP805RG","2022-05-19T01:32:21.382Z","phon_sim-rhyme-same_different-task_switching","","1299.4000000059605","rhyme","<div style=""border: 3px solid #000000; position: fixed;left:14%;top:30%""><img src=""visual/nose.png"" width=""300""></div><div style=""border: 3px solid #000000; position: fixed;left:64%;top:30%""><img src=""visual/bell.png"" width=""300""></div>","arrowdown","experiment","","","","","","","","","","","","","","","","true","visual/nose.png","visual/bell.png","ArrowDown","NR","","","","","","","","","","","","","",""
"","","","","","html-keyboard-response","136","633247","0.0-13.0-0.20","A5P12YJP805RG","2022-05-19T01:32:21.382Z","phon_sim-rhyme-same_different-task_switching","","null","rhyme","<div style=""font-size:60px;"">+</div>","null","","","","","","","","","","","","","","","","750","","","","","","","","","","","","","","","","","","",""
"","","","","","html-keyboard-response","137","633758","0.0-13.0-1.20","A5P12YJP805RG","2022-05-19T01:32:21.382Z","phon_sim-rhyme-same_different-task_switching","","null","rhyme","<img src=""square.png"" width=""306"" height=""306"" style=""position: fixed;left:14%;top:30%""><img src=""square.png"" width=""306"" height=""306"" style=""position: fixed;left:64%;top:30%"">","null","","","","","","","","","","","","","","","","","","","","","","","","","","","","","","","","","","",""
"","","","","","html-keyboard-response","138","635561","0.0-13.0-2.20","A5P12YJP805RG","2022-05-19T01:32:21.382Z","phon_sim-rhyme-same_different-task_switching","","1801.5999999940395","rhyme","<div style=""border: 3px solid #000000; position: fixed;left:14%;top:30%""><img src=""visual/bear.png"" width=""300""></div><div style=""border: 3px solid #000000; position: fixed;left:64%;top:30%""><img src=""visual/square_rhyme.png"" width=""300""></div>","arrowup","experiment","","","","","","","","","","","","","","","","true","visual/bear.png","visual/square_rhyme.png","ArrowUp","non-ortho","","","","","","","","","","","","","",""
"","","","","","html-keyboard-response","139","636070","0.0-13.0-0.21","A5P12YJP805RG","2022-05-19T01:32:21.382Z","phon_sim-rhyme-same_different-task_switching","","null","rhyme","<div style=""font-size:60px;"">+</div>","null","","","","","","","","","","","","","","","","500","","","","","","","","","","","","","","","","","","",""
"","","","","","html-keyboard-response","140","636579","0.0-13.0-1.21","A5P12YJP805RG","2022-05-19T01:32:21.382Z","phon_sim-rhyme-same_different-task_switching","","null","rhyme","<img src=""square.png"" width=""306"" height=""306"" style=""position: fixed;left:14%;top:30%""><img src=""square.png"" width=""306"" height=""306"" style=""position: fixed;left:64%;top:30%"">","null","","","","","","","","","","","","","","","","","","","","","","","","","","","","","","","","","","",""
"","","","","","html-keyboard-response","141","637825","0.0-13.0-2.21","A5P12YJP805RG","2022-05-19T01:32:21.382Z","phon_sim-rhyme-same_different-task_switching","","1245.0999999940395","rhyme","<div style=""border: 3px solid #000000; position: fixed;left:14%;top:30%""><img src=""visual/well.png"" width=""300""></div><div style=""border: 3px solid #000000; position: fixed;left:64%;top:30%""><img src=""visual/rose.png"" width=""300""></div>","arrowdown","experiment","","","","","","","","","","","","","","","","true","visual/well.png","visual/rose.png","ArrowDown","NR","","","","","","","","","","","","","",""
"","","","","","html-keyboard-response","142","638830","0.0-13.0-0.22","A5P12YJP805RG","2022-05-19T01:32:21.382Z","phon_sim-rhyme-same_different-task_switching","","null","rhyme","<div style=""font-size:60px;"">+</div>","null","","","","","","","","","","","","","","","","1000","","","","","","","","","","","","","","","","","","",""
"","","","","","html-keyboard-response","143","639339","0.0-13.0-1.22","A5P12YJP805RG","2022-05-19T01:32:21.382Z","phon_sim-rhyme-same_different-task_switching","","null","rhyme","<img src=""square.png"" width=""306"" height=""306"" style=""position: fixed;left:14%;top:30%""><img src=""square.png"" width=""306"" height=""306"" style=""position: fixed;left:64%;top:30%"">","null","","","","","","","","","","","","","","","","","","","","","","","","","","","","","","","","","","",""
"","","","","","html-keyboard-response","144","641433","0.0-13.0-2.22","A5P12YJP805RG","2022-05-19T01:32:21.382Z","phon_sim-rhyme-same_different-task_switching","","2093.199999988079","rhyme","<div style=""border: 3px solid #000000; position: fixed;left:14%;top:30%""><img src=""visual/dart.png"" width=""300""></div><div style=""border: 3px solid #000000; position: fixed;left:64%;top:30%""><img src=""visual/tie.png"" width=""300""></div>","arrowdown","experiment","","","","","","","","","","","","","","","","true","visual/dart.png","visual/tie.png","ArrowDown","NR","","","","","","","","","","","","","",""
"","","","","","html-keyboard-response","145","642447","0.0-13.0-0.23","A5P12YJP805RG","2022-05-19T01:32:21.382Z","phon_sim-rhyme-same_different-task_switching","","null","rhyme","<div style=""font-size:60px;"">+</div>","null","","","","","","","","","","","","","","","","1000","","","","","","","","","","","","","","","","","","",""
"","","","","","html-keyboard-response","146","642963","0.0-13.0-1.23","A5P12YJP805RG","2022-05-19T01:32:21.382Z","phon_sim-rhyme-same_different-task_switching","","null","rhyme","<img src=""square.png"" width=""306"" height=""306"" style=""position: fixed;left:14%;top:30%""><img src=""square.png"" width=""306"" height=""306"" style=""position: fixed;left:64%;top:30%"">","null","","","","","","","","","","","","","","","","","","","","","","","","","","","","","","","","","","",""
"","","","","","html-keyboard-response","147","644899","0.0-13.0-2.23","A5P12YJP805RG","2022-05-19T01:32:21.382Z","phon_sim-rhyme-same_different-task_switching","","1934.699999988079","rhyme","<div style=""border: 3px solid #000000; position: fixed;left:14%;top:30%""><img src=""visual/bear.png"" width=""300""></div><div style=""border: 3px solid #000000; position: fixed;left:64%;top:30%""><img src=""visual/crane.png"" width=""300""></div>","arrowdown","experiment","","","","","","","","","","","","","","","","true","visual/bear.png","visual/crane.png","ArrowDown","NR","","","","","","","","","","","","","",""
"","","","","","html-keyboard-response","148","645154","0.0-13.0-0.24","A5P12YJP805RG","2022-05-19T01:32:21.382Z","phon_sim-rhyme-same_different-task_switching","","null","rhyme","<div style=""font-size:60px;"">+</div>","null","","","","","","","","","","","","","","","","250","","","","","","","","","","","","","","","","","","",""
"","","","","","html-keyboard-response","149","645668","0.0-13.0-1.24","A5P12YJP805RG","2022-05-19T01:32:21.382Z","phon_sim-rhyme-same_different-task_switching","","null","rhyme","<img src=""square.png"" width=""306"" height=""306"" style=""position: fixed;left:14%;top:30%""><img src=""square.png"" width=""306"" height=""306"" style=""position: fixed;left:64%;top:30%"">","null","","","","","","","","","","","","","","","","","","","","","","","","","","","","","","","","","","",""
"","","","","","html-keyboard-response","150","647562","0.0-13.0-2.24","A5P12YJP805RG","2022-05-19T01:32:21.382Z","phon_sim-rhyme-same_different-task_switching","","1893.699999988079","rhyme","<div style=""border: 3px solid #000000; position: fixed;left:14%;top:30%""><img src=""visual/pear.png"" width=""300""></div><div style=""border: 3px solid #000000; position: fixed;left:64%;top:30%""><img src=""visual/rope.png"" width=""300""></div>","arrowdown","experiment","","","","","","","","","","","","","","","","true","visual/pear.png","visual/rope.png","ArrowDown","NR","","","","","","","","","","","","","",""
"","","","","","html-keyboard-response","151","648065","0.0-13.0-0.25","A5P12YJP805RG","2022-05-19T01:32:21.382Z","phon_sim-rhyme-same_different-task_switching","","null","rhyme","<div style=""font-size:60px;"">+</div>","null","","","","","","","","","","","","","","","","500","","","","","","","","","","","","","","","","","","",""
"","","","","","html-keyboard-response","152","648579","0.0-13.0-1.25","A5P12YJP805RG","2022-05-19T01:32:21.382Z","phon_sim-rhyme-same_different-task_switching","","null","rhyme","<img src=""square.png"" width=""306"" height=""306"" style=""position: fixed;left:14%;top:30%""><img src=""square.png"" width=""306"" height=""306"" style=""position: fixed;left:64%;top:30%"">","null","","","","","","","","","","","","","","","","","","","","","","","","","","","","","","","","","","",""
"","","","","","html-keyboard-response","153","650827","0.0-13.0-2.25","A5P12YJP805RG","2022-05-19T01:32:21.382Z","phon_sim-rhyme-same_different-task_switching","","2247.0999999940395","rhyme","<div style=""border: 3px solid #000000; position: fixed;left:14%;top:30%""><img src=""visual/train.png"" width=""300""></div><div style=""border: 3px solid #000000; position: fixed;left:64%;top:30%""><img src=""visual/crane.png"" width=""300""></div>","arrowup","experiment","","","","","","","","","","","","","","","","true","visual/train.png","visual/crane.png","ArrowUp","non-ortho","","","","","","","","","","","","","",""
"","","","","","html-keyboard-response","154","651085","0.0-13.0-0.26","A5P12YJP805RG","2022-05-19T01:32:21.382Z","phon_sim-rhyme-same_different-task_switching","","null","rhyme","<div style=""font-size:60px;"">+</div>","null","","","","","","","","","","","","","","","","250","","","","","","","","","","","","","","","","","","",""
"","","","","","html-keyboard-response","155","651594","0.0-13.0-1.26","A5P12YJP805RG","2022-05-19T01:32:21.382Z","phon_sim-rhyme-same_different-task_switching","","null","rhyme","<img src=""square.png"" width=""306"" height=""306"" style=""position: fixed;left:14%;top:30%""><img src=""square.png"" width=""306"" height=""306"" style=""position: fixed;left:64%;top:30%"">","null","","","","","","","","","","","","","","","","","","","","","","","","","","","","","","","","","","",""
"","","","","","html-keyboard-response","156","652947","0.0-13.0-2.26","A5P12YJP805RG","2022-05-19T01:32:21.382Z","phon_sim-rhyme-same_different-task_switching","","1352.800000011921","rhyme","<div style=""border: 3px solid #000000; position: fixed;left:14%;top:30%""><img src=""visual/bear.png"" width=""300""></div><div style=""border: 3px solid #000000; position: fixed;left:64%;top:30%""><img src=""visual/hair.png"" width=""300""></div>","arrowup","experiment","","","","","","","","","","","","","","","","true","visual/bear.png","visual/hair.png","ArrowUp","non-ortho","","","","","","","","","","","","","",""
"","","","","","html-keyboard-response","157","653714","0.0-13.0-0.27","A5P12YJP805RG","2022-05-19T01:32:21.382Z","phon_sim-rhyme-same_different-task_switching","","null","rhyme","<div style=""font-size:60px;"">+</div>","null","","","","","","","","","","","","","","","","750","","","","","","","","","","","","","","","","","","",""
"","","","","","html-keyboard-response","158","654228","0.0-13.0-1.27","A5P12YJP805RG","2022-05-19T01:32:21.382Z","phon_sim-rhyme-same_different-task_switching","","null","rhyme","<img src=""square.png"" width=""306"" height=""306"" style=""position: fixed;left:14%;top:30%""><img src=""square.png"" width=""306"" height=""306"" style=""position: fixed;left:64%;top:30%"">","null","","","","","","","","","","","","","","","","","","","","","","","","","","","","","","","","","","",""
"","","","","","html-keyboard-response","159","656484","0.0-13.0-2.27","A5P12YJP805RG","2022-05-19T01:32:21.382Z","phon_sim-rhyme-same_different-task_switching","","2255.699999988079","rhyme","<div style=""border: 3px solid #000000; position: fixed;left:14%;top:30%""><img src=""visual/saw.png"" width=""300""></div><div style=""border: 3px solid #000000; position: fixed;left:64%;top:30%""><img src=""visual/claw.png"" width=""300""></div>","arrowup","experiment","","","","","","","","","","","","","","","","true","visual/saw.png","visual/claw.png","ArrowUp","ortho","","","","","","","","","","","","","",""
"","","","","","html-keyboard-response","160","656999","0.0-13.0-0.28","A5P12YJP805RG","2022-05-19T01:32:21.382Z","phon_sim-rhyme-same_different-task_switching","","null","rhyme","<div style=""font-size:60px;"">+</div>","null","","","","","","","","","","","","","","","","500","","","","","","","","","","","","","","","","","","",""
"","","","","","html-keyboard-response","161","657513","0.0-13.0-1.28","A5P12YJP805RG","2022-05-19T01:32:21.382Z","phon_sim-rhyme-same_different-task_switching","","null","rhyme","<img src=""square.png"" width=""306"" height=""306"" style=""position: fixed;left:14%;top:30%""><img src=""square.png"" width=""306"" height=""306"" style=""position: fixed;left:64%;top:30%"">","null","","","","","","","","","","","","","","","","","","","","","","","","","","","","","","","","","","",""
"","","","","","html-keyboard-response","162","659084","0.0-13.0-2.28","A5P12YJP805RG","2022-05-19T01:32:21.382Z","phon_sim-rhyme-same_different-task_switching","","1570.1000000238419","rhyme","<div style=""border: 3px solid #000000; position: fixed;left:14%;top:30%""><img src=""visual/train.png"" width=""300""></div><div style=""border: 3px solid #000000; position: fixed;left:64%;top:30%""><img src=""visual/screw.png"" width=""300""></div>","arrowdown","experiment","","","","","","","","","","","","","","","","true","visual/train.png","visual/screw.png","ArrowDown","NR","","","","","","","","","","","","","",""
"","","","","","html-keyboard-response","163","659592","0.0-13.0-0.29","A5P12YJP805RG","2022-05-19T01:32:21.382Z","phon_sim-rhyme-same_different-task_switching","","null","rhyme","<div style=""font-size:60px;"">+</div>","null","","","","","","","","","","","","","","","","500","","","","","","","","","","","","","","","","","","",""
"","","","","","html-keyboard-response","164","660096","0.0-13.0-1.29","A5P12YJP805RG","2022-05-19T01:32:21.382Z","phon_sim-rhyme-same_different-task_switching","","null","rhyme","<img src=""square.png"" width=""306"" height=""306"" style=""position: fixed;left:14%;top:30%""><img src=""square.png"" width=""306"" height=""306"" style=""position: fixed;left:64%;top:30%"">","null","","","","","","","","","","","","","","","","","","","","","","","","","","","","","","","","","","",""
"","","","","","html-keyboard-response","165","662445","0.0-13.0-2.29","A5P12YJP805RG","2022-05-19T01:32:21.382Z","phon_sim-rhyme-same_different-task_switching","","2347","rhyme","<div style=""border: 3px solid #000000; position: fixed;left:14%;top:30%""><img src=""visual/key.png"" width=""300""></div><div style=""border: 3px solid #000000; position: fixed;left:64%;top:30%""><img src=""visual/snail.png"" width=""300""></div>","arrowdown","experiment","","","","","","","","","","","","","","","","true","visual/key.png","visual/snail.png","ArrowDown","NR","","","","","","","","","","","","","",""
"","","","","","html-keyboard-response","166","663453","0.0-13.0-0.30","A5P12YJP805RG","2022-05-19T01:32:21.382Z","phon_sim-rhyme-same_different-task_switching","","null","rhyme","<div style=""font-size:60px;"">+</div>","null","","","","","","","","","","","","","","","","1000","","","","","","","","","","","","","","","","","","",""
"","","","","","html-keyboard-response","167","663968","0.0-13.0-1.30","A5P12YJP805RG","2022-05-19T01:32:21.382Z","phon_sim-rhyme-same_different-task_switching","","null","rhyme","<img src=""square.png"" width=""306"" height=""306"" style=""position: fixed;left:14%;top:30%""><img src=""square.png"" width=""306"" height=""306"" style=""position: fixed;left:64%;top:30%"">","null","","","","","","","","","","","","","","","","","","","","","","","","","","","","","","","","","","",""
"","","","","","html-keyboard-response","168","665533","0.0-13.0-2.30","A5P12YJP805RG","2022-05-19T01:32:21.382Z","phon_sim-rhyme-same_different-task_switching","","1564.5","rhyme","<div style=""border: 3px solid #000000; position: fixed;left:14%;top:30%""><img src=""visual/flag.png"" width=""300""></div><div style=""border: 3px solid #000000; position: fixed;left:64%;top:30%""><img src=""visual/bag.png"" width=""300""></div>","arrowup","experiment","","","","","","","","","","","","","","","","true","visual/flag.png","visual/bag.png","ArrowUp","ortho","","","","","","","","","","","","","",""
"","","","","","html-keyboard-response","169","666294","0.0-13.0-0.31","A5P12YJP805RG","2022-05-19T01:32:21.382Z","phon_sim-rhyme-same_different-task_switching","","null","rhyme","<div style=""font-size:60px;"">+</div>","null","","","","","","","","","","","","","","","","750","","","","","","","","","","","","","","","","","","",""
"","","","","","html-keyboard-response","170","666803","0.0-13.0-1.31","A5P12YJP805RG","2022-05-19T01:32:21.382Z","phon_sim-rhyme-same_different-task_switching","","null","rhyme","<img src=""square.png"" width=""306"" height=""306"" style=""position: fixed;left:14%;top:30%""><img src=""square.png"" width=""306"" height=""306"" style=""position: fixed;left:64%;top:30%"">","null","","","","","","","","","","","","","","","","","","","","","","","","","","","","","","","","","","",""
"","","","","","html-keyboard-response","171","668959","0.0-13.0-2.31","A5P12YJP805RG","2022-05-19T01:32:21.382Z","phon_sim-rhyme-same_different-task_switching","","2154.5","rhyme","<div style=""border: 3px solid #000000; position: fixed;left:14%;top:30%""><img src=""visual/fan.png"" width=""300""></div><div style=""border: 3px solid #000000; position: fixed;left:64%;top:30%""><img src=""visual/man.png"" width=""300""></div>","arrowup","experiment","","","","","","","","","","","","","","","","true","visual/fan.png","visual/man.png","ArrowUp","ortho","","","","","","","","","","","","","",""
"","","","","","html-keyboard-response","172","669220","0.0-13.0-0.32","A5P12YJP805RG","2022-05-19T01:32:21.382Z","phon_sim-rhyme-same_different-task_switching","","null","rhyme","<div style=""font-size:60px;"">+</div>","null","","","","","","","","","","","","","","","","250","","","","","","","","","","","","","","","","","","",""
"","","","","","html-keyboard-response","173","669734","0.0-13.0-1.32","A5P12YJP805RG","2022-05-19T01:32:21.382Z","phon_sim-rhyme-same_different-task_switching","","null","rhyme","<img src=""square.png"" width=""306"" height=""306"" style=""position: fixed;left:14%;top:30%""><img src=""square.png"" width=""306"" height=""306"" style=""position: fixed;left:64%;top:30%"">","null","","","","","","","","","","","","","","","","","","","","","","","","","","","","","","","","","","",""
"","","","","","html-keyboard-response","174","671710","0.0-13.0-2.32","A5P12YJP805RG","2022-05-19T01:32:21.382Z","phon_sim-rhyme-same_different-task_switching","","1975.199999988079","rhyme","<div style=""border: 3px solid #000000; position: fixed;left:14%;top:30%""><img src=""visual/brain.png"" width=""300""></div><div style=""border: 3px solid #000000; position: fixed;left:64%;top:30%""><img src=""visual/clock.png"" width=""300""></div>","arrowdown","experiment","","","","","","","","","","","","","","","","true","visual/brain.png","visual/clock.png","ArrowDown","NR","","","","","","","","","","","","","",""
"","","","","","html-keyboard-response","175","672470","0.0-13.0-0.33","A5P12YJP805RG","2022-05-19T01:32:21.382Z","phon_sim-rhyme-same_different-task_switching","","null","rhyme","<div style=""font-size:60px;"">+</div>","null","","","","","","","","","","","","","","","","750","","","","","","","","","","","","","","","","","","",""
"","","","","","html-keyboard-response","176","672979","0.0-13.0-1.33","A5P12YJP805RG","2022-05-19T01:32:21.382Z","phon_sim-rhyme-same_different-task_switching","","null","rhyme","<img src=""square.png"" width=""306"" height=""306"" style=""position: fixed;left:14%;top:30%""><img src=""square.png"" width=""306"" height=""306"" style=""position: fixed;left:64%;top:30%"">","null","","","","","","","","","","","","","","","","","","","","","","","","","","","","","","","","","","",""
"","","","","","html-keyboard-response","177","674503","0.0-13.0-2.33","A5P12YJP805RG","2022-05-19T01:32:21.382Z","phon_sim-rhyme-same_different-task_switching","","1522.5999999940395","rhyme","<div style=""border: 3px solid #000000; position: fixed;left:14%;top:30%""><img src=""visual/bone.png"" width=""300""></div><div style=""border: 3px solid #000000; position: fixed;left:64%;top:30%""><img src=""visual/cone.png"" width=""300""></div>","arrowdown","experiment","","","","","","","","","","","","","","","","false","visual/bone.png","visual/cone.png","ArrowUp","ortho","","","","","","","","","","","","","",""
"","","","","","html-keyboard-response","178","675009","0.0-13.0-0.34","A5P12YJP805RG","2022-05-19T01:32:21.382Z","phon_sim-rhyme-same_different-task_switching","","null","rhyme","<div style=""font-size:60px;"">+</div>","null","","","","","","","","","","","","","","","","500","","","","","","","","","","","","","","","","","","",""
"","","","","","html-keyboard-response","179","675515","0.0-13.0-1.34","A5P12YJP805RG","2022-05-19T01:32:21.382Z","phon_sim-rhyme-same_different-task_switching","","null","rhyme","<img src=""square.png"" width=""306"" height=""306"" style=""position: fixed;left:14%;top:30%""><img src=""square.png"" width=""306"" height=""306"" style=""position: fixed;left:64%;top:30%"">","null","","","","","","","","","","","","","","","","","","","","","","","","","","","","","","","","","","",""
"","","","","","html-keyboard-response","180","678343","0.0-13.0-2.34","A5P12YJP805RG","2022-05-19T01:32:21.382Z","phon_sim-rhyme-same_different-task_switching","","2827.199999988079","rhyme","<div style=""border: 3px solid #000000; position: fixed;left:14%;top:30%""><img src=""visual/fly.png"" width=""300""></div><div style=""border: 3px solid #000000; position: fixed;left:64%;top:30%""><img src=""visual/plane.png"" width=""300""></div>","arrowdown","experiment","","","","","","","","","","","","","","","","true","visual/fly.png","visual/plane.png","ArrowDown","NR","","","","","","","","","","","","","",""
"","","","","","html-keyboard-response","181","678854","0.0-13.0-0.35","A5P12YJP805RG","2022-05-19T01:32:21.382Z","phon_sim-rhyme-same_different-task_switching","","null","rhyme","<div style=""font-size:60px;"">+</div>","null","","","","","","","","","","","","","","","","500","","","","","","","","","","","","","","","","","","",""
"","","","","","html-keyboard-response","182","679367","0.0-13.0-1.35","A5P12YJP805RG","2022-05-19T01:32:21.382Z","phon_sim-rhyme-same_different-task_switching","","null","rhyme","<img src=""square.png"" width=""306"" height=""306"" style=""position: fixed;left:14%;top:30%""><img src=""square.png"" width=""306"" height=""306"" style=""position: fixed;left:64%;top:30%"">","null","","","","","","","","","","","","","","","","","","","","","","","","","","","","","","","","","","",""
"","","","","","html-keyboard-response","183","682544","0.0-13.0-2.35","A5P12YJP805RG","2022-05-19T01:32:21.382Z","phon_sim-rhyme-same_different-task_switching","","3176.300000011921","rhyme","<div style=""border: 3px solid #000000; position: fixed;left:14%;top:30%""><img src=""visual/socks.png"" width=""300""></div><div style=""border: 3px solid #000000; position: fixed;left:64%;top:30%""><img src=""visual/fox.png"" width=""300""></div>","arrowup","experiment","","","","","","","","","","","","","","","","true","visual/socks.png","visual/fox.png","ArrowUp","non-ortho","","","","","","","","","","","","","",""
"","","","","","html-keyboard-response","184","683047","0.0-13.0-0.36","A5P12YJP805RG","2022-05-19T01:32:21.382Z","phon_sim-rhyme-same_different-task_switching","","null","rhyme","<div style=""font-size:60px;"">+</div>","null","","","","","","","","","","","","","","","","500","","","","","","","","","","","","","","","","","","",""
"","","","","","html-keyboard-response","185","683559","0.0-13.0-1.36","A5P12YJP805RG","2022-05-19T01:32:21.382Z","phon_sim-rhyme-same_different-task_switching","","null","rhyme","<img src=""square.png"" width=""306"" height=""306"" style=""position: fixed;left:14%;top:30%""><img src=""square.png"" width=""306"" height=""306"" style=""position: fixed;left:64%;top:30%"">","null","","","","","","","","","","","","","","","","","","","","","","","","","","","","","","","","","","",""
"","","","","","html-keyboard-response","186","686256","0.0-13.0-2.36","A5P12YJP805RG","2022-05-19T01:32:21.382Z","phon_sim-rhyme-same_different-task_switching","","2696.0999999940395","rhyme","<div style=""border: 3px solid #000000; position: fixed;left:14%;top:30%""><img src=""visual/rake.png"" width=""300""></div><div style=""border: 3px solid #000000; position: fixed;left:64%;top:30%""><img src=""visual/park.png"" width=""300""></div>","arrowdown","experiment","","","","","","","","","","","","","","","","true","visual/rake.png","visual/park.png","ArrowDown","NR","","","","","","","","","","","","","",""
"","","","","","html-keyboard-response","187","686769","0.0-13.0-0.37","A5P12YJP805RG","2022-05-19T01:32:21.382Z","phon_sim-rhyme-same_different-task_switching","","null","rhyme","<div style=""font-size:60px;"">+</div>","null","","","","","","","","","","","","","","","","500","","","","","","","","","","","","","","","","","","",""
"","","","","","html-keyboard-response","188","687283","0.0-13.0-1.37","A5P12YJP805RG","2022-05-19T01:32:21.382Z","phon_sim-rhyme-same_different-task_switching","","null","rhyme","<img src=""square.png"" width=""306"" height=""306"" style=""position: fixed;left:14%;top:30%""><img src=""square.png"" width=""306"" height=""306"" style=""position: fixed;left:64%;top:30%"">","null","","","","","","","","","","","","","","","","","","","","","","","","","","","","","","","","","","",""
"","","","","","html-keyboard-response","189","688745","0.0-13.0-2.37","A5P12YJP805RG","2022-05-19T01:32:21.382Z","phon_sim-rhyme-same_different-task_switching","","1460.5999999940395","rhyme","<div style=""border: 3px solid #000000; position: fixed;left:14%;top:30%""><img src=""visual/soap.png"" width=""300""></div><div style=""border: 3px solid #000000; position: fixed;left:64%;top:30%""><img src=""visual/rope.png"" width=""300""></div>","arrowdown","experiment","","","","","","","","","","","","","","","","false","visual/soap.png","visual/rope.png","ArrowUp","non-ortho","","","","","","","","","","","","","",""
"","","","","","html-keyboard-response","190","689253","0.0-13.0-0.38","A5P12YJP805RG","2022-05-19T01:32:21.382Z","phon_sim-rhyme-same_different-task_switching","","null","rhyme","<div style=""font-size:60px;"">+</div>","null","","","","","","","","","","","","","","","","500","","","","","","","","","","","","","","","","","","",""
"","","","","","html-keyboard-response","191","689765","0.0-13.0-1.38","A5P12YJP805RG","2022-05-19T01:32:21.382Z","phon_sim-rhyme-same_different-task_switching","","null","rhyme","<img src=""square.png"" width=""306"" height=""306"" style=""position: fixed;left:14%;top:30%""><img src=""square.png"" width=""306"" height=""306"" style=""position: fixed;left:64%;top:30%"">","null","","","","","","","","","","","","","","","","","","","","","","","","","","","","","","","","","","",""
"","","","","","html-keyboard-response","192","691033","0.0-13.0-2.38","A5P12YJP805RG","2022-05-19T01:32:21.382Z","phon_sim-rhyme-same_different-task_switching","","1267.300000011921","rhyme","<div style=""border: 3px solid #000000; position: fixed;left:14%;top:30%""><img src=""visual/chain.png"" width=""300""></div><div style=""border: 3px solid #000000; position: fixed;left:64%;top:30%""><img src=""visual/brain.png"" width=""300""></div>","arrowup","experiment","","","","","","","","","","","","","","","","true","visual/chain.png","visual/brain.png","ArrowUp","ortho","","","","","","","","","","","","","",""
"","","","","","html-keyboard-response","193","691795","0.0-13.0-0.39","A5P12YJP805RG","2022-05-19T01:32:21.382Z","phon_sim-rhyme-same_different-task_switching","","null","rhyme","<div style=""font-size:60px;"">+</div>","null","","","","","","","","","","","","","","","","750","","","","","","","","","","","","","","","","","","",""
"","","","","","html-keyboard-response","194","692304","0.0-13.0-1.39","A5P12YJP805RG","2022-05-19T01:32:21.382Z","phon_sim-rhyme-same_different-task_switching","","null","rhyme","<img src=""square.png"" width=""306"" height=""306"" style=""position: fixed;left:14%;top:30%""><img src=""square.png"" width=""306"" height=""306"" style=""position: fixed;left:64%;top:30%"">","null","","","","","","","","","","","","","","","","","","","","","","","","","","","","","","","","","","",""
"","","","","","html-keyboard-response","195","694122","0.0-13.0-2.39","A5P12YJP805RG","2022-05-19T01:32:21.382Z","phon_sim-rhyme-same_different-task_switching","","1817.5","rhyme","<div style=""border: 3px solid #000000; position: fixed;left:14%;top:30%""><img src=""visual/egg.png"" width=""300""></div><div style=""border: 3px solid #000000; position: fixed;left:64%;top:30%""><img src=""visual/leg.png"" width=""300""></div>","arrowup","experiment","","","","","","","","","","","","","","","","true","visual/egg.png","visual/leg.png","ArrowUp","ortho","","","","","","","","","","","","","",""
"","","","","","html-keyboard-response","196","694632","0.0-13.0-0.40","A5P12YJP805RG","2022-05-19T01:32:21.382Z","phon_sim-rhyme-same_different-task_switching","","null","rhyme","<div style=""font-size:60px;"">+</div>","null","","","","","","","","","","","","","","","","500","","","","","","","","","","","","","","","","","","",""
