"success","timeout","failed_images","failed_audio","failed_video","trial_type","trial_index","time_elapsed","internal_node_id","worker_id","start_time","experiment_order","view_history","rt","experiment","response","phase","stimulus","condition","answer","correct","operation","trial_no","symbol_cue","color_cue","question_order","talk_out_loud","strategy_free_ans","word_1","word_2","word_3","word_4","word_5","original_word_set","response_1","response_2","response_3","response_4","response_5","wait_time","image_1","image_2","cor_key","type","judgment_type","stim_1","stim_2","inverted","true_pos","false_pos","true_neg","false_neg"
"true","false","[]","[]","[]","preload","0","3425","0.0-0.0","A2MOKIEQZ0OF2M","2022-05-19T01:28:53.514Z","task_switching-phon_sim-rhyme-same_different","","","","","","","","","","","","","","","","","","","","","","","","","","","","","","","","","","","","","","","",""
"","","","","","instructions","1","24491","0.0-1.0","A2MOKIEQZ0OF2M","2022-05-19T01:28:53.514Z","task_switching-phon_sim-rhyme-same_different","[{""page_index"":0,""viewing_time"":21063.89999999851}]","21064.09999999404","","","","","","","","","","","","","","","","","","","","","","","","","","","","","","","","","","","","","",""
"true","","","","","fullscreen","2","36987","0.0-2.0","A2MOKIEQZ0OF2M","2022-05-19T01:28:53.514Z","task_switching-phon_sim-rhyme-same_different","","","","","","","","","","","","","","","","","","","","","","","","","","","","","","","","","","","","","","","",""
"","","","","","instructions","3","54489","0.0-3.0","A2MOKIEQZ0OF2M","2022-05-19T01:28:53.514Z","task_switching-phon_sim-rhyme-same_different","[{""page_index"":0,""viewing_time"":17501.89999999851}]","17502.20000000298","task_switching","","","","","","","","","","","","","","","","","","","","","","","","","","","","","","","","","","","","",""
"","","","","","instructions","4","65985","0.0-4.0","A2MOKIEQZ0OF2M","2022-05-19T01:28:53.514Z","task_switching-phon_sim-rhyme-same_different","[{""page_index"":0,""viewing_time"":11494.79999999702}]","11494.89999999851","task_switching","","","","","","","","","","","","","","","","","","","","","","","","","","","","","","","","","","","","",""
"","","","","","survey-text","5","69201","0.0-5.0","A2MOKIEQZ0OF2M","2022-05-19T01:28:53.514Z","task_switching-phon_sim-rhyme-same_different","","3211.2999999970198","task_switching","{""subtraction_ans"":""33""}","training","36","subtraction","33","true","subtract","","","","","","","","","","","","","","","","","","","","","","","","","","","","","",""
"","","","","","html-keyboard-response","6","70213","0.0-6.0","A2MOKIEQZ0OF2M","2022-05-19T01:28:53.514Z","task_switching-phon_sim-rhyme-same_different","","null","task_switching","null","training","<div style=""color:darkgreen; font-size:60px"">Well done!</div>","subtraction","","","","","","","","","","","","","","","","","","","","","","","","","","","","","","","","",""
"","","","","","survey-text","7","73306","0.0-7.0","A2MOKIEQZ0OF2M","2022-05-19T01:28:53.514Z","task_switching-phon_sim-rhyme-same_different","","3090.39999999851","task_switching","{""subtraction_ans"":""87""}","training","90","subtraction","87","true","subtract","","","","","","","","","","","","","","","","","","","","","","","","","","","","","",""
"","","","","","html-keyboard-response","8","74309","0.0-8.0","A2MOKIEQZ0OF2M","2022-05-19T01:28:53.514Z","task_switching-phon_sim-rhyme-same_different","","null","task_switching","null","training","<div style=""color:darkgreen; font-size:60px"">Well done!</div>","subtraction","","","","","","","","","","","","","","","","","","","","","","","","","","","","","","","","",""
"","","","","","survey-text","9","77882","0.0-9.0","A2MOKIEQZ0OF2M","2022-05-19T01:28:53.514Z","task_switching-phon_sim-rhyme-same_different","","3570.2999999970198","task_switching","{""subtraction_ans"":""70""}","training","73","subtraction","70","true","subtract","","","","","","","","","","","","","","","","","","","","","","","","","","","","","",""
"","","","","","html-keyboard-response","10","78891","0.0-10.0","A2MOKIEQZ0OF2M","2022-05-19T01:28:53.514Z","task_switching-phon_sim-rhyme-same_different","","null","task_switching","null","training","<div style=""color:darkgreen; font-size:60px"">Well done!</div>","subtraction","","","","","","","","","","","","","","","","","","","","","","","","","","","","","","","","",""
"","","","","","survey-text","11","81417","0.0-11.0","A2MOKIEQZ0OF2M","2022-05-19T01:28:53.514Z","task_switching-phon_sim-rhyme-same_different","","2523.89999999851","task_switching","{""subtraction_ans"":""82""}","training","85","subtraction","82","true","subtract","","","","","","","","","","","","","","","","","","","","","","","","","","","","","",""
"","","","","","html-keyboard-response","12","82433","0.0-12.0","A2MOKIEQZ0OF2M","2022-05-19T01:28:53.514Z","task_switching-phon_sim-rhyme-same_different","","null","task_switching","null","training","<div style=""color:darkgreen; font-size:60px"">Well done!</div>","subtraction","","","","","","","","","","","","","","","","","","","","","","","","","","","","","","","","",""
"","","","","","survey-text","13","85113","0.0-13.0","A2MOKIEQZ0OF2M","2022-05-19T01:28:53.514Z","task_switching-phon_sim-rhyme-same_different","","2679.2999999970198","task_switching","{""subtraction_ans"":""50""}","training","53","subtraction","50","true","subtract","","","","","","","","","","","","","","","","","","","","","","","","","","","","","",""
"","","","","","html-keyboard-response","14","86128","0.0-14.0","A2MOKIEQZ0OF2M","2022-05-19T01:28:53.514Z","task_switching-phon_sim-rhyme-same_different","","null","task_switching","null","training","<div style=""color:darkgreen; font-size:60px"">Well done!</div>","subtraction","","","","","","","","","","","","","","","","","","","","","","","","","","","","","","","","",""
"","","","","","survey-text","15","88417","0.0-15.0","A2MOKIEQZ0OF2M","2022-05-19T01:28:53.514Z","task_switching-phon_sim-rhyme-same_different","","2287.60000000149","task_switching","{""subtraction_ans"":""96""}","training","99","subtraction","96","true","subtract","","","","","","","","","","","","","","","","","","","","","","","","","","","","","",""
"","","","","","html-keyboard-response","16","89422","0.0-16.0","A2MOKIEQZ0OF2M","2022-05-19T01:28:53.514Z","task_switching-phon_sim-rhyme-same_different","","null","task_switching","null","training","<div style=""color:darkgreen; font-size:60px"">Well done!</div>","subtraction","","","","","","","","","","","","","","","","","","","","","","","","","","","","","","","","",""
"","","","","","survey-text","17","92697","0.0-17.0","A2MOKIEQZ0OF2M","2022-05-19T01:28:53.514Z","task_switching-phon_sim-rhyme-same_different","","3273","task_switching","{""subtraction_ans"":""16""}","training","19","subtraction","16","true","subtract","","","","","","","","","","","","","","","","","","","","","","","","","","","","","",""
"","","","","","html-keyboard-response","18","93703","0.0-18.0","A2MOKIEQZ0OF2M","2022-05-19T01:28:53.514Z","task_switching-phon_sim-rhyme-same_different","","null","task_switching","null","training","<div style=""color:darkgreen; font-size:60px"">Well done!</div>","subtraction","","","","","","","","","","","","","","","","","","","","","","","","","","","","","","","","",""
"","","","","","survey-text","19","95969","0.0-19.0","A2MOKIEQZ0OF2M","2022-05-19T01:28:53.514Z","task_switching-phon_sim-rhyme-same_different","","2264.2999999970198","task_switching","{""subtraction_ans"":""22""}","training","25","subtraction","22","true","subtract","","","","","","","","","","","","","","","","","","","","","","","","","","","","","",""
"","","","","","html-keyboard-response","20","96982","0.0-20.0","A2MOKIEQZ0OF2M","2022-05-19T01:28:53.514Z","task_switching-phon_sim-rhyme-same_different","","null","task_switching","null","training","<div style=""color:darkgreen; font-size:60px"">Well done!</div>","subtraction","","","","","","","","","","","","","","","","","","","","","","","","","","","","","","","","",""
"","","","","","survey-text","21","99545","0.0-21.0","A2MOKIEQZ0OF2M","2022-05-19T01:28:53.514Z","task_switching-phon_sim-rhyme-same_different","","2561.2999999970198","task_switching","{""subtraction_ans"":""68""}","training","71","subtraction","68","true","subtract","","","","","","","","","","","","","","","","","","","","","","","","","","","","","",""
"","","","","","html-keyboard-response","22","100561","0.0-22.0","A2MOKIEQZ0OF2M","2022-05-19T01:28:53.514Z","task_switching-phon_sim-rhyme-same_different","","null","task_switching","null","training","<div style=""color:darkgreen; font-size:60px"">Well done!</div>","subtraction","","","","","","","","","","","","","","","","","","","","","","","","","","","","","","","","",""
"","","","","","survey-text","23","103225","0.0-23.0","A2MOKIEQZ0OF2M","2022-05-19T01:28:53.514Z","task_switching-phon_sim-rhyme-same_different","","2663.10000000149","task_switching","{""subtraction_ans"":""95""}","training","98","subtraction","95","true","subtract","","","","","","","","","","","","","","","","","","","","","","","","","","","","","",""
"","","","","","html-keyboard-response","24","104232","0.0-24.0","A2MOKIEQZ0OF2M","2022-05-19T01:28:53.514Z","task_switching-phon_sim-rhyme-same_different","","null","task_switching","null","training","<div style=""color:darkgreen; font-size:60px"">Well done!</div>","subtraction","","","","","","","","","","","","","","","","","","","","","","","","","","","","","","","","",""
"","","","","","instructions","25","108249","0.0-25.0","A2MOKIEQZ0OF2M","2022-05-19T01:28:53.514Z","task_switching-phon_sim-rhyme-same_different","[{""page_index"":0,""viewing_time"":4016.2000000029802}]","4016.39999999851","task_switching","","","","","","","","","","","","","","","","","","","","","","","","","","","","","","","","","","","","",""
"","","","","","survey-text","26","111697","0.0-26.0","A2MOKIEQZ0OF2M","2022-05-19T01:28:53.514Z","task_switching-phon_sim-rhyme-same_different","","3446","task_switching","{""subtraction_ans"":""37""}","experiment","40","subtraction","37","true","subtract","","","","","","","","","","","","","","","","","","","","","","","","","","","","","",""
"","","","","","survey-text","27","114225","0.0-27.0","A2MOKIEQZ0OF2M","2022-05-19T01:28:53.514Z","task_switching-phon_sim-rhyme-same_different","","2526","task_switching","{""subtraction_ans"":""70""}","experiment","73","subtraction","70","true","subtract","","","","","","","","","","","","","","","","","","","","","","","","","","","","","",""
"","","","","","survey-text","28","116385","0.0-28.0","A2MOKIEQZ0OF2M","2022-05-19T01:28:53.514Z","task_switching-phon_sim-rhyme-same_different","","2158.3000000044703","task_switching","{""subtraction_ans"":""68""}","experiment","71","subtraction","68","true","subtract","","","","","","","","","","","","","","","","","","","","","","","","","","","","","",""
"","","","","","survey-text","29","119281","0.0-29.0","A2MOKIEQZ0OF2M","2022-05-19T01:28:53.514Z","task_switching-phon_sim-rhyme-same_different","","2894.4000000059605","task_switching","{""subtraction_ans"":""35""}","experiment","38","subtraction","35","true","subtract","","","","","","","","","","","","","","","","","","","","","","","","","","","","","",""
"","","","","","survey-text","30","122297","0.0-30.0","A2MOKIEQZ0OF2M","2022-05-19T01:28:53.514Z","task_switching-phon_sim-rhyme-same_different","","3014.4000000059605","task_switching","{""subtraction_ans"":""83""}","experiment","86","subtraction","83","true","subtract","","","","","","","","","","","","","","","","","","","","","","","","","","","","","",""
"","","","","","survey-text","31","124577","0.0-31.0","A2MOKIEQZ0OF2M","2022-05-19T01:28:53.514Z","task_switching-phon_sim-rhyme-same_different","","2278.60000000149","task_switching","{""subtraction_ans"":""47""}","experiment","50","subtraction","47","true","subtract","","","","","","","","","","","","","","","","","","","","","","","","","","","","","",""
"","","","","","survey-text","32","126921","0.0-32.0","A2MOKIEQZ0OF2M","2022-05-19T01:28:53.514Z","task_switching-phon_sim-rhyme-same_different","","2342","task_switching","{""subtraction_ans"":""87""}","experiment","90","subtraction","87","true","subtract","","","","","","","","","","","","","","","","","","","","","","","","","","","","","",""
"","","","","","survey-text","33","129313","0.0-33.0","A2MOKIEQZ0OF2M","2022-05-19T01:28:53.514Z","task_switching-phon_sim-rhyme-same_different","","2390.39999999851","task_switching","{""subtraction_ans"":""67""}","experiment","70","subtraction","67","true","subtract","","","","","","","","","","","","","","","","","","","","","","","","","","","","","",""
"","","","","","survey-text","34","131385","0.0-34.0","A2MOKIEQZ0OF2M","2022-05-19T01:28:53.514Z","task_switching-phon_sim-rhyme-same_different","","2070.39999999851","task_switching","{""subtraction_ans"":""41""}","experiment","44","subtraction","41","true","subtract","","","","","","","","","","","","","","","","","","","","","","","","","","","","","",""
"","","","","","survey-text","35","134553","0.0-35.0","A2MOKIEQZ0OF2M","2022-05-19T01:28:53.514Z","task_switching-phon_sim-rhyme-same_different","","3166.3000000044703","task_switching","{""subtraction_ans"":""59""}","experiment","62","subtraction","59","true","subtract","","","","","","","","","","","","","","","","","","","","","","","","","","","","","",""
"","","","","","survey-text","36","137441","0.0-36.0","A2MOKIEQZ0OF2M","2022-05-19T01:28:53.514Z","task_switching-phon_sim-rhyme-same_different","","2886.5","task_switching","{""subtraction_ans"":""31""}","experiment","34","subtraction","31","true","subtract","","","","","","","","","","","","","","","","","","","","","","","","","","","","","",""
"","","","","","survey-text","37","139681","0.0-37.0","A2MOKIEQZ0OF2M","2022-05-19T01:28:53.514Z","task_switching-phon_sim-rhyme-same_different","","2238.2000000029802","task_switching","{""subtraction_ans"":""84""}","experiment","87","subtraction","84","true","subtract","","","","","","","","","","","","","","","","","","","","","","","","","","","","","",""
"","","","","","survey-text","38","142137","0.0-38.0","A2MOKIEQZ0OF2M","2022-05-19T01:28:53.514Z","task_switching-phon_sim-rhyme-same_different","","2453.5","task_switching","{""subtraction_ans"":""57""}","experiment","60","subtraction","57","true","subtract","","","","","","","","","","","","","","","","","","","","","","","","","","","","","",""
"","","","","","survey-text","39","144793","0.0-39.0","A2MOKIEQZ0OF2M","2022-05-19T01:28:53.514Z","task_switching-phon_sim-rhyme-same_different","","2654.60000000149","task_switching","{""subtraction_ans"":""65""}","experiment","68","subtraction","65","true","subtract","","","","","","","","","","","","","","","","","","","","","","","","","","","","","",""
"","","","","","survey-text","40","147041","0.0-40.0","A2MOKIEQZ0OF2M","2022-05-19T01:28:53.514Z","task_switching-phon_sim-rhyme-same_different","","2246.2000000029802","task_switching","{""subtraction_ans"":""29""}","experiment","32","subtraction","29","true","subtract","","","","","","","","","","","","","","","","","","","","","","","","","","","","","",""
"","","","","","survey-text","41","149872","0.0-41.0","A2MOKIEQZ0OF2M","2022-05-19T01:28:53.514Z","task_switching-phon_sim-rhyme-same_different","","2829.9000000059605","task_switching","{""subtraction_ans"":""56""}","experiment","59","subtraction","56","true","subtract","","","","","","","","","","","","","","","","","","","","","","","","","","","","","",""
"","","","","","survey-text","42","152353","0.0-42.0","A2MOKIEQZ0OF2M","2022-05-19T01:28:53.514Z","task_switching-phon_sim-rhyme-same_different","","2478.7000000029802","task_switching","{""subtraction_ans"":""16""}","experiment","19","subtraction","16","true","subtract","","","","","","","","","","","","","","","","","","","","","","","","","","","","","",""
"","","","","","survey-text","43","154705","0.0-43.0","A2MOKIEQZ0OF2M","2022-05-19T01:28:53.514Z","task_switching-phon_sim-rhyme-same_different","","2350","task_switching","{""subtraction_ans"":""51""}","experiment","54","subtraction","51","true","subtract","","","","","","","","","","","","","","","","","","","","","","","","","","","","","",""
"","","","","","survey-text","44","156817","0.0-44.0","A2MOKIEQZ0OF2M","2022-05-19T01:28:53.514Z","task_switching-phon_sim-rhyme-same_different","","2110.1999999955297","task_switching","{""subtraction_ans"":""11""}","experiment","14","subtraction","11","true","subtract","","","","","","","","","","","","","","","","","","","","","","","","","","","","","",""
"","","","","","survey-text","45","159152","0.0-45.0","A2MOKIEQZ0OF2M","2022-05-19T01:28:53.514Z","task_switching-phon_sim-rhyme-same_different","","2333.2999999970198","task_switching","{""subtraction_ans"":""94""}","experiment","97","subtraction","94","true","subtract","","","","","","","","","","","","","","","","","","","","","","","","","","","","","",""
"","","","","","survey-text","46","161305","0.0-46.0","A2MOKIEQZ0OF2M","2022-05-19T01:28:53.514Z","task_switching-phon_sim-rhyme-same_different","","2150.5","task_switching","{""subtraction_ans"":""45""}","experiment","48","subtraction","45","true","subtract","","","","","","","","","","","","","","","","","","","","","","","","","","","","","",""
"","","","","","survey-text","47","164193","0.0-47.0","A2MOKIEQZ0OF2M","2022-05-19T01:28:53.514Z","task_switching-phon_sim-rhyme-same_different","","2886.2999999970198","task_switching","{""subtraction_ans"":""46""}","experiment","49","subtraction","46","true","subtract","","","","","","","","","","","","","","","","","","","","","","","","","","","","","",""
"","","","","","survey-text","48","166505","0.0-48.0","A2MOKIEQZ0OF2M","2022-05-19T01:28:53.514Z","task_switching-phon_sim-rhyme-same_different","","2310.39999999851","task_switching","{""subtraction_ans"":""49""}","experiment","52","subtraction","49","true","subtract","","","","","","","","","","","","","","","","","","","","","","","","","","","","","",""
"","","","","","survey-text","49","169193","0.0-49.0","A2MOKIEQZ0OF2M","2022-05-19T01:28:53.514Z","task_switching-phon_sim-rhyme-same_different","","2686.2999999970198","task_switching","{""subtraction_ans"":""90""}","experiment","93","subtraction","90","true","subtract","","","","","","","","","","","","","","","","","","","","","","","","","","","","","",""
"","","","","","survey-text","50","171721","0.0-50.0","A2MOKIEQZ0OF2M","2022-05-19T01:28:53.514Z","task_switching-phon_sim-rhyme-same_different","","2526.5","task_switching","{""subtraction_ans"":""86""}","experiment","89","subtraction","86","true","subtract","","","","","","","","","","","","","","","","","","","","","","","","","","","","","",""
"","","","","","survey-text","51","174569","0.0-51.0","A2MOKIEQZ0OF2M","2022-05-19T01:28:53.514Z","task_switching-phon_sim-rhyme-same_different","","2846.39999999851","task_switching","{""subtraction_ans"":""21""}","experiment","24","subtraction","21","true","subtract","","","","","","","","","","","","","","","","","","","","","","","","","","","","","",""
"","","","","","survey-text","52","176705","0.0-52.0","A2MOKIEQZ0OF2M","2022-05-19T01:28:53.514Z","task_switching-phon_sim-rhyme-same_different","","2134.2000000029802","task_switching","{""subtraction_ans"":""25""}","experiment","28","subtraction","25","true","subtract","","","","","","","","","","","","","","","","","","","","","","","","","","","","","",""
"","","","","","survey-text","53","178849","0.0-53.0","A2MOKIEQZ0OF2M","2022-05-19T01:28:53.514Z","task_switching-phon_sim-rhyme-same_different","","2141.89999999851","task_switching","{""subtraction_ans"":""95""}","experiment","98","subtraction","95","true","subtract","","","","","","","","","","","","","","","","","","","","","","","","","","","","","",""
"","","","","","survey-text","54","181441","0.0-54.0","A2MOKIEQZ0OF2M","2022-05-19T01:28:53.514Z","task_switching-phon_sim-rhyme-same_different","","2590.2000000029802","task_switching","{""subtraction_ans"":""40""}","experiment","43","subtraction","40","true","subtract","","","","","","","","","","","","","","","","","","","","","","","","","","","","","",""
"","","","","","survey-text","55","183665","0.0-55.0","A2MOKIEQZ0OF2M","2022-05-19T01:28:53.514Z","task_switching-phon_sim-rhyme-same_different","","2222.7999999970198","task_switching","{""subtraction_ans"":""19""}","experiment","22","subtraction","19","true","subtract","","","","","","","","","","","","","","","","","","","","","","","","","","","","","",""
"","","","","","instructions","56","193057","0.0-56.0","A2MOKIEQZ0OF2M","2022-05-19T01:28:53.514Z","task_switching-phon_sim-rhyme-same_different","[{""page_index"":0,""viewing_time"":9391.29999999702}]","9391.5","task_switching","","","","","","","","","","","","","","","","","","","","","","","","","","","","","","","","","","","","",""
"","","","","","survey-text","57","197097","0.0-57.0","A2MOKIEQZ0OF2M","2022-05-19T01:28:53.514Z","task_switching-phon_sim-rhyme-same_different","","4037.8000000044703","task_switching","{""addition_ans"":""80""}","training","77","addition","80","true","add","","","","","","","","","","","","","","","","","","","","","","","","","","","","","",""
"","","","","","html-keyboard-response","58","198108","0.0-58.0","A2MOKIEQZ0OF2M","2022-05-19T01:28:53.514Z","task_switching-phon_sim-rhyme-same_different","","null","task_switching","null","training","<div style=""color:darkgreen; font-size:60px"">Well done!</div>","addition","","","","","","","","","","","","","","","","","","","","","","","","","","","","","","","","",""
"","","","","","survey-text","59","200809","0.0-59.0","A2MOKIEQZ0OF2M","2022-05-19T01:28:53.514Z","task_switching-phon_sim-rhyme-same_different","","2699.39999999851","task_switching","{""addition_ans"":""23""}","training","20","addition","23","true","add","","","","","","","","","","","","","","","","","","","","","","","","","","","","","",""
"","","","","","html-keyboard-response","60","201818","0.0-60.0","A2MOKIEQZ0OF2M","2022-05-19T01:28:53.514Z","task_switching-phon_sim-rhyme-same_different","","null","task_switching","null","training","<div style=""color:darkgreen; font-size:60px"">Well done!</div>","addition","","","","","","","","","","","","","","","","","","","","","","","","","","","","","","","","",""
"","","","","","survey-text","61","204441","0.0-61.0","A2MOKIEQZ0OF2M","2022-05-19T01:28:53.514Z","task_switching-phon_sim-rhyme-same_different","","2620.7000000029802","task_switching","{""addition_ans"":""59""}","training","56","addition","59","true","add","","","","","","","","","","","","","","","","","","","","","","","","","","","","","",""
"","","","","","html-keyboard-response","62","205445","0.0-62.0","A2MOKIEQZ0OF2M","2022-05-19T01:28:53.514Z","task_switching-phon_sim-rhyme-same_different","","null","task_switching","null","training","<div style=""color:darkgreen; font-size:60px"">Well done!</div>","addition","","","","","","","","","","","","","","","","","","","","","","","","","","","","","","","","",""
"","","","","","survey-text","63","207953","0.0-63.0","A2MOKIEQZ0OF2M","2022-05-19T01:28:53.514Z","task_switching-phon_sim-rhyme-same_different","","2506.5","task_switching","{""addition_ans"":""65""}","training","62","addition","65","true","add","","","","","","","","","","","","","","","","","","","","","","","","","","","","","",""
"","","","","","html-keyboard-response","64","208961","0.0-64.0","A2MOKIEQZ0OF2M","2022-05-19T01:28:53.514Z","task_switching-phon_sim-rhyme-same_different","","null","task_switching","null","training","<div style=""color:darkgreen; font-size:60px"">Well done!</div>","addition","","","","","","","","","","","","","","","","","","","","","","","","","","","","","","","","",""
"","","","","","survey-text","65","211489","0.0-65.0","A2MOKIEQZ0OF2M","2022-05-19T01:28:53.514Z","task_switching-phon_sim-rhyme-same_different","","2525.89999999851","task_switching","{""addition_ans"":""78""}","training","75","addition","78","true","add","","","","","","","","","","","","","","","","","","","","","","","","","","","","","",""
"","","","","","html-keyboard-response","66","212502","0.0-66.0","A2MOKIEQZ0OF2M","2022-05-19T01:28:53.514Z","task_switching-phon_sim-rhyme-same_different","","null","task_switching","null","training","<div style=""color:darkgreen; font-size:60px"">Well done!</div>","addition","","","","","","","","","","","","","","","","","","","","","","","","","","","","","","","","",""
"","","","","","survey-text","67","214729","0.0-67.0","A2MOKIEQZ0OF2M","2022-05-19T01:28:53.514Z","task_switching-phon_sim-rhyme-same_different","","2225.2000000029802","task_switching","{""addition_ans"":""96""}","training","93","addition","96","true","add","","","","","","","","","","","","","","","","","","","","","","","","","","","","","",""
"","","","","","html-keyboard-response","68","215749","0.0-68.0","A2MOKIEQZ0OF2M","2022-05-19T01:28:53.514Z","task_switching-phon_sim-rhyme-same_different","","null","task_switching","null","training","<div style=""color:darkgreen; font-size:60px"">Well done!</div>","addition","","","","","","","","","","","","","","","","","","","","","","","","","","","","","","","","",""
"","","","","","survey-text","69","218057","0.0-69.0","A2MOKIEQZ0OF2M","2022-05-19T01:28:53.514Z","task_switching-phon_sim-rhyme-same_different","","2306.3000000044703","task_switching","{""addition_ans"":""66""}","training","63","addition","66","true","add","","","","","","","","","","","","","","","","","","","","","","","","","","","","","",""
"","","","","","html-keyboard-response","70","219059","0.0-70.0","A2MOKIEQZ0OF2M","2022-05-19T01:28:53.514Z","task_switching-phon_sim-rhyme-same_different","","null","task_switching","null","training","<div style=""color:darkgreen; font-size:60px"">Well done!</div>","addition","","","","","","","","","","","","","","","","","","","","","","","","","","","","","","","","",""
"","","","","","survey-text","71","221473","0.0-71.0","A2MOKIEQZ0OF2M","2022-05-19T01:28:53.514Z","task_switching-phon_sim-rhyme-same_different","","2412.10000000149","task_switching","{""addition_ans"":""40""}","training","37","addition","40","true","add","","","","","","","","","","","","","","","","","","","","","","","","","","","","","",""
"","","","","","html-keyboard-response","72","222484","0.0-72.0","A2MOKIEQZ0OF2M","2022-05-19T01:28:53.514Z","task_switching-phon_sim-rhyme-same_different","","null","task_switching","null","training","<div style=""color:darkgreen; font-size:60px"">Well done!</div>","addition","","","","","","","","","","","","","","","","","","","","","","","","","","","","","","","","",""
"","","","","","survey-text","73","224785","0.0-73.0","A2MOKIEQZ0OF2M","2022-05-19T01:28:53.514Z","task_switching-phon_sim-rhyme-same_different","","2299.10000000149","task_switching","{""addition_ans"":""82""}","training","79","addition","82","true","add","","","","","","","","","","","","","","","","","","","","","","","","","","","","","",""
"","","","","","html-keyboard-response","74","225794","0.0-74.0","A2MOKIEQZ0OF2M","2022-05-19T01:28:53.514Z","task_switching-phon_sim-rhyme-same_different","","null","task_switching","null","training","<div style=""color:darkgreen; font-size:60px"">Well done!</div>","addition","","","","","","","","","","","","","","","","","","","","","","","","","","","","","","","","",""
"","","","","","survey-text","75","228353","0.0-75.0","A2MOKIEQZ0OF2M","2022-05-19T01:28:53.514Z","task_switching-phon_sim-rhyme-same_different","","2557.60000000149","task_switching","{""addition_ans"":""24""}","training","21","addition","24","true","add","","","","","","","","","","","","","","","","","","","","","","","","","","","","","",""
"","","","","","html-keyboard-response","76","229357","0.0-76.0","A2MOKIEQZ0OF2M","2022-05-19T01:28:53.514Z","task_switching-phon_sim-rhyme-same_different","","null","task_switching","null","training","<div style=""color:darkgreen; font-size:60px"">Well done!</div>","addition","","","","","","","","","","","","","","","","","","","","","","","","","","","","","","","","",""
"","","","","","instructions","77","231562","0.0-77.0","A2MOKIEQZ0OF2M","2022-05-19T01:28:53.514Z","task_switching-phon_sim-rhyme-same_different","[{""page_index"":0,""viewing_time"":2211.1999999955297}]","2211.2999999970198","task_switching","","","","","","","","","","","","","","","","","","","","","","","","","","","","","","","","","","","","",""
"","","","","","survey-text","78","234562","0.0-78.0","A2MOKIEQZ0OF2M","2022-05-19T01:28:53.514Z","task_switching-phon_sim-rhyme-same_different","","2998.39999999851","task_switching","{""addition_ans"":""21""}","experiment","18","addition","21","true","add","","","","","","","","","","","","","","","","","","","","","","","","","","","","","",""
"","","","","","survey-text","79","236778","0.0-79.0","A2MOKIEQZ0OF2M","2022-05-19T01:28:53.514Z","task_switching-phon_sim-rhyme-same_different","","2214.2999999970198","task_switching","{""addition_ans"":""70""}","experiment","67","addition","70","true","add","","","","","","","","","","","","","","","","","","","","","","","","","","","","","",""
"","","","","","survey-text","80","238834","0.0-80.0","A2MOKIEQZ0OF2M","2022-05-19T01:28:53.514Z","task_switching-phon_sim-rhyme-same_different","","2054.60000000149","task_switching","{""addition_ans"":""69""}","experiment","66","addition","69","true","add","","","","","","","","","","","","","","","","","","","","","","","","","","","","","",""
"","","","","","survey-text","81","240714","0.0-81.0","A2MOKIEQZ0OF2M","2022-05-19T01:28:53.514Z","task_switching-phon_sim-rhyme-same_different","","1878.1999999955297","task_switching","{""addition_ans"":""35""}","experiment","32","addition","35","true","add","","","","","","","","","","","","","","","","","","","","","","","","","","","","","",""
"","","","","","survey-text","82","244338","0.0-82.0","A2MOKIEQZ0OF2M","2022-05-19T01:28:53.514Z","task_switching-phon_sim-rhyme-same_different","","3621.89999999851","task_switching","{""addition_ans"":""65""}","experiment","62","addition","65","true","add","","","","","","","","","","","","","","","","","","","","","","","","","","","","","",""
"","","","","","survey-text","83","246898","0.0-83.0","A2MOKIEQZ0OF2M","2022-05-19T01:28:53.514Z","task_switching-phon_sim-rhyme-same_different","","2558.6999999955297","task_switching","{""addition_ans"":""45""}","experiment","42","addition","45","true","add","","","","","","","","","","","","","","","","","","","","","","","","","","","","","",""
"","","","","","survey-text","84","249010","0.0-84.0","A2MOKIEQZ0OF2M","2022-05-19T01:28:53.514Z","task_switching-phon_sim-rhyme-same_different","","2110.1999999955297","task_switching","{""addition_ans"":""20""}","experiment","17","addition","20","true","add","","","","","","","","","","","","","","","","","","","","","","","","","","","","","",""
"","","","","","survey-text","85","251586","0.0-85.0","A2MOKIEQZ0OF2M","2022-05-19T01:28:53.514Z","task_switching-phon_sim-rhyme-same_different","","2573.5","task_switching","{""addition_ans"":""98""}","experiment","95","addition","98","true","add","","","","","","","","","","","","","","","","","","","","","","","","","","","","","",""
"","","","","","survey-text","86","254002","0.0-86.0","A2MOKIEQZ0OF2M","2022-05-19T01:28:53.514Z","task_switching-phon_sim-rhyme-same_different","","2414.2000000029802","task_switching","{""addition_ans"":""16""}","experiment","13","addition","16","true","add","","","","","","","","","","","","","","","","","","","","","","","","","","","","","",""
"","","","","","survey-text","87","256674","0.0-87.0","A2MOKIEQZ0OF2M","2022-05-19T01:28:53.514Z","task_switching-phon_sim-rhyme-same_different","","2670.10000000149","task_switching","{""addition_ans"":""68""}","experiment","65","addition","68","true","add","","","","","","","","","","","","","","","","","","","","","","","","","","","","","",""
"","","","","","survey-text","88","258754","0.0-88.0","A2MOKIEQZ0OF2M","2022-05-19T01:28:53.514Z","task_switching-phon_sim-rhyme-same_different","","2078.2000000029802","task_switching","{""addition_ans"":""99""}","experiment","96","addition","99","true","add","","","","","","","","","","","","","","","","","","","","","","","","","","","","","",""
"","","","","","survey-text","89","260858","0.0-89.0","A2MOKIEQZ0OF2M","2022-05-19T01:28:53.514Z","task_switching-phon_sim-rhyme-same_different","","2102.5","task_switching","{""addition_ans"":""74""}","experiment","71","addition","74","true","add","","","","","","","","","","","","","","","","","","","","","","","","","","","","","",""
"","","","","","survey-text","90","262930","0.0-90.0","A2MOKIEQZ0OF2M","2022-05-19T01:28:53.514Z","task_switching-phon_sim-rhyme-same_different","","2070.2000000029802","task_switching","{""addition_ans"":""53""}","experiment","50","addition","53","true","add","","","","","","","","","","","","","","","","","","","","","","","","","","","","","",""
"","","","","","survey-text","91","265178","0.0-91.0","A2MOKIEQZ0OF2M","2022-05-19T01:28:53.514Z","task_switching-phon_sim-rhyme-same_different","","2246.4000000059605","task_switching","{""addition_ans"":""95""}","experiment","92","addition","95","true","add","","","","","","","","","","","","","","","","","","","","","","","","","","","","","",""
"","","","","","survey-text","92","267362","0.0-92.0","A2MOKIEQZ0OF2M","2022-05-19T01:28:53.514Z","task_switching-phon_sim-rhyme-same_different","","2182.39999999851","task_switching","{""addition_ans"":""26""}","experiment","23","addition","26","true","add","","","","","","","","","","","","","","","","","","","","","","","","","","","","","",""
"","","","","","survey-text","93","269642","0.0-93.0","A2MOKIEQZ0OF2M","2022-05-19T01:28:53.514Z","task_switching-phon_sim-rhyme-same_different","","2278.2000000029802","task_switching","{""addition_ans"":""76""}","experiment","73","addition","76","true","add","","","","","","","","","","","","","","","","","","","","","","","","","","","","","",""
"","","","","","survey-text","94","271826","0.0-94.0","A2MOKIEQZ0OF2M","2022-05-19T01:28:53.514Z","task_switching-phon_sim-rhyme-same_different","","2182.3000000044703","task_switching","{""addition_ans"":""43""}","experiment","40","addition","43","true","add","","","","","","","","","","","","","","","","","","","","","","","","","","","","","",""
"","","","","","survey-text","95","273930","0.0-95.0","A2MOKIEQZ0OF2M","2022-05-19T01:28:53.514Z","task_switching-phon_sim-rhyme-same_different","","2102","task_switching","{""addition_ans"":""47""}","experiment","44","addition","47","true","add","","","","","","","","","","","","","","","","","","","","","","","","","","","","","",""
"","","","","","survey-text","96","276522","0.0-96.0","A2MOKIEQZ0OF2M","2022-05-19T01:28:53.514Z","task_switching-phon_sim-rhyme-same_different","","2590.2000000029802","task_switching","{""addition_ans"":""61""}","experiment","58","addition","61","true","add","","","","","","","","","","","","","","","","","","","","","","","","","","","","","",""
"","","","","","survey-text","97","278762","0.0-97.0","A2MOKIEQZ0OF2M","2022-05-19T01:28:53.514Z","task_switching-phon_sim-rhyme-same_different","","2238.4000000059605","task_switching","{""addition_ans"":""15""}","experiment","12","addition","15","true","add","","","","","","","","","","","","","","","","","","","","","","","","","","","","","",""
"","","","","","survey-text","98","281218","0.0-98.0","A2MOKIEQZ0OF2M","2022-05-19T01:28:53.514Z","task_switching-phon_sim-rhyme-same_different","","2454.10000000149","task_switching","{""addition_ans"":""51""}","experiment","48","addition","51","true","add","","","","","","","","","","","","","","","","","","","","","","","","","","","","","",""
"","","","","","survey-text","99","283706","0.0-99.0","A2MOKIEQZ0OF2M","2022-05-19T01:28:53.514Z","task_switching-phon_sim-rhyme-same_different","","2486.5","task_switching","{""addition_ans"":""72""}","experiment","69","addition","72","true","add","","","","","","","","","","","","","","","","","","","","","","","","","","","","","",""
"","","","","","survey-text","100","287474","0.0-100.0","A2MOKIEQZ0OF2M","2022-05-19T01:28:53.514Z","task_switching-phon_sim-rhyme-same_different","","3766.10000000149","task_switching","{""addition_ans"":""27""}","experiment","24","addition","27","true","add","","","","","","","","","","","","","","","","","","","","","","","","","","","","","",""
"","","","","","survey-text","101","289394","0.0-101.0","A2MOKIEQZ0OF2M","2022-05-19T01:28:53.514Z","task_switching-phon_sim-rhyme-same_different","","1918.2000000029802","task_switching","{""addition_ans"":""77""}","experiment","74","addition","77","true","add","","","","","","","","","","","","","","","","","","","","","","","","","","","","","",""
"","","","","","survey-text","102","291543","0.0-102.0","A2MOKIEQZ0OF2M","2022-05-19T01:28:53.514Z","task_switching-phon_sim-rhyme-same_different","","2142.2000000029802","task_switching","{""addition_ans"":""62""}","experiment","59","addition","62","true","add","","","","","","","","","","","","","","","","","","","","","","","","","","","","","",""
"","","","","","survey-text","103","293671","0.0-103.0","A2MOKIEQZ0OF2M","2022-05-19T01:28:53.514Z","task_switching-phon_sim-rhyme-same_different","","2126.10000000149","task_switching","{""addition_ans"":""93""}","experiment","90","addition","93","true","add","","","","","","","","","","","","","","","","","","","","","","","","","","","","","",""
"","","","","","survey-text","104","295711","0.0-104.0","A2MOKIEQZ0OF2M","2022-05-19T01:28:53.514Z","task_switching-phon_sim-rhyme-same_different","","2038.1000000014901","task_switching","{""addition_ans"":""23""}","experiment","20","addition","23","true","add","","","","","","","","","","","","","","","","","","","","","","","","","","","","","",""
"","","","","","survey-text","105","297783","0.0-105.0","A2MOKIEQZ0OF2M","2022-05-19T01:28:53.514Z","task_switching-phon_sim-rhyme-same_different","","2070.5","task_switching","{""addition_ans"":""32""}","experiment","29","addition","32","true","add","","","","","","","","","","","","","","","","","","","","","","","","","","","","","",""
"","","","","","survey-text","106","299871","0.0-106.0","A2MOKIEQZ0OF2M","2022-05-19T01:28:53.514Z","task_switching-phon_sim-rhyme-same_different","","2086.2000000029802","task_switching","{""addition_ans"":""97""}","experiment","94","addition","97","true","add","","","","","","","","","","","","","","","","","","","","","","","","","","","","","",""
"","","","","","survey-text","107","301880","0.0-107.0","A2MOKIEQZ0OF2M","2022-05-19T01:28:53.514Z","task_switching-phon_sim-rhyme-same_different","","2006.3999999985099","task_switching","{""addition_ans"":""44""}","experiment","41","addition","44","true","add","","","","","","","","","","","","","","","","","","","","","","","","","","","","","",""
"","","","","","instructions","108","316919","0.0-108.0","A2MOKIEQZ0OF2M","2022-05-19T01:28:53.514Z","task_switching-phon_sim-rhyme-same_different","[{""page_index"":0,""viewing_time"":15038.89999999851}]","15039.20000000298","task_switching","","","","","","","","","","","","","","","","","","","","","","","","","","","","","","","","","","","","",""
"","","","","","survey-text","109","320847","0.0-109.0","A2MOKIEQZ0OF2M","2022-05-19T01:28:53.514Z","task_switching-phon_sim-rhyme-same_different","","3926.10000000149","task_switching","{""uncued_switch_ans"":""59""}","training","56","uncued_switch","59","true","add","0","","","","","","","","","","","","","","","","","","","","","","","","","","","","",""
"","","","","","html-keyboard-response","110","321857","0.0-110.0","A2MOKIEQZ0OF2M","2022-05-19T01:28:53.514Z","task_switching-phon_sim-rhyme-same_different","","null","task_switching","null","training","<div style=""color:darkgreen; font-size:60px"">Well done!</div>","uncued_switch","","","","","","","","","","","","","","","","","","","","","","","","","","","","","","","","",""
"","","","","","survey-text","111","324183","0.0-111.0","A2MOKIEQZ0OF2M","2022-05-19T01:28:53.514Z","task_switching-phon_sim-rhyme-same_different","","2324.3000000044703","task_switching","{""uncued_switch_ans"":""22""}","training","25","uncued_switch","22","true","subtract","1","","","","","","","","","","","","","","","","","","","","","","","","","","","","",""
"","","","","","html-keyboard-response","112","325199","0.0-112.0","A2MOKIEQZ0OF2M","2022-05-19T01:28:53.514Z","task_switching-phon_sim-rhyme-same_different","","null","task_switching","null","training","<div style=""color:darkgreen; font-size:60px"">Well done!</div>","uncued_switch","","","","","","","","","","","","","","","","","","","","","","","","","","","","","","","","",""
"","","","","","survey-text","113","327927","0.0-113.0","A2MOKIEQZ0OF2M","2022-05-19T01:28:53.514Z","task_switching-phon_sim-rhyme-same_different","","2726.2999999970198","task_switching","{""uncued_switch_ans"":""35""}","training","32","uncued_switch","35","true","add","2","","","","","","","","","","","","","","","","","","","","","","","","","","","","",""
"","","","","","html-keyboard-response","114","328940","0.0-114.0","A2MOKIEQZ0OF2M","2022-05-19T01:28:53.514Z","task_switching-phon_sim-rhyme-same_different","","null","task_switching","null","training","<div style=""color:darkgreen; font-size:60px"">Well done!</div>","uncued_switch","","","","","","","","","","","","","","","","","","","","","","","","","","","","","","","","",""
"","","","","","survey-text","115","331063","0.0-115.0","A2MOKIEQZ0OF2M","2022-05-19T01:28:53.514Z","task_switching-phon_sim-rhyme-same_different","","2121.39999999851","task_switching","{""uncued_switch_ans"":""17""}","training","20","uncued_switch","17","true","subtract","3","","","","","","","","","","","","","","","","","","","","","","","","","","","","",""
"","","","","","html-keyboard-response","116","332072","0.0-116.0","A2MOKIEQZ0OF2M","2022-05-19T01:28:53.514Z","task_switching-phon_sim-rhyme-same_different","","null","task_switching","null","training","<div style=""color:darkgreen; font-size:60px"">Well done!</div>","uncued_switch","","","","","","","","","","","","","","","","","","","","","","","","","","","","","","","","",""
"","","","","","survey-text","117","334783","0.0-117.0","A2MOKIEQZ0OF2M","2022-05-19T01:28:53.514Z","task_switching-phon_sim-rhyme-same_different","","2709.2999999970198","task_switching","{""uncued_switch_ans"":""92""}","training","89","uncued_switch","92","true","add","4","","","","","","","","","","","","","","","","","","","","","","","","","","","","",""
"","","","","","html-keyboard-response","118","335798","0.0-118.0","A2MOKIEQZ0OF2M","2022-05-19T01:28:53.514Z","task_switching-phon_sim-rhyme-same_different","","null","task_switching","null","training","<div style=""color:darkgreen; font-size:60px"">Well done!</div>","uncued_switch","","","","","","","","","","","","","","","","","","","","","","","","","","","","","","","","",""
"","","","","","survey-text","119","338207","0.0-119.0","A2MOKIEQZ0OF2M","2022-05-19T01:28:53.514Z","task_switching-phon_sim-rhyme-same_different","","2407.10000000149","task_switching","{""uncued_switch_ans"":""64""}","training","67","uncued_switch","64","true","subtract","5","","","","","","","","","","","","","","","","","","","","","","","","","","","","",""
"","","","","","html-keyboard-response","120","339223","0.0-120.0","A2MOKIEQZ0OF2M","2022-05-19T01:28:53.514Z","task_switching-phon_sim-rhyme-same_different","","null","task_switching","null","training","<div style=""color:darkgreen; font-size:60px"">Well done!</div>","uncued_switch","","","","","","","","","","","","","","","","","","","","","","","","","","","","","","","","",""
"","","","","","survey-text","121","341711","0.0-121.0","A2MOKIEQZ0OF2M","2022-05-19T01:28:53.514Z","task_switching-phon_sim-rhyme-same_different","","2486.2000000029802","task_switching","{""uncued_switch_ans"":""68""}","training","65","uncued_switch","68","true","add","6","","","","","","","","","","","","","","","","","","","","","","","","","","","","",""
"","","","","","html-keyboard-response","122","342718","0.0-122.0","A2MOKIEQZ0OF2M","2022-05-19T01:28:53.514Z","task_switching-phon_sim-rhyme-same_different","","null","task_switching","null","training","<div style=""color:darkgreen; font-size:60px"">Well done!</div>","uncued_switch","","","","","","","","","","","","","","","","","","","","","","","","","","","","","","","","",""
"","","","","","survey-text","123","345055","0.0-123.0","A2MOKIEQZ0OF2M","2022-05-19T01:28:53.514Z","task_switching-phon_sim-rhyme-same_different","","2335.5","task_switching","{""uncued_switch_ans"":""28""}","training","31","uncued_switch","28","true","subtract","7","","","","","","","","","","","","","","","","","","","","","","","","","","","","",""
"","","","","","html-keyboard-response","124","346065","0.0-124.0","A2MOKIEQZ0OF2M","2022-05-19T01:28:53.514Z","task_switching-phon_sim-rhyme-same_different","","null","task_switching","null","training","<div style=""color:darkgreen; font-size:60px"">Well done!</div>","uncued_switch","","","","","","","","","","","","","","","","","","","","","","","","","","","","","","","","",""
"","","","","","survey-text","125","348591","0.0-125.0","A2MOKIEQZ0OF2M","2022-05-19T01:28:53.514Z","task_switching-phon_sim-rhyme-same_different","","2524.60000000149","task_switching","{""uncued_switch_ans"":""16""}","training","13","uncued_switch","16","true","add","8","","","","","","","","","","","","","","","","","","","","","","","","","","","","",""
"","","","","","html-keyboard-response","126","349607","0.0-126.0","A2MOKIEQZ0OF2M","2022-05-19T01:28:53.514Z","task_switching-phon_sim-rhyme-same_different","","null","task_switching","null","training","<div style=""color:darkgreen; font-size:60px"">Well done!</div>","uncued_switch","","","","","","","","","","","","","","","","","","","","","","","","","","","","","","","","",""
"","","","","","survey-text","127","351888","0.0-127.0","A2MOKIEQZ0OF2M","2022-05-19T01:28:53.514Z","task_switching-phon_sim-rhyme-same_different","","2278.60000000149","task_switching","{""uncued_switch_ans"":""20""}","training","23","uncued_switch","20","true","subtract","9","","","","","","","","","","","","","","","","","","","","","","","","","","","","",""
"","","","","","html-keyboard-response","128","352901","0.0-128.0","A2MOKIEQZ0OF2M","2022-05-19T01:28:53.514Z","task_switching-phon_sim-rhyme-same_different","","null","task_switching","null","training","<div style=""color:darkgreen; font-size:60px"">Well done!</div>","uncued_switch","","","","","","","","","","","","","","","","","","","","","","","","","","","","","","","","",""
"","","","","","instructions","129","359039","0.0-129.0","A2MOKIEQZ0OF2M","2022-05-19T01:28:53.514Z","task_switching-phon_sim-rhyme-same_different","[{""page_index"":0,""viewing_time"":6137.89999999851}]","6138","task_switching","","","","","","","","","","","","","","","","","","","","","","","","","","","","","","","","","","","","",""
"","","","","","survey-text","130","361888","0.0-130.0","A2MOKIEQZ0OF2M","2022-05-19T01:28:53.514Z","task_switching-phon_sim-rhyme-same_different","","2846.5","task_switching","{""uncued_switch_ans"":""23""}","experiment","20","uncued_switch","23","true","add","0","","","","","","","","","","","","","","","","","","","","","","","","","","","","",""
"","","","","","survey-text","131","364184","0.0-131.0","A2MOKIEQZ0OF2M","2022-05-19T01:28:53.514Z","task_switching-phon_sim-rhyme-same_different","","2293.60000000149","task_switching","{""uncued_switch_ans"":""72""}","experiment","75","uncued_switch","72","true","subtract","1","","","","","","","","","","","","","","","","","","","","","","","","","","","","",""
"","","","","","survey-text","132","366439","0.0-132.0","A2MOKIEQZ0OF2M","2022-05-19T01:28:53.514Z","task_switching-phon_sim-rhyme-same_different","","2254.10000000149","task_switching","{""uncued_switch_ans"":""76""}","experiment","73","uncued_switch","76","true","add","2","","","","","","","","","","","","","","","","","","","","","","","","","","","","",""
"","","","","","survey-text","133","368575","0.0-133.0","A2MOKIEQZ0OF2M","2022-05-19T01:28:53.514Z","task_switching-phon_sim-rhyme-same_different","","2133.89999999851","task_switching","{""uncued_switch_ans"":""16""}","experiment","19","uncued_switch","16","true","subtract","3","","","","","","","","","","","","","","","","","","","","","","","","","","","","",""
"","","","","","survey-text","134","370783","0.0-134.0","A2MOKIEQZ0OF2M","2022-05-19T01:28:53.514Z","task_switching-phon_sim-rhyme-same_different","","2206.10000000149","task_switching","{""uncued_switch_ans"":""42""}","experiment","39","uncued_switch","42","true","add","4","","","","","","","","","","","","","","","","","","","","","","","","","","","","",""
"","","","","","survey-text","135","373968","0.0-135.0","A2MOKIEQZ0OF2M","2022-05-19T01:28:53.514Z","task_switching-phon_sim-rhyme-same_different","","3182.60000000149","task_switching","{""uncued_switch_ans"":""15""}","experiment","18","uncued_switch","15","true","subtract","5","","","","","","","","","","","","","","","","","","","","","","","","","","","","",""
"","","","","","survey-text","136","375823","0.0-136.0","A2MOKIEQZ0OF2M","2022-05-19T01:28:53.514Z","task_switching-phon_sim-rhyme-same_different","","1854.2000000029802","task_switching","{""uncued_switch_ans"":""33""}","experiment","30","uncued_switch","33","true","add","6","","","","","","","","","","","","","","","","","","","","","","","","","","","","",""
"","","","","","survey-text","137","379063","0.0-137.0","A2MOKIEQZ0OF2M","2022-05-19T01:28:53.514Z","task_switching-phon_sim-rhyme-same_different","","3238.39999999851","task_switching","{""uncued_switch_ans"":""54""}","experiment","57","uncued_switch","54","true","subtract","7","","","","","","","","","","","","","","","","","","","","","","","","","","","","",""
"","","","","","survey-text","138","381191","0.0-138.0","A2MOKIEQZ0OF2M","2022-05-19T01:28:53.514Z","task_switching-phon_sim-rhyme-same_different","","2126.5","task_switching","{""uncued_switch_ans"":""52""}","experiment","49","uncued_switch","52","true","add","8","","","","","","","","","","","","","","","","","","","","","","","","","","","","",""
"","","","","","survey-text","139","383479","0.0-139.0","A2MOKIEQZ0OF2M","2022-05-19T01:28:53.514Z","task_switching-phon_sim-rhyme-same_different","","2285.9000000059605","task_switching","{""uncued_switch_ans"":""28""}","experiment","31","uncued_switch","28","true","subtract","9","","","","","","","","","","","","","","","","","","","","","","","","","","","","",""
"","","","","","survey-text","140","387095","0.0-140.0","A2MOKIEQZ0OF2M","2022-05-19T01:28:53.514Z","task_switching-phon_sim-rhyme-same_different","","3614.10000000149","task_switching","{""uncued_switch_ans"":""38""}","experiment","35","uncued_switch","38","true","add","10","","","","","","","","","","","","","","","","","","","","","","","","","","","","",""
"","","","","","survey-text","141","389647","0.0-141.0","A2MOKIEQZ0OF2M","2022-05-19T01:28:53.514Z","task_switching-phon_sim-rhyme-same_different","","2550.39999999851","task_switching","{""uncued_switch_ans"":""21""}","experiment","24","uncued_switch","21","true","subtract","11","","","","","","","","","","","","","","","","","","","","","","","","","","","","",""
"","","","","","survey-text","142","392071","0.0-142.0","A2MOKIEQZ0OF2M","2022-05-19T01:28:53.514Z","task_switching-phon_sim-rhyme-same_different","","2422.39999999851","task_switching","{""uncued_switch_ans"":""46""}","experiment","43","uncued_switch","46","true","add","12","","","","","","","","","","","","","","","","","","","","","","","","","","","","",""
"","","","","","survey-text","143","394575","0.0-143.0","A2MOKIEQZ0OF2M","2022-05-19T01:28:53.514Z","task_switching-phon_sim-rhyme-same_different","","2502.39999999851","task_switching","{""uncued_switch_ans"":""65""}","experiment","68","uncued_switch","65","true","subtract","13","","","","","","","","","","","","","","","","","","","","","","","","","","","","",""
"","","","","","survey-text","144","396703","0.0-144.0","A2MOKIEQZ0OF2M","2022-05-19T01:28:53.514Z","task_switching-phon_sim-rhyme-same_different","","2126.39999999851","task_switching","{""uncued_switch_ans"":""57""}","experiment","54","uncued_switch","57","true","add","14","","","","","","","","","","","","","","","","","","","","","","","","","","","","",""
"","","","","","survey-text","145","399111","0.0-145.0","A2MOKIEQZ0OF2M","2022-05-19T01:28:53.514Z","task_switching-phon_sim-rhyme-same_different","","2405.89999999851","task_switching","{""uncued_switch_ans"":""80""}","experiment","83","uncued_switch","80","true","subtract","15","","","","","","","","","","","","","","","","","","","","","","","","","","","","",""
"","","","","","survey-text","146","401615","0.0-146.0","A2MOKIEQZ0OF2M","2022-05-19T01:28:53.514Z","task_switching-phon_sim-rhyme-same_different","","2502.89999999851","task_switching","{""uncued_switch_ans"":""91""}","experiment","88","uncued_switch","91","true","add","16","","","","","","","","","","","","","","","","","","","","","","","","","","","","",""
"","","","","","survey-text","147","403559","0.0-147.0","A2MOKIEQZ0OF2M","2022-05-19T01:28:53.514Z","task_switching-phon_sim-rhyme-same_different","","1942.0999999940395","task_switching","{""uncued_switch_ans"":""63""}","experiment","66","uncued_switch","63","true","subtract","17","","","","","","","","","","","","","","","","","","","","","","","","","","","","",""
"","","","","","survey-text","148","405991","0.0-148.0","A2MOKIEQZ0OF2M","2022-05-19T01:28:53.514Z","task_switching-phon_sim-rhyme-same_different","","2430.39999999851","task_switching","{""uncued_switch_ans"":""49""}","experiment","46","uncued_switch","49","true","add","18","","","","","","","","","","","","","","","","","","","","","","","","","","","","",""
"","","","","","survey-text","149","409255","0.0-149.0","A2MOKIEQZ0OF2M","2022-05-19T01:28:53.514Z","task_switching-phon_sim-rhyme-same_different","","3262.2000000029802","task_switching","{""uncued_switch_ans"":""56""}","experiment","59","uncued_switch","56","true","subtract","19","","","","","","","","","","","","","","","","","","","","","","","","","","","","",""
"","","","","","survey-text","150","411711","0.0-150.0","A2MOKIEQZ0OF2M","2022-05-19T01:28:53.514Z","task_switching-phon_sim-rhyme-same_different","","2454.2999999970198","task_switching","{""uncued_switch_ans"":""35""}","experiment","32","uncued_switch","35","true","add","20","","","","","","","","","","","","","","","","","","","","","","","","","","","","",""
"","","","","","survey-text","151","415175","0.0-151.0","A2MOKIEQZ0OF2M","2022-05-19T01:28:53.514Z","task_switching-phon_sim-rhyme-same_different","","3462.5","task_switching","{""uncued_switch_ans"":""92""}","experiment","95","uncued_switch","92","true","subtract","21","","","","","","","","","","","","","","","","","","","","","","","","","","","","",""
"","","","","","survey-text","152","417567","0.0-152.0","A2MOKIEQZ0OF2M","2022-05-19T01:28:53.514Z","task_switching-phon_sim-rhyme-same_different","","2390.3000000044703","task_switching","{""uncued_switch_ans"":""77""}","experiment","74","uncued_switch","77","true","add","22","","","","","","","","","","","","","","","","","","","","","","","","","","","","",""
"","","","","","survey-text","153","420431","0.0-153.0","A2MOKIEQZ0OF2M","2022-05-19T01:28:53.514Z","task_switching-phon_sim-rhyme-same_different","","2862.10000000149","task_switching","{""uncued_switch_ans"":""10""}","experiment","13","uncued_switch","10","true","subtract","23","","","","","","","","","","","","","","","","","","","","","","","","","","","","",""
"","","","","","survey-text","154","423383","0.0-154.0","A2MOKIEQZ0OF2M","2022-05-19T01:28:53.514Z","task_switching-phon_sim-rhyme-same_different","","2950.6999999955297","task_switching","{""uncued_switch_ans"":""89""}","experiment","86","uncued_switch","89","true","add","24","","","","","","","","","","","","","","","","","","","","","","","","","","","","",""
"","","","","","survey-text","155","425615","0.0-155.0","A2MOKIEQZ0OF2M","2022-05-19T01:28:53.514Z","task_switching-phon_sim-rhyme-same_different","","2230.10000000149","task_switching","{""uncued_switch_ans"":""44""}","experiment","47","uncued_switch","44","true","subtract","25","","","","","","","","","","","","","","","","","","","","","","","","","","","","",""
"","","","","","survey-text","156","428175","0.0-156.0","A2MOKIEQZ0OF2M","2022-05-19T01:28:53.514Z","task_switching-phon_sim-rhyme-same_different","","2558.0999999940395","task_switching","{""uncued_switch_ans"":""19""}","experiment","16","uncued_switch","19","true","add","26","","","","","","","","","","","","","","","","","","","","","","","","","","","","",""
"","","","","","survey-text","157","430823","0.0-157.0","A2MOKIEQZ0OF2M","2022-05-19T01:28:53.514Z","task_switching-phon_sim-rhyme-same_different","","2646.7000000029802","task_switching","{""uncued_switch_ans"":""89""}","experiment","92","uncued_switch","89","true","subtract","27","","","","","","","","","","","","","","","","","","","","","","","","","","","","",""
"","","","","","survey-text","158","435047","0.0-158.0","A2MOKIEQZ0OF2M","2022-05-19T01:28:53.514Z","task_switching-phon_sim-rhyme-same_different","","4222.39999999851","task_switching","{""uncued_switch_ans"":""92""}","experiment","89","uncued_switch","92","true","add","28","","","","","","","","","","","","","","","","","","","","","","","","","","","","",""
"","","","","","survey-text","159","437871","0.0-159.0","A2MOKIEQZ0OF2M","2022-05-19T01:28:53.514Z","task_switching-phon_sim-rhyme-same_different","","2822.2000000029802","task_switching","{""uncued_switch_ans"":""78""}","experiment","81","uncued_switch","78","true","subtract","29","","","","","","","","","","","","","","","","","","","","","","","","","","","","",""
"","","","","","instructions","160","450047","0.0-160.0","A2MOKIEQZ0OF2M","2022-05-19T01:28:53.514Z","task_switching-phon_sim-rhyme-same_different","[{""page_index"":0,""viewing_time"":12174.69999999553}]","12175.10000000149","task_switching","","","","","","","","","","","","","","","","","","","","","","","","","","","","","","","","","","","","",""
"","","","","","survey-text","161","454167","0.0-161.0","A2MOKIEQZ0OF2M","2022-05-19T01:28:53.514Z","task_switching-phon_sim-rhyme-same_different","","4118","task_switching","{""symbolcue_switch_ans"":""99""}","training","96","symbolcue_switch","99","true","add","0","+","","","","","","","","","","","","","","","","","","","","","","","","","","","",""
"","","","","","html-keyboard-response","162","455184","0.0-162.0","A2MOKIEQZ0OF2M","2022-05-19T01:28:53.514Z","task_switching-phon_sim-rhyme-same_different","","null","task_switching","null","training","<div style=""color:darkgreen; font-size:60px"">Well done!</div>","symbolcue_switch","","","","","","","","","","","","","","","","","","","","","","","","","","","","","","","","",""
"","","","","","survey-text","163","458231","0.0-163.0","A2MOKIEQZ0OF2M","2022-05-19T01:28:53.514Z","task_switching-phon_sim-rhyme-same_different","","3045.10000000149","task_switching","{""symbolcue_switch_ans"":""20""}","training","23","symbolcue_switch","20","true","subtract","1","-","","","","","","","","","","","","","","","","","","","","","","","","","","","",""
"","","","","","html-keyboard-response","164","459242","0.0-164.0","A2MOKIEQZ0OF2M","2022-05-19T01:28:53.514Z","task_switching-phon_sim-rhyme-same_different","","null","task_switching","null","training","<div style=""color:darkgreen; font-size:60px"">Well done!</div>","symbolcue_switch","","","","","","","","","","","","","","","","","","","","","","","","","","","","","","","","",""
"","","","","","survey-text","165","462583","0.0-165.0","A2MOKIEQZ0OF2M","2022-05-19T01:28:53.514Z","task_switching-phon_sim-rhyme-same_different","","3339.2999999970198","task_switching","{""symbolcue_switch_ans"":""51""}","training","48","symbolcue_switch","51","true","add","2","+","","","","","","","","","","","","","","","","","","","","","","","","","","","",""
"","","","","","html-keyboard-response","166","463592","0.0-166.0","A2MOKIEQZ0OF2M","2022-05-19T01:28:53.514Z","task_switching-phon_sim-rhyme-same_different","","null","task_switching","null","training","<div style=""color:darkgreen; font-size:60px"">Well done!</div>","symbolcue_switch","","","","","","","","","","","","","","","","","","","","","","","","","","","","","","","","",""
"","","","","","survey-text","167","466743","0.0-167.0","A2MOKIEQZ0OF2M","2022-05-19T01:28:53.514Z","task_switching-phon_sim-rhyme-same_different","","3148.89999999851","task_switching","{""symbolcue_switch_ans"":""68""}","training","71","symbolcue_switch","68","true","subtract","3","-","","","","","","","","","","","","","","","","","","","","","","","","","","","",""
"","","","","","html-keyboard-response","168","467756","0.0-168.0","A2MOKIEQZ0OF2M","2022-05-19T01:28:53.514Z","task_switching-phon_sim-rhyme-same_different","","null","task_switching","null","training","<div style=""color:darkgreen; font-size:60px"">Well done!</div>","symbolcue_switch","","","","","","","","","","","","","","","","","","","","","","","","","","","","","","","","",""
"","","","","","survey-text","169","471239","0.0-169.0","A2MOKIEQZ0OF2M","2022-05-19T01:28:53.514Z","task_switching-phon_sim-rhyme-same_different","","3480","task_switching","{""symbolcue_switch_ans"":""43""}","training","40","symbolcue_switch","43","true","add","4","+","","","","","","","","","","","","","","","","","","","","","","","","","","","",""
"","","","","","html-keyboard-response","170","472255","0.0-170.0","A2MOKIEQZ0OF2M","2022-05-19T01:28:53.514Z","task_switching-phon_sim-rhyme-same_different","","null","task_switching","null","training","<div style=""color:darkgreen; font-size:60px"">Well done!</div>","symbolcue_switch","","","","","","","","","","","","","","","","","","","","","","","","","","","","","","","","",""
"","","","","","survey-text","171","474943","0.0-171.0","A2MOKIEQZ0OF2M","2022-05-19T01:28:53.514Z","task_switching-phon_sim-rhyme-same_different","","2686.2999999970198","task_switching","{""symbolcue_switch_ans"":""34""}","training","37","symbolcue_switch","34","true","subtract","5","-","","","","","","","","","","","","","","","","","","","","","","","","","","","",""
"","","","","","html-keyboard-response","172","475950","0.0-172.0","A2MOKIEQZ0OF2M","2022-05-19T01:28:53.514Z","task_switching-phon_sim-rhyme-same_different","","null","task_switching","null","training","<div style=""color:darkgreen; font-size:60px"">Well done!</div>","symbolcue_switch","","","","","","","","","","","","","","","","","","","","","","","","","","","","","","","","",""
"","","","","","survey-text","173","478903","0.0-173.0","A2MOKIEQZ0OF2M","2022-05-19T01:28:53.514Z","task_switching-phon_sim-rhyme-same_different","","2951.2999999970198","task_switching","{""symbolcue_switch_ans"":""34""}","training","31","symbolcue_switch","34","true","add","6","+","","","","","","","","","","","","","","","","","","","","","","","","","","","",""
"","","","","","html-keyboard-response","174","479908","0.0-174.0","A2MOKIEQZ0OF2M","2022-05-19T01:28:53.514Z","task_switching-phon_sim-rhyme-same_different","","null","task_switching","null","training","<div style=""color:darkgreen; font-size:60px"">Well done!</div>","symbolcue_switch","","","","","","","","","","","","","","","","","","","","","","","","","","","","","","","","",""
"","","","","","survey-text","175","482639","0.0-175.0","A2MOKIEQZ0OF2M","2022-05-19T01:28:53.514Z","task_switching-phon_sim-rhyme-same_different","","2729.2999999970198","task_switching","{""symbolcue_switch_ans"":""54""}","training","57","symbolcue_switch","54","true","subtract","7","-","","","","","","","","","","","","","","","","","","","","","","","","","","","",""
"","","","","","html-keyboard-response","176","483656","0.0-176.0","A2MOKIEQZ0OF2M","2022-05-19T01:28:53.514Z","task_switching-phon_sim-rhyme-same_different","","null","task_switching","null","training","<div style=""color:darkgreen; font-size:60px"">Well done!</div>","symbolcue_switch","","","","","","","","","","","","","","","","","","","","","","","","","","","","","","","","",""
"","","","","","survey-text","177","486639","0.0-177.0","A2MOKIEQZ0OF2M","2022-05-19T01:28:53.514Z","task_switching-phon_sim-rhyme-same_different","","2980.89999999851","task_switching","{""symbolcue_switch_ans"":""17""}","training","14","symbolcue_switch","17","true","add","8","+","","","","","","","","","","","","","","","","","","","","","","","","","","","",""
"","","","","","html-keyboard-response","178","487652","0.0-178.0","A2MOKIEQZ0OF2M","2022-05-19T01:28:53.514Z","task_switching-phon_sim-rhyme-same_different","","null","task_switching","null","training","<div style=""color:darkgreen; font-size:60px"">Well done!</div>","symbolcue_switch","","","","","","","","","","","","","","","","","","","","","","","","","","","","","","","","",""
"","","","","","survey-text","179","491127","0.0-179.0","A2MOKIEQZ0OF2M","2022-05-19T01:28:53.514Z","task_switching-phon_sim-rhyme-same_different","","3472.89999999851","task_switching","{""symbolcue_switch_ans"":""24""}","training","27","symbolcue_switch","24","true","subtract","9","-","","","","","","","","","","","","","","","","","","","","","","","","","","","",""
"","","","","","html-keyboard-response","180","492129","0.0-180.0","A2MOKIEQZ0OF2M","2022-05-19T01:28:53.514Z","task_switching-phon_sim-rhyme-same_different","","null","task_switching","null","training","<div style=""color:darkgreen; font-size:60px"">Well done!</div>","symbolcue_switch","","","","","","","","","","","","","","","","","","","","","","","","","","","","","","","","",""
"","","","","","instructions","181","495142","0.0-181.0","A2MOKIEQZ0OF2M","2022-05-19T01:28:53.514Z","task_switching-phon_sim-rhyme-same_different","[{""page_index"":0,""viewing_time"":3012.5}]","3012.7000000029802","task_switching","","","","","","","","","","","","","","","","","","","","","","","","","","","","","","","","","","","","",""
"","","","","","survey-text","182","498263","0.0-182.0","A2MOKIEQZ0OF2M","2022-05-19T01:28:53.514Z","task_switching-phon_sim-rhyme-same_different","","3118.5","task_switching","{""symbolcue_switch_ans"":""45""}","experiment","42","symbolcue_switch","45","true","add","0","+","","","","","","","","","","","","","","","","","","","","","","","","","","","",""
"","","","","","survey-text","183","500735","0.0-183.0","A2MOKIEQZ0OF2M","2022-05-19T01:28:53.514Z","task_switching-phon_sim-rhyme-same_different","","2469.89999999851","task_switching","{""symbolcue_switch_ans"":""19""}","experiment","22","symbolcue_switch","19","true","subtract","1","-","","","","","","","","","","","","","","","","","","","","","","","","","","","",""
"","","","","","survey-text","184","503031","0.0-184.0","A2MOKIEQZ0OF2M","2022-05-19T01:28:53.514Z","task_switching-phon_sim-rhyme-same_different","","2294.2000000029802","task_switching","{""symbolcue_switch_ans"":""44""}","experiment","41","symbolcue_switch","44","true","add","2","+","","","","","","","","","","","","","","","","","","","","","","","","","","","",""
"","","","","","survey-text","185","505447","0.0-185.0","A2MOKIEQZ0OF2M","2022-05-19T01:28:53.514Z","task_switching-phon_sim-rhyme-same_different","","2413.9000000059605","task_switching","{""symbolcue_switch_ans"":""63""}","experiment","66","symbolcue_switch","63","true","subtract","3","-","","","","","","","","","","","","","","","","","","","","","","","","","","","",""
"","","","","","survey-text","186","509967","0.0-186.0","A2MOKIEQZ0OF2M","2022-05-19T01:28:53.514Z","task_switching-phon_sim-rhyme-same_different","","4518.10000000149","task_switching","{""symbolcue_switch_ans"":""84""}","experiment","81","symbolcue_switch","84","true","add","4","+","","","","","","","","","","","","","","","","","","","","","","","","","","","",""
"","","","","","survey-text","187","512247","0.0-187.0","A2MOKIEQZ0OF2M","2022-05-19T01:28:53.514Z","task_switching-phon_sim-rhyme-same_different","","2278.3000000044703","task_switching","{""symbolcue_switch_ans"":""87""}","experiment","90","symbolcue_switch","87","true","subtract","5","-","","","","","","","","","","","","","","","","","","","","","","","","","","","",""
"","","","","","survey-text","188","514607","0.0-188.0","A2MOKIEQZ0OF2M","2022-05-19T01:28:53.514Z","task_switching-phon_sim-rhyme-same_different","","2358.2000000029802","task_switching","{""symbolcue_switch_ans"":""52""}","experiment","49","symbolcue_switch","52","true","add","6","+","","","","","","","","","","","","","","","","","","","","","","","","","","","",""
"","","","","","survey-text","189","518431","0.0-189.0","A2MOKIEQZ0OF2M","2022-05-19T01:28:53.514Z","task_switching-phon_sim-rhyme-same_different","","3822.39999999851","task_switching","{""symbolcue_switch_ans"":""52""}","experiment","55","symbolcue_switch","52","true","subtract","7","-","","","","","","","","","","","","","","","","","","","","","","","","","","","",""
"","","","","","survey-text","190","521343","0.0-190.0","A2MOKIEQZ0OF2M","2022-05-19T01:28:53.514Z","task_switching-phon_sim-rhyme-same_different","","2909.89999999851","task_switching","{""symbolcue_switch_ans"":""85""}","experiment","82","symbolcue_switch","85","true","add","8","+","","","","","","","","","","","","","","","","","","","","","","","","","","","",""
"","","","","","survey-text","191","523415","0.0-191.0","A2MOKIEQZ0OF2M","2022-05-19T01:28:53.514Z","task_switching-phon_sim-rhyme-same_different","","2070.1999999955297","task_switching","{""symbolcue_switch_ans"":""10""}","experiment","13","symbolcue_switch","10","true","subtract","9","-","","","","","","","","","","","","","","","","","","","","","","","","","","","",""
"","","","","","survey-text","192","525983","0.0-192.0","A2MOKIEQZ0OF2M","2022-05-19T01:28:53.514Z","task_switching-phon_sim-rhyme-same_different","","2566.39999999851","task_switching","{""symbolcue_switch_ans"":""70""}","experiment","67","symbolcue_switch","70","true","add","10","+","","","","","","","","","","","","","","","","","","","","","","","","","","","",""
"","","","","","survey-text","193","528543","0.0-193.0","A2MOKIEQZ0OF2M","2022-05-19T01:28:53.514Z","task_switching-phon_sim-rhyme-same_different","","2558.39999999851","task_switching","{""symbolcue_switch_ans"":""57""}","experiment","60","symbolcue_switch","57","true","subtract","11","-","","","","","","","","","","","","","","","","","","","","","","","","","","","",""
"","","","","","survey-text","194","531527","0.0-194.0","A2MOKIEQZ0OF2M","2022-05-19T01:28:53.514Z","task_switching-phon_sim-rhyme-same_different","","2982","task_switching","{""symbolcue_switch_ans"":""90""}","experiment","87","symbolcue_switch","90","true","add","12","+","","","","","","","","","","","","","","","","","","","","","","","","","","","",""
"","","","","","survey-text","195","534734","0.0-195.0","A2MOKIEQZ0OF2M","2022-05-19T01:28:53.514Z","task_switching-phon_sim-rhyme-same_different","","3206.2999999970198","task_switching","{""symbolcue_switch_ans"":""90""}","experiment","93","symbolcue_switch","90","true","subtract","13","-","","","","","","","","","","","","","","","","","","","","","","","","","","","",""
"","","","","","survey-text","196","537046","0.0-196.0","A2MOKIEQZ0OF2M","2022-05-19T01:28:53.514Z","task_switching-phon_sim-rhyme-same_different","","2310.1999999955297","task_switching","{""symbolcue_switch_ans"":""99""}","experiment","96","symbolcue_switch","99","true","add","14","+","","","","","","","","","","","","","","","","","","","","","","","","","","","",""
"","","","","","survey-text","197","539734","0.0-197.0","A2MOKIEQZ0OF2M","2022-05-19T01:28:53.514Z","task_switching-phon_sim-rhyme-same_different","","2686.1999999955297","task_switching","{""symbolcue_switch_ans"":""51""}","experiment","54","symbolcue_switch","51","true","subtract","15","-","","","","","","","","","","","","","","","","","","","","","","","","","","","",""
"","","","","","survey-text","198","542190","0.0-198.0","A2MOKIEQZ0OF2M","2022-05-19T01:28:53.514Z","task_switching-phon_sim-rhyme-same_different","","2453.5","task_switching","{""symbolcue_switch_ans"":""97""}","experiment","94","symbolcue_switch","97","true","add","16","+","","","","","","","","","","","","","","","","","","","","","","","","","","","",""
"","","","","","survey-text","199","544798","0.0-199.0","A2MOKIEQZ0OF2M","2022-05-19T01:28:53.514Z","task_switching-phon_sim-rhyme-same_different","","2606.2999999970198","task_switching","{""symbolcue_switch_ans"":""65""}","experiment","68","symbolcue_switch","65","true","subtract","17","-","","","","","","","","","","","","","","","","","","","","","","","","","","","",""
"","","","","","survey-text","200","547294","0.0-200.0","A2MOKIEQZ0OF2M","2022-05-19T01:28:53.514Z","task_switching-phon_sim-rhyme-same_different","","2493.6999999955297","task_switching","{""symbolcue_switch_ans"":""80""}","experiment","77","symbolcue_switch","80","true","add","18","+","","","","","","","","","","","","","","","","","","","","","","","","","","","",""
"","","","","","survey-text","201","549846","0.0-201.0","A2MOKIEQZ0OF2M","2022-05-19T01:28:53.514Z","task_switching-phon_sim-rhyme-same_different","","2550.39999999851","task_switching","{""symbolcue_switch_ans"":""81""}","experiment","84","symbolcue_switch","81","true","subtract","19","-","","","","","","","","","","","","","","","","","","","","","","","","","","","",""
"","","","","","survey-text","202","552542","0.0-202.0","A2MOKIEQZ0OF2M","2022-05-19T01:28:53.514Z","task_switching-phon_sim-rhyme-same_different","","2694.5","task_switching","{""symbolcue_switch_ans"":""48""}","experiment","45","symbolcue_switch","48","true","add","20","+","","","","","","","","","","","","","","","","","","","","","","","","","","","",""
"","","","","","survey-text","203","558398","0.0-203.0","A2MOKIEQZ0OF2M","2022-05-19T01:28:53.514Z","task_switching-phon_sim-rhyme-same_different","","5854.29999999702","task_switching","{""symbolcue_switch_ans"":""66""}","experiment","69","symbolcue_switch","66","true","subtract","21","-","","","","","","","","","","","","","","","","","","","","","","","","","","","",""
"","","","","","survey-text","204","560742","0.0-204.0","A2MOKIEQZ0OF2M","2022-05-19T01:28:53.514Z","task_switching-phon_sim-rhyme-same_different","","2342.1999999955297","task_switching","{""symbolcue_switch_ans"":""78""}","experiment","75","symbolcue_switch","78","true","add","22","+","","","","","","","","","","","","","","","","","","","","","","","","","","","",""
"","","","","","survey-text","205","563502","0.0-205.0","A2MOKIEQZ0OF2M","2022-05-19T01:28:53.514Z","task_switching-phon_sim-rhyme-same_different","","2758.5","task_switching","{""symbolcue_switch_ans"":""53""}","experiment","56","symbolcue_switch","53","true","subtract","23","-","","","","","","","","","","","","","","","","","","","","","","","","","","","",""
"","","","","","survey-text","206","566126","0.0-206.0","A2MOKIEQZ0OF2M","2022-05-19T01:28:53.514Z","task_switching-phon_sim-rhyme-same_different","","2622.1999999955297","task_switching","{""symbolcue_switch_ans"":""73""}","experiment","70","symbolcue_switch","73","true","add","24","+","","","","","","","","","","","","","","","","","","","","","","","","","","","",""
"","","","","","survey-text","207","568662","0.0-207.0","A2MOKIEQZ0OF2M","2022-05-19T01:28:53.514Z","task_switching-phon_sim-rhyme-same_different","","2534.39999999851","task_switching","{""symbolcue_switch_ans"":""86""}","experiment","89","symbolcue_switch","86","true","subtract","25","-","","","","","","","","","","","","","","","","","","","","","","","","","","","",""
"","","","","","survey-text","208","571270","0.0-208.0","A2MOKIEQZ0OF2M","2022-05-19T01:28:53.514Z","task_switching-phon_sim-rhyme-same_different","","2606.2000000029802","task_switching","{""symbolcue_switch_ans"":""51""}","experiment","48","symbolcue_switch","51","true","add","26","+","","","","","","","","","","","","","","","","","","","","","","","","","","","",""
"","","","","","survey-text","209","574206","0.0-209.0","A2MOKIEQZ0OF2M","2022-05-19T01:28:53.514Z","task_switching-phon_sim-rhyme-same_different","","2934.4000000059605","task_switching","{""symbolcue_switch_ans"":""16""}","experiment","19","symbolcue_switch","16","true","subtract","27","-","","","","","","","","","","","","","","","","","","","","","","","","","","","",""
"","","","","","survey-text","210","576638","0.0-210.0","A2MOKIEQZ0OF2M","2022-05-19T01:28:53.514Z","task_switching-phon_sim-rhyme-same_different","","2430.2000000029802","task_switching","{""symbolcue_switch_ans"":""20""}","experiment","17","symbolcue_switch","20","true","add","28","+","","","","","","","","","","","","","","","","","","","","","","","","","","","",""
"","","","","","survey-text","211","579014","0.0-211.0","A2MOKIEQZ0OF2M","2022-05-19T01:28:53.514Z","task_switching-phon_sim-rhyme-same_different","","2373.8000000044703","task_switching","{""symbolcue_switch_ans"":""76""}","experiment","79","symbolcue_switch","76","true","subtract","29","-","","","","","","","","","","","","","","","","","","","","","","","","","","","",""
"","","","","","instructions","212","587734","0.0-212.0","A2MOKIEQZ0OF2M","2022-05-19T01:28:53.514Z","task_switching-phon_sim-rhyme-same_different","[{""page_index"":0,""viewing_time"":8718.89999999851}]","8719.10000000149","task_switching","","","","","","","","","","","","","","","","","","","","","","","","","","","","","","","","","","","","",""
"","","","","","survey-text","213","591694","0.0-213.0","A2MOKIEQZ0OF2M","2022-05-19T01:28:53.514Z","task_switching-phon_sim-rhyme-same_different","","3958.2000000029802","task_switching","{""colorcue_switch_ans"":""50""}","training","47","colorcue_switch","50","true","add","0","","red","","","","","","","","","","","","","","","","","","","","","","","","","","",""
"","","","","","html-keyboard-response","214","592704","0.0-214.0","A2MOKIEQZ0OF2M","2022-05-19T01:28:53.514Z","task_switching-phon_sim-rhyme-same_different","","null","task_switching","null","training","<div style=""color:darkgreen; font-size:60px"">Well done!</div>","colorcue_switch","","","","","","","","","","","","","","","","","","","","","","","","","","","","","","","","",""
"","","","","","survey-text","215","595590","0.0-215.0","A2MOKIEQZ0OF2M","2022-05-19T01:28:53.514Z","task_switching-phon_sim-rhyme-same_different","","2884.10000000149","task_switching","{""colorcue_switch_ans"":""76""}","training","79","colorcue_switch","76","true","subtract","1","","blue","","","","","","","","","","","","","","","","","","","","","","","","","","",""
"","","","","","html-keyboard-response","216","596601","0.0-216.0","A2MOKIEQZ0OF2M","2022-05-19T01:28:53.514Z","task_switching-phon_sim-rhyme-same_different","","null","task_switching","null","training","<div style=""color:darkgreen; font-size:60px"">Well done!</div>","colorcue_switch","","","","","","","","","","","","","","","","","","","","","","","","","","","","","","","","",""
"","","","","","survey-text","217","599182","0.0-217.0","A2MOKIEQZ0OF2M","2022-05-19T01:28:53.514Z","task_switching-phon_sim-rhyme-same_different","","2578.8000000044703","task_switching","{""colorcue_switch_ans"":""75""}","training","72","colorcue_switch","75","true","add","2","","red","","","","","","","","","","","","","","","","","","","","","","","","","","",""
"","","","","","html-keyboard-response","218","600198","0.0-218.0","A2MOKIEQZ0OF2M","2022-05-19T01:28:53.514Z","task_switching-phon_sim-rhyme-same_different","","null","task_switching","null","training","<div style=""color:darkgreen; font-size:60px"">Well done!</div>","colorcue_switch","","","","","","","","","","","","","","","","","","","","","","","","","","","","","","","","",""
"","","","","","survey-text","219","602750","0.0-219.0","A2MOKIEQZ0OF2M","2022-05-19T01:28:53.514Z","task_switching-phon_sim-rhyme-same_different","","2550.60000000149","task_switching","{""colorcue_switch_ans"":""70""}","training","73","colorcue_switch","70","true","subtract","3","","blue","","","","","","","","","","","","","","","","","","","","","","","","","","",""
"","","","","","html-keyboard-response","220","603760","0.0-220.0","A2MOKIEQZ0OF2M","2022-05-19T01:28:53.514Z","task_switching-phon_sim-rhyme-same_different","","null","task_switching","null","training","<div style=""color:darkgreen; font-size:60px"">Well done!</div>","colorcue_switch","","","","","","","","","","","","","","","","","","","","","","","","","","","","","","","","",""
"","","","","","survey-text","221","606758","0.0-221.0","A2MOKIEQZ0OF2M","2022-05-19T01:28:53.514Z","task_switching-phon_sim-rhyme-same_different","","2996.39999999851","task_switching","{""colorcue_switch_ans"":""49""}","training","46","colorcue_switch","49","true","add","4","","red","","","","","","","","","","","","","","","","","","","","","","","","","","",""
"","","","","","html-keyboard-response","222","607770","0.0-222.0","A2MOKIEQZ0OF2M","2022-05-19T01:28:53.514Z","task_switching-phon_sim-rhyme-same_different","","null","task_switching","null","training","<div style=""color:darkgreen; font-size:60px"">Well done!</div>","colorcue_switch","","","","","","","","","","","","","","","","","","","","","","","","","","","","","","","","",""
"","","","","","survey-text","223","610262","0.0-223.0","A2MOKIEQZ0OF2M","2022-05-19T01:28:53.514Z","task_switching-phon_sim-rhyme-same_different","","2490","task_switching","{""colorcue_switch_ans"":""74""}","training","77","colorcue_switch","74","true","subtract","5","","blue","","","","","","","","","","","","","","","","","","","","","","","","","","",""
"","","","","","html-keyboard-response","224","611264","0.0-224.0","A2MOKIEQZ0OF2M","2022-05-19T01:28:53.514Z","task_switching-phon_sim-rhyme-same_different","","null","task_switching","null","training","<div style=""color:darkgreen; font-size:60px"">Well done!</div>","colorcue_switch","","","","","","","","","","","","","","","","","","","","","","","","","","","","","","","","",""
"","","","","","survey-text","225","613534","0.0-225.0","A2MOKIEQZ0OF2M","2022-05-19T01:28:53.514Z","task_switching-phon_sim-rhyme-same_different","","2267.7999999970198","task_switching","{""colorcue_switch_ans"":""99""}","training","96","colorcue_switch","99","true","add","6","","red","","","","","","","","","","","","","","","","","","","","","","","","","","",""
"","","","","","html-keyboard-response","226","614541","0.0-226.0","A2MOKIEQZ0OF2M","2022-05-19T01:28:53.514Z","task_switching-phon_sim-rhyme-same_different","","null","task_switching","null","training","<div style=""color:darkgreen; font-size:60px"">Well done!</div>","colorcue_switch","","","","","","","","","","","","","","","","","","","","","","","","","","","","","","","","",""
"","","","","","survey-text","227","617238","0.0-227.0","A2MOKIEQZ0OF2M","2022-05-19T01:28:53.514Z","task_switching-phon_sim-rhyme-same_different","","2695","task_switching","{""colorcue_switch_ans"":""19""}","training","22","colorcue_switch","19","true","subtract","7","","blue","","","","","","","","","","","","","","","","","","","","","","","","","","",""
"","","","","","html-keyboard-response","228","618246","0.0-228.0","A2MOKIEQZ0OF2M","2022-05-19T01:28:53.514Z","task_switching-phon_sim-rhyme-same_different","","null","task_switching","null","training","<div style=""color:darkgreen; font-size:60px"">Well done!</div>","colorcue_switch","","","","","","","","","","","","","","","","","","","","","","","","","","","","","","","","",""
"","","","","","survey-text","229","621158","0.0-229.0","A2MOKIEQZ0OF2M","2022-05-19T01:28:53.514Z","task_switching-phon_sim-rhyme-same_different","","2910","task_switching","{""colorcue_switch_ans"":""30""}","training","27","colorcue_switch","30","true","add","8","","red","","","","","","","","","","","","","","","","","","","","","","","","","","",""
"","","","","","html-keyboard-response","230","622165","0.0-230.0","A2MOKIEQZ0OF2M","2022-05-19T01:28:53.514Z","task_switching-phon_sim-rhyme-same_different","","null","task_switching","null","training","<div style=""color:darkgreen; font-size:60px"">Well done!</div>","colorcue_switch","","","","","","","","","","","","","","","","","","","","","","","","","","","","","","","","",""
"","","","","","survey-text","231","624526","0.0-231.0","A2MOKIEQZ0OF2M","2022-05-19T01:28:53.514Z","task_switching-phon_sim-rhyme-same_different","","2359.39999999851","task_switching","{""colorcue_switch_ans"":""16""}","training","19","colorcue_switch","16","true","subtract","9","","blue","","","","","","","","","","","","","","","","","","","","","","","","","","",""
"","","","","","html-keyboard-response","232","625537","0.0-232.0","A2MOKIEQZ0OF2M","2022-05-19T01:28:53.514Z","task_switching-phon_sim-rhyme-same_different","","null","task_switching","null","training","<div style=""color:darkgreen; font-size:60px"">Well done!</div>","colorcue_switch","","","","","","","","","","","","","","","","","","","","","","","","","","","","","","","","",""
"","","","","","instructions","233","652309","0.0-233.0","A2MOKIEQZ0OF2M","2022-05-19T01:28:53.514Z","task_switching-phon_sim-rhyme-same_different","[{""page_index"":0,""viewing_time"":26771.5}]","26771.79999999702","task_switching","","","","","","","","","","","","","","","","","","","","","","","","","","","","","","","","","","","","",""
"","","","","","survey-text","234","658765","0.0-234.0","A2MOKIEQZ0OF2M","2022-05-19T01:28:53.514Z","task_switching-phon_sim-rhyme-same_different","","6453.69999999553","task_switching","{""colorcue_switch_ans"":""66""}","experiment","63","colorcue_switch","66","true","add","0","","red","","","","","","","","","","","","","","","","","","","","","","","","","","",""
"","","","","","survey-text","235","660917","0.0-235.0","A2MOKIEQZ0OF2M","2022-05-19T01:28:53.514Z","task_switching-phon_sim-rhyme-same_different","","2150.3000000044703","task_switching","{""colorcue_switch_ans"":""52""}","experiment","55","colorcue_switch","52","true","subtract","1","","blue","","","","","","","","","","","","","","","","","","","","","","","","","","",""
"","","","","","survey-text","236","665285","0.0-236.0","A2MOKIEQZ0OF2M","2022-05-19T01:28:53.514Z","task_switching-phon_sim-rhyme-same_different","","4366","task_switching","{""colorcue_switch_ans"":""75""}","experiment","72","colorcue_switch","75","true","add","2","","red","","","","","","","","","","","","","","","","","","","","","","","","","","",""
"","","","","","survey-text","237","667549","0.0-237.0","A2MOKIEQZ0OF2M","2022-05-19T01:28:53.514Z","task_switching-phon_sim-rhyme-same_different","","2262","task_switching","{""colorcue_switch_ans"":""58""}","experiment","61","colorcue_switch","58","true","subtract","3","","blue","","","","","","","","","","","","","","","","","","","","","","","","","","",""
"","","","","","survey-text","238","670429","0.0-238.0","A2MOKIEQZ0OF2M","2022-05-19T01:28:53.514Z","task_switching-phon_sim-rhyme-same_different","","2878.39999999851","task_switching","{""colorcue_switch_ans"":""41""}","experiment","38","colorcue_switch","41","true","add","4","","red","","","","","","","","","","","","","","","","","","","","","","","","","","",""
"","","","","","survey-text","239","672621","0.0-239.0","A2MOKIEQZ0OF2M","2022-05-19T01:28:53.514Z","task_switching-phon_sim-rhyme-same_different","","2190.10000000149","task_switching","{""colorcue_switch_ans"":""89""}","experiment","92","colorcue_switch","89","true","subtract","5","","blue","","","","","","","","","","","","","","","","","","","","","","","","","","",""
"","","","","","survey-text","240","675469","0.0-240.0","A2MOKIEQZ0OF2M","2022-05-19T01:28:53.514Z","task_switching-phon_sim-rhyme-same_different","","2845.60000000149","task_switching","{""colorcue_switch_ans"":""63""}","experiment","60","colorcue_switch","63","true","add","6","","red","","","","","","","","","","","","","","","","","","","","","","","","","","",""
"","","","","","survey-text","241","678781","0.0-241.0","A2MOKIEQZ0OF2M","2022-05-19T01:28:53.514Z","task_switching-phon_sim-rhyme-same_different","","3310.5","task_switching","{""colorcue_switch_ans"":""23""}","experiment","26","colorcue_switch","23","true","subtract","7","","blue","","","","","","","","","","","","","","","","","","","","","","","","","","",""
"","","","","","survey-text","242","681061","0.0-242.0","A2MOKIEQZ0OF2M","2022-05-19T01:28:53.514Z","task_switching-phon_sim-rhyme-same_different","","2278.10000000149","task_switching","{""colorcue_switch_ans"":""73""}","experiment","70","colorcue_switch","73","true","add","8","","red","","","","","","","","","","","","","","","","","","","","","","","","","","",""
"","","","","","survey-text","243","685189","0.0-243.0","A2MOKIEQZ0OF2M","2022-05-19T01:28:53.514Z","task_switching-phon_sim-rhyme-same_different","","4126.19999999553","task_switching","{""colorcue_switch_ans"":""73""}","experiment","76","colorcue_switch","73","true","subtract","9","","blue","","","","","","","","","","","","","","","","","","","","","","","","","","",""
"","","","","","survey-text","244","688717","0.0-244.0","A2MOKIEQZ0OF2M","2022-05-19T01:28:53.514Z","task_switching-phon_sim-rhyme-same_different","","3526","task_switching","{""colorcue_switch_ans"":""90""}","experiment","87","colorcue_switch","90","true","add","10","","red","","","","","","","","","","","","","","","","","","","","","","","","","","",""
"","","","","","survey-text","245","690845","0.0-245.0","A2MOKIEQZ0OF2M","2022-05-19T01:28:53.514Z","task_switching-phon_sim-rhyme-same_different","","2126.1999999955297","task_switching","{""colorcue_switch_ans"":""53""}","experiment","56","colorcue_switch","53","true","subtract","11","","blue","","","","","","","","","","","","","","","","","","","","","","","","","","",""
"","","","","","survey-text","246","693381","0.0-246.0","A2MOKIEQZ0OF2M","2022-05-19T01:28:53.514Z","task_switching-phon_sim-rhyme-same_different","","2534.2999999970198","task_switching","{""colorcue_switch_ans"":""78""}","experiment","75","colorcue_switch","78","true","add","12","","red","","","","","","","","","","","","","","","","","","","","","","","","","","",""
"","","","","","survey-text","247","696029","0.0-247.0","A2MOKIEQZ0OF2M","2022-05-19T01:28:53.514Z","task_switching-phon_sim-rhyme-same_different","","2646.2999999970198","task_switching","{""colorcue_switch_ans"":""26""}","experiment","29","colorcue_switch","26","true","subtract","13","","blue","","","","","","","","","","","","","","","","","","","","","","","","","","",""
"","","","","","survey-text","248","699421","0.0-248.0","A2MOKIEQZ0OF2M","2022-05-19T01:28:53.514Z","task_switching-phon_sim-rhyme-same_different","","3390.10000000149","task_switching","{""colorcue_switch_ans"":""28""}","experiment","25","colorcue_switch","28","true","add","14","","red","","","","","","","","","","","","","","","","","","","","","","","","","","",""
"","","","","","survey-text","249","703373","0.0-249.0","A2MOKIEQZ0OF2M","2022-05-19T01:28:53.514Z","task_switching-phon_sim-rhyme-same_different","","3949.8000000044703","task_switching","{""colorcue_switch_ans"":""25""}","experiment","28","colorcue_switch","25","true","subtract","15","","blue","","","","","","","","","","","","","","","","","","","","","","","","","","",""
"","","","","","survey-text","250","706125","0.0-250.0","A2MOKIEQZ0OF2M","2022-05-19T01:28:53.514Z","task_switching-phon_sim-rhyme-same_different","","2750.39999999851","task_switching","{""colorcue_switch_ans"":""76""}","experiment","73","colorcue_switch","76","true","add","16","","red","","","","","","","","","","","","","","","","","","","","","","","","","","",""
"","","","","","survey-text","251","708565","0.0-251.0","A2MOKIEQZ0OF2M","2022-05-19T01:28:53.514Z","task_switching-phon_sim-rhyme-same_different","","2437.89999999851","task_switching","{""colorcue_switch_ans"":""11""}","experiment","14","colorcue_switch","11","true","subtract","17","","blue","","","","","","","","","","","","","","","","","","","","","","","","","","",""
"","","","","","survey-text","252","712890","0.0-252.0","A2MOKIEQZ0OF2M","2022-05-19T01:28:53.514Z","task_switching-phon_sim-rhyme-same_different","","4334.29999999702","task_switching","{""colorcue_switch_ans"":""35""}","experiment","32","colorcue_switch","35","true","add","18","","red","","","","","","","","","","","","","","","","","","","","","","","","","","",""
"","","","","","survey-text","253","715914","0.0-253.0","A2MOKIEQZ0OF2M","2022-05-19T01:28:53.514Z","task_switching-phon_sim-rhyme-same_different","","3021.5","task_switching","{""colorcue_switch_ans"":""46""}","experiment","49","colorcue_switch","46","true","subtract","19","","blue","","","","","","","","","","","","","","","","","","","","","","","","","","",""
"","","","","","survey-text","254","719018","0.0-254.0","A2MOKIEQZ0OF2M","2022-05-19T01:28:53.514Z","task_switching-phon_sim-rhyme-same_different","","3102.5","task_switching","{""colorcue_switch_ans"":""50""}","experiment","47","colorcue_switch","50","true","add","20","","red","","","","","","","","","","","","","","","","","","","","","","","","","","",""
"","","","","","survey-text","255","721995","0.0-255.0","A2MOKIEQZ0OF2M","2022-05-19T01:28:53.514Z","task_switching-phon_sim-rhyme-same_different","","2974.39999999851","task_switching","{""colorcue_switch_ans"":""27""}","experiment","30","colorcue_switch","27","true","subtract","21","","blue","","","","","","","","","","","","","","","","","","","","","","","","","","",""
"","","","","","survey-text","256","724946","0.0-256.0","A2MOKIEQZ0OF2M","2022-05-19T01:28:53.514Z","task_switching-phon_sim-rhyme-same_different","","2948.8000000044703","task_switching","{""colorcue_switch_ans"":""80""}","experiment","77","colorcue_switch","80","true","add","22","","red","","","","","","","","","","","","","","","","","","","","","","","","","","",""
"","","","","","survey-text","257","728330","0.0-257.0","A2MOKIEQZ0OF2M","2022-05-19T01:28:53.514Z","task_switching-phon_sim-rhyme-same_different","","3382","task_switching","{""colorcue_switch_ans"":""93""}","experiment","96","colorcue_switch","93","true","subtract","23","","blue","","","","","","","","","","","","","","","","","","","","","","","","","","",""
"","","","","","survey-text","258","731210","0.0-258.0","A2MOKIEQZ0OF2M","2022-05-19T01:28:53.514Z","task_switching-phon_sim-rhyme-same_different","","2878","task_switching","{""colorcue_switch_ans"":""27""}","experiment","24","colorcue_switch","27","true","add","24","","red","","","","","","","","","","","","","","","","","","","","","","","","","","",""
"","","","","","survey-text","259","733818","0.0-259.0","A2MOKIEQZ0OF2M","2022-05-19T01:28:53.514Z","task_switching-phon_sim-rhyme-same_different","","2606.3000000044703","task_switching","{""colorcue_switch_ans"":""34""}","experiment","37","colorcue_switch","34","true","subtract","25","","blue","","","","","","","","","","","","","","","","","","","","","","","","","","",""
"","","","","","survey-text","260","737226","0.0-260.0","A2MOKIEQZ0OF2M","2022-05-19T01:28:53.514Z","task_switching-phon_sim-rhyme-same_different","","3406.10000000149","task_switching","{""colorcue_switch_ans"":""72""}","experiment","69","colorcue_switch","72","true","add","26","","red","","","","","","","","","","","","","","","","","","","","","","","","","","",""
"","","","","","survey-text","261","739834","0.0-261.0","A2MOKIEQZ0OF2M","2022-05-19T01:28:53.514Z","task_switching-phon_sim-rhyme-same_different","","2606.2000000029802","task_switching","{""colorcue_switch_ans"":""40""}","experiment","43","colorcue_switch","40","true","subtract","27","","blue","","","","","","","","","","","","","","","","","","","","","","","","","","",""
"","","","","","survey-text","262","743018","0.0-262.0","A2MOKIEQZ0OF2M","2022-05-19T01:28:53.514Z","task_switching-phon_sim-rhyme-same_different","","3182","task_switching","{""colorcue_switch_ans"":""97""}","experiment","94","colorcue_switch","97","true","add","28","","red","","","","","","","","","","","","","","","","","","","","","","","","","","",""
"","","","","","survey-text","263","745706","0.0-263.0","A2MOKIEQZ0OF2M","2022-05-19T01:28:53.514Z","task_switching-phon_sim-rhyme-same_different","","2686","task_switching","{""colorcue_switch_ans"":""92""}","experiment","95","colorcue_switch","92","true","subtract","29","","blue","","","","","","","","","","","","","","","","","","","","","","","","","","",""
"","","","","","survey-multi-choice","264","753594","0.0-264.0","A2MOKIEQZ0OF2M","2022-05-19T01:28:53.514Z","task_switching-phon_sim-rhyme-same_different","","7887","task_switching","{""Q0"":""Yes""}","","","","","","","","","","[0]","Yes","","","","","","","","","","","","","","","","","","","","","","","","",""
"","","","","","survey-text","265","769066","0.0-265.0","A2MOKIEQZ0OF2M","2022-05-19T01:28:53.514Z","task_switching-phon_sim-rhyme-same_different","","15469.29999999702","task_switching","{""Q0"":""nothing else""}","","","","","","","","","","","","nothing else","","","","","","","","","","","","","","","","","","","","","","","",""
"","","","","","instructions","266","773864","0.0-266.0","A2MOKIEQZ0OF2M","2022-05-19T01:28:53.514Z","task_switching-phon_sim-rhyme-same_different","[{""page_index"":0,""viewing_time"":4798.79999999702}]","4798.89999999851","task_switching","","","","","","","","","","","","","","","","","","","","","","","","","","","","","","","","","","","","",""
"","","","","","instructions","267","792936","0.0-267.0","A2MOKIEQZ0OF2M","2022-05-19T01:28:53.514Z","task_switching-phon_sim-rhyme-same_different","[{""page_index"":0,""viewing_time"":19071.20000000298}]","19071.5","phon_sim","","","","","","","","","","","","","","","","","","","","","","","","","","","","","","","","","","","","",""
"","","","","","html-keyboard-response","268","805953","0.0-268.0-0.0","A2MOKIEQZ0OF2M","2022-05-19T01:28:53.514Z","task_switching-phon_sim-rhyme-same_different","","null","phon_sim","null","training","<div style=""display:grid""><h1 id=""word_1"" style=""grid-column:1; grid-row:1"">mad</h1><h1 id=""word_2"" style=""visibility:hidden;grid-column:1; grid-row:1"">man</h1><h1 id=""word_3"" style=""visibility:hidden;grid-column:1; grid-row:1"">map</h1><h1 id=""word_4"" style=""visibility:hidden;grid-column:1; grid-row:1"">mat</h1><h1 id=""word_5"" style=""visibility:hidden;grid-column:1; grid-row:1"">max</h1></div>","","","","","","","","","","","mad","man","map","mat","max","training","","","","","","","","","","","","","","","","","",""
"","","","","","survey-text","269","822980","0.0-268.0-1.0","A2MOKIEQZ0OF2M","2022-05-19T01:28:53.514Z","task_switching-phon_sim-rhyme-same_different","","17023.89999999851","phon_sim","{""position_1"":""mad "",""position_2"":""man "",""position_3"":"""",""position_4"":"""",""position_5"":""""}","training","","","","","","","","","","","","","","","","","","mad ","man ","","","","","","","","","","","","","","","",""
