"success","timeout","failed_images","failed_audio","failed_video","trial_type","trial_index","time_elapsed","internal_node_id","worker_id","start_time","experiment_order","view_history","rt","experiment","response","phase","stimulus","condition","answer","correct","operation","symbol_cue","trial_no","color_cue","question_order","talk_out_loud","strategy_free_ans","wait_time","image_1","image_2","cor_key","type","judgment_type","stim_1","stim_2","inverted","true_neg","true_pos","false_pos","word_1","word_2","word_3","word_4","word_5","original_word_set","response_1","response_2","response_3","response_4","response_5"
"true","false","[]","[]","[]","preload","0","3003","0.0-0.0","A10JXOU89D5RXR","2022-05-18T15:11:54.261Z","task_switching-rhyme-same_different-phon_sim","","","","","","","","","","","","","","","","","","","","","","","","","","","","","","","","","","","","","","",""
"","","","","","instructions","1","11627","0.0-1.0","A10JXOU89D5RXR","2022-05-18T15:11:54.261Z","task_switching-rhyme-same_different-phon_sim","[{""page_index"":0,""viewing_time"":8622.699999988079}]","8622.90000000596","","","","","","","","","","","","","","","","","","","","","","","","","","","","","","","","","","","","",""
"true","","","","","fullscreen","2","15564","0.0-2.0","A10JXOU89D5RXR","2022-05-18T15:11:54.261Z","task_switching-rhyme-same_different-phon_sim","","","","","","","","","","","","","","","","","","","","","","","","","","","","","","","","","","","","","","",""
"","","","","","instructions","3","49860","0.0-3.0","A10JXOU89D5RXR","2022-05-18T15:11:54.261Z","task_switching-rhyme-same_different-phon_sim","[{""page_index"":0,""viewing_time"":34294.59999999404}]","34294.79999998212","task_switching","","","","","","","","","","","","","","","","","","","","","","","","","","","","","","","","","","","",""
"","","","","","instructions","4","57852","0.0-4.0","A10JXOU89D5RXR","2022-05-18T15:11:54.261Z","task_switching-rhyme-same_different-phon_sim","[{""page_index"":0,""viewing_time"":7990.100000023842}]","7990.300000011921","task_switching","","","","","","","","","","","","","","","","","","","","","","","","","","","","","","","","","","","",""
"","","","","","survey-text","5","61633","0.0-5.0","A10JXOU89D5RXR","2022-05-18T15:11:54.261Z","task_switching-rhyme-same_different-phon_sim","","3770.9000000059605","task_switching","{""subtraction_ans"":""10""}","training","13","subtraction","10","true","subtract","","","","","","","","","","","","","","","","","","","","","","","","","","","","",""
"","","","","","html-keyboard-response","6","62641","0.0-6.0","A10JXOU89D5RXR","2022-05-18T15:11:54.261Z","task_switching-rhyme-same_different-phon_sim","","null","task_switching","null","training","<div style=""color:darkgreen; font-size:60px"">Well done!</div>","subtraction","","","","","","","","","","","","","","","","","","","","","","","","","","","","","","","",""
"","","","","","survey-text","7","67066","0.0-7.0","A10JXOU89D5RXR","2022-05-18T15:11:54.261Z","task_switching-rhyme-same_different-phon_sim","","4420.800000011921","task_switching","{""subtraction_ans"":""46""}","training","49","subtraction","46","true","subtract","","","","","","","","","","","","","","","","","","","","","","","","","","","","",""
"","","","","","html-keyboard-response","8","68072","0.0-8.0","A10JXOU89D5RXR","2022-05-18T15:11:54.261Z","task_switching-rhyme-same_different-phon_sim","","null","task_switching","null","training","<div style=""color:darkgreen; font-size:60px"">Well done!</div>","subtraction","","","","","","","","","","","","","","","","","","","","","","","","","","","","","","","",""
"","","","","","survey-text","9","73008","0.0-9.0","A10JXOU89D5RXR","2022-05-18T15:11:54.261Z","task_switching-rhyme-same_different-phon_sim","","4934.300000011921","task_switching","{""subtraction_ans"":""68""}","training","71","subtraction","68","true","subtract","","","","","","","","","","","","","","","","","","","","","","","","","","","","",""
"","","","","","html-keyboard-response","10","74024","0.0-10.0","A10JXOU89D5RXR","2022-05-18T15:11:54.261Z","task_switching-rhyme-same_different-phon_sim","","null","task_switching","null","training","<div style=""color:darkgreen; font-size:60px"">Well done!</div>","subtraction","","","","","","","","","","","","","","","","","","","","","","","","","","","","","","","",""
"","","","","","survey-text","11","77641","0.0-11.0","A10JXOU89D5RXR","2022-05-18T15:11:54.261Z","task_switching-rhyme-same_different-phon_sim","","3614.2000000178814","task_switching","{""subtraction_ans"":""22""}","training","25","subtraction","22","true","subtract","","","","","","","","","","","","","","","","","","","","","","","","","","","","",""
"","","","","","html-keyboard-response","12","78656","0.0-12.0","A10JXOU89D5RXR","2022-05-18T15:11:54.261Z","task_switching-rhyme-same_different-phon_sim","","null","task_switching","null","training","<div style=""color:darkgreen; font-size:60px"">Well done!</div>","subtraction","","","","","","","","","","","","","","","","","","","","","","","","","","","","","","","",""
"","","","","","survey-text","13","83233","0.0-13.0","A10JXOU89D5RXR","2022-05-18T15:11:54.261Z","task_switching-rhyme-same_different-phon_sim","","4570.5","task_switching","{""subtraction_ans"":""39""}","training","42","subtraction","39","true","subtract","","","","","","","","","","","","","","","","","","","","","","","","","","","","",""
"","","","","","html-keyboard-response","14","84238","0.0-14.0","A10JXOU89D5RXR","2022-05-18T15:11:54.261Z","task_switching-rhyme-same_different-phon_sim","","null","task_switching","null","training","<div style=""color:darkgreen; font-size:60px"">Well done!</div>","subtraction","","","","","","","","","","","","","","","","","","","","","","","","","","","","","","","",""
"","","","","","survey-text","15","88620","0.0-15.0","A10JXOU89D5RXR","2022-05-18T15:11:54.261Z","task_switching-rhyme-same_different-phon_sim","","4380.5","task_switching","{""subtraction_ans"":""90""}","training","93","subtraction","90","true","subtract","","","","","","","","","","","","","","","","","","","","","","","","","","","","",""
"","","","","","html-keyboard-response","16","89632","0.0-16.0","A10JXOU89D5RXR","2022-05-18T15:11:54.261Z","task_switching-rhyme-same_different-phon_sim","","null","task_switching","null","training","<div style=""color:darkgreen; font-size:60px"">Well done!</div>","subtraction","","","","","","","","","","","","","","","","","","","","","","","","","","","","","","","",""
"","","","","","survey-text","17","92937","0.0-17.0","A10JXOU89D5RXR","2022-05-18T15:11:54.261Z","task_switching-rhyme-same_different-phon_sim","","3301","task_switching","{""subtraction_ans"":""52""}","training","55","subtraction","52","true","subtract","","","","","","","","","","","","","","","","","","","","","","","","","","","","",""
"","","","","","html-keyboard-response","18","93945","0.0-18.0","A10JXOU89D5RXR","2022-05-18T15:11:54.261Z","task_switching-rhyme-same_different-phon_sim","","null","task_switching","null","training","<div style=""color:darkgreen; font-size:60px"">Well done!</div>","subtraction","","","","","","","","","","","","","","","","","","","","","","","","","","","","","","","",""
"","","","","","survey-text","19","100021","0.0-19.0","A10JXOU89D5RXR","2022-05-18T15:11:54.261Z","task_switching-rhyme-same_different-phon_sim","","6073.800000011921","task_switching","{""subtraction_ans"":""95""}","training","98","subtraction","95","true","subtract","","","","","","","","","","","","","","","","","","","","","","","","","","","","",""
"","","","","","html-keyboard-response","20","101035","0.0-20.0","A10JXOU89D5RXR","2022-05-18T15:11:54.261Z","task_switching-rhyme-same_different-phon_sim","","null","task_switching","null","training","<div style=""color:darkgreen; font-size:60px"">Well done!</div>","subtraction","","","","","","","","","","","","","","","","","","","","","","","","","","","","","","","",""
"","","","","","survey-text","21","104538","0.0-21.0","A10JXOU89D5RXR","2022-05-18T15:11:54.261Z","task_switching-rhyme-same_different-phon_sim","","3499.5999999940395","task_switching","{""subtraction_ans"":""76""}","training","79","subtraction","76","true","subtract","","","","","","","","","","","","","","","","","","","","","","","","","","","","",""
"","","","","","html-keyboard-response","22","105549","0.0-22.0","A10JXOU89D5RXR","2022-05-18T15:11:54.261Z","task_switching-rhyme-same_different-phon_sim","","null","task_switching","null","training","<div style=""color:darkgreen; font-size:60px"">Well done!</div>","subtraction","","","","","","","","","","","","","","","","","","","","","","","","","","","","","","","",""
"","","","","","survey-text","23","109701","0.0-23.0","A10JXOU89D5RXR","2022-05-18T15:11:54.261Z","task_switching-rhyme-same_different-phon_sim","","4147.699999988079","task_switching","{""subtraction_ans"":""67""}","training","70","subtraction","67","true","subtract","","","","","","","","","","","","","","","","","","","","","","","","","","","","",""
"","","","","","html-keyboard-response","24","110708","0.0-24.0","A10JXOU89D5RXR","2022-05-18T15:11:54.261Z","task_switching-rhyme-same_different-phon_sim","","null","task_switching","null","training","<div style=""color:darkgreen; font-size:60px"">Well done!</div>","subtraction","","","","","","","","","","","","","","","","","","","","","","","","","","","","","","","",""
"","","","","","instructions","25","116929","0.0-25.0","A10JXOU89D5RXR","2022-05-18T15:11:54.261Z","task_switching-rhyme-same_different-phon_sim","[{""page_index"":0,""viewing_time"":6219.699999988079}]","6220","task_switching","","","","","","","","","","","","","","","","","","","","","","","","","","","","","","","","","","","",""
"","","","","","survey-text","26","120301","0.0-26.0","A10JXOU89D5RXR","2022-05-18T15:11:54.261Z","task_switching-rhyme-same_different-phon_sim","","3368.9000000059605","task_switching","{""subtraction_ans"":""60""}","experiment","63","subtraction","60","true","subtract","","","","","","","","","","","","","","","","","","","","","","","","","","","","",""
"","","","","","survey-text","27","128238","0.0-27.0","A10JXOU89D5RXR","2022-05-18T15:11:54.261Z","task_switching-rhyme-same_different-phon_sim","","7933.5999999940395","task_switching","{""subtraction_ans"":""42""}","experiment","45","subtraction","42","true","subtract","","","","","","","","","","","","","","","","","","","","","","","","","","","","",""
"","","","","","survey-text","28","130309","0.0-28.0","A10JXOU89D5RXR","2022-05-18T15:11:54.261Z","task_switching-rhyme-same_different-phon_sim","","2066.699999988079","task_switching","{""subtraction_ans"":""52""}","experiment","55","subtraction","52","true","subtract","","","","","","","","","","","","","","","","","","","","","","","","","","","","",""
"","","","","","survey-text","29","133695","0.0-29.0","A10JXOU89D5RXR","2022-05-18T15:11:54.261Z","task_switching-rhyme-same_different-phon_sim","","3380.800000011921","task_switching","{""subtraction_ans"":""95""}","experiment","98","subtraction","95","true","subtract","","","","","","","","","","","","","","","","","","","","","","","","","","","","",""
"","","","","","survey-text","30","136245","0.0-30.0","A10JXOU89D5RXR","2022-05-18T15:11:54.261Z","task_switching-rhyme-same_different-phon_sim","","2546.300000011921","task_switching","{""subtraction_ans"":""62""}","experiment","65","subtraction","62","true","subtract","","","","","","","","","","","","","","","","","","","","","","","","","","","","",""
"","","","","","survey-text","31","138565","0.0-31.0","A10JXOU89D5RXR","2022-05-18T15:11:54.261Z","task_switching-rhyme-same_different-phon_sim","","2316","task_switching","{""subtraction_ans"":""69""}","experiment","72","subtraction","69","true","subtract","","","","","","","","","","","","","","","","","","","","","","","","","","","","",""
"","","","","","survey-text","32","140582","0.0-32.0","A10JXOU89D5RXR","2022-05-18T15:11:54.261Z","task_switching-rhyme-same_different-phon_sim","","2009.5999999940395","task_switching","{""subtraction_ans"":""51""}","experiment","54","subtraction","51","true","subtract","","","","","","","","","","","","","","","","","","","","","","","","","","","","",""
"","","","","","survey-text","33","142581","0.0-33.0","A10JXOU89D5RXR","2022-05-18T15:11:54.261Z","task_switching-rhyme-same_different-phon_sim","","1994.7999999821186","task_switching","{""subtraction_ans"":""31""}","experiment","34","subtraction","31","true","subtract","","","","","","","","","","","","","","","","","","","","","","","","","","","","",""
"","","","","","survey-text","34","144805","0.0-34.0","A10JXOU89D5RXR","2022-05-18T15:11:54.261Z","task_switching-rhyme-same_different-phon_sim","","2218.4000000059605","task_switching","{""subtraction_ans"":""76""}","experiment","79","subtraction","76","true","subtract","","","","","","","","","","","","","","","","","","","","","","","","","","","","",""
"","","","","","survey-text","35","146925","0.0-35.0","A10JXOU89D5RXR","2022-05-18T15:11:54.261Z","task_switching-rhyme-same_different-phon_sim","","2116.300000011921","task_switching","{""subtraction_ans"":""80""}","experiment","83","subtraction","80","true","subtract","","","","","","","","","","","","","","","","","","","","","","","","","","","","",""
"","","","","","survey-text","36","150093","0.0-36.0","A10JXOU89D5RXR","2022-05-18T15:11:54.261Z","task_switching-rhyme-same_different-phon_sim","","3164.2000000178814","task_switching","{""subtraction_ans"":""37""}","experiment","40","subtraction","37","true","subtract","","","","","","","","","","","","","","","","","","","","","","","","","","","","",""
"","","","","","survey-text","37","152125","0.0-37.0","A10JXOU89D5RXR","2022-05-18T15:11:54.261Z","task_switching-rhyme-same_different-phon_sim","","2027.3999999761581","task_switching","{""subtraction_ans"":""87""}","experiment","90","subtraction","87","true","subtract","","","","","","","","","","","","","","","","","","","","","","","","","","","","",""
"","","","","","survey-text","38","154101","0.0-38.0","A10JXOU89D5RXR","2022-05-18T15:11:54.261Z","task_switching-rhyme-same_different-phon_sim","","1972.4000000059605","task_switching","{""subtraction_ans"":""77""}","experiment","80","subtraction","77","true","subtract","","","","","","","","","","","","","","","","","","","","","","","","","","","","",""
"","","","","","survey-text","39","156645","0.0-39.0","A10JXOU89D5RXR","2022-05-18T15:11:54.261Z","task_switching-rhyme-same_different-phon_sim","","2539.7999999821186","task_switching","{""subtraction_ans"":""25""}","experiment","28","subtraction","25","true","subtract","","","","","","","","","","","","","","","","","","","","","","","","","","","","",""
"","","","","","survey-text","40","158717","0.0-40.0","A10JXOU89D5RXR","2022-05-18T15:11:54.261Z","task_switching-rhyme-same_different-phon_sim","","2067.4000000059605","task_switching","{""subtraction_ans"":""13""}","experiment","16","subtraction","13","true","subtract","","","","","","","","","","","","","","","","","","","","","","","","","","","","",""
"","","","","","survey-text","41","160989","0.0-41.0","A10JXOU89D5RXR","2022-05-18T15:11:54.261Z","task_switching-rhyme-same_different-phon_sim","","2263.699999988079","task_switching","{""subtraction_ans"":""59""}","experiment","62","subtraction","59","true","subtract","","","","","","","","","","","","","","","","","","","","","","","","","","","","",""
"","","","","","survey-text","42","163021","0.0-42.0","A10JXOU89D5RXR","2022-05-18T15:11:54.261Z","task_switching-rhyme-same_different-phon_sim","","2028.5999999940395","task_switching","{""subtraction_ans"":""96""}","experiment","99","subtraction","96","true","subtract","","","","","","","","","","","","","","","","","","","","","","","","","","","","",""
"","","","","","survey-text","43","164901","0.0-43.0","A10JXOU89D5RXR","2022-05-18T15:11:54.261Z","task_switching-rhyme-same_different-phon_sim","","1875.5","task_switching","{""subtraction_ans"":""20""}","experiment","23","subtraction","20","true","subtract","","","","","","","","","","","","","","","","","","","","","","","","","","","","",""
"","","","","","survey-text","44","167045","0.0-44.0","A10JXOU89D5RXR","2022-05-18T15:11:54.261Z","task_switching-rhyme-same_different-phon_sim","","2140.0999999940395","task_switching","{""subtraction_ans"":""71""}","experiment","74","subtraction","71","true","subtract","","","","","","","","","","","","","","","","","","","","","","","","","","","","",""
"","","","","","survey-text","45","169837","0.0-45.0","A10JXOU89D5RXR","2022-05-18T15:11:54.261Z","task_switching-rhyme-same_different-phon_sim","","2788.100000023842","task_switching","{""subtraction_ans"":""30""}","experiment","33","subtraction","30","true","subtract","","","","","","","","","","","","","","","","","","","","","","","","","","","","",""
"","","","","","survey-text","46","172741","0.0-46.0","A10JXOU89D5RXR","2022-05-18T15:11:54.261Z","task_switching-rhyme-same_different-phon_sim","","2899.699999988079","task_switching","{""subtraction_ans"":""79""}","experiment","82","subtraction","79","true","subtract","","","","","","","","","","","","","","","","","","","","","","","","","","","","",""
"","","","","","survey-text","47","175341","0.0-47.0","A10JXOU89D5RXR","2022-05-18T15:11:54.261Z","task_switching-rhyme-same_different-phon_sim","","2596.399999976158","task_switching","{""subtraction_ans"":""86""}","experiment","89","subtraction","86","true","subtract","","","","","","","","","","","","","","","","","","","","","","","","","","","","",""
"","","","","","survey-text","48","179684","0.0-48.0","A10JXOU89D5RXR","2022-05-18T15:11:54.261Z","task_switching-rhyme-same_different-phon_sim","","4338.5999999940395","task_switching","{""subtraction_ans"":""18""}","experiment","21","subtraction","18","true","subtract","","","","","","","","","","","","","","","","","","","","","","","","","","","","",""
"","","","","","survey-text","49","181821","0.0-49.0","A10JXOU89D5RXR","2022-05-18T15:11:54.261Z","task_switching-rhyme-same_different-phon_sim","","2132.899999976158","task_switching","{""subtraction_ans"":""26""}","experiment","29","subtraction","26","true","subtract","","","","","","","","","","","","","","","","","","","","","","","","","","","","",""
"","","","","","survey-text","50","184245","0.0-50.0","A10JXOU89D5RXR","2022-05-18T15:11:54.261Z","task_switching-rhyme-same_different-phon_sim","","2419.2000000178814","task_switching","{""subtraction_ans"":""36""}","experiment","39","subtraction","36","true","subtract","","","","","","","","","","","","","","","","","","","","","","","","","","","","",""
"","","","","","survey-text","51","186325","0.0-51.0","A10JXOU89D5RXR","2022-05-18T15:11:54.261Z","task_switching-rhyme-same_different-phon_sim","","2076.300000011921","task_switching","{""subtraction_ans"":""29""}","experiment","32","subtraction","29","true","subtract","","","","","","","","","","","","","","","","","","","","","","","","","","","","",""
"","","","","","survey-text","52","188397","0.0-52.0","A10JXOU89D5RXR","2022-05-18T15:11:54.261Z","task_switching-rhyme-same_different-phon_sim","","2064.699999988079","task_switching","{""subtraction_ans"":""46""}","experiment","49","subtraction","46","true","subtract","","","","","","","","","","","","","","","","","","","","","","","","","","","","",""
"","","","","","survey-text","53","191389","0.0-53.0","A10JXOU89D5RXR","2022-05-18T15:11:54.261Z","task_switching-rhyme-same_different-phon_sim","","2988.399999976158","task_switching","{""subtraction_ans"":""68""}","experiment","71","subtraction","68","true","subtract","","","","","","","","","","","","","","","","","","","","","","","","","","","","",""
"","","","","","survey-text","54","193453","0.0-54.0","A10JXOU89D5RXR","2022-05-18T15:11:54.261Z","task_switching-rhyme-same_different-phon_sim","","2058.4000000059605","task_switching","{""subtraction_ans"":""50""}","experiment","53","subtraction","50","true","subtract","","","","","","","","","","","","","","","","","","","","","","","","","","","","",""
"","","","","","survey-text","55","195573","0.0-55.0","A10JXOU89D5RXR","2022-05-18T15:11:54.261Z","task_switching-rhyme-same_different-phon_sim","","2115.899999976158","task_switching","{""subtraction_ans"":""96""}","experiment","97","subtraction","96","false","subtract","","","","","","","","","","","","","","","","","","","","","","","","","","","","",""
"","","","","","instructions","56","199685","0.0-56.0","A10JXOU89D5RXR","2022-05-18T15:11:54.261Z","task_switching-rhyme-same_different-phon_sim","[{""page_index"":0,""viewing_time"":4110.9000000059605}]","4111.199999988079","task_switching","","","","","","","","","","","","","","","","","","","","","","","","","","","","","","","","","","","",""
"","","","","","survey-text","57","202365","0.0-57.0","A10JXOU89D5RXR","2022-05-18T15:11:54.261Z","task_switching-rhyme-same_different-phon_sim","","2677.7999999821186","task_switching","{""addition_ans"":""31""}","training","28","addition","31","true","add","","","","","","","","","","","","","","","","","","","","","","","","","","","","",""
"","","","","","html-keyboard-response","58","203369","0.0-58.0","A10JXOU89D5RXR","2022-05-18T15:11:54.261Z","task_switching-rhyme-same_different-phon_sim","","null","task_switching","null","training","<div style=""color:darkgreen; font-size:60px"">Well done!</div>","addition","","","","","","","","","","","","","","","","","","","","","","","","","","","","","","","",""
"","","","","","survey-text","59","204740","0.0-59.0","A10JXOU89D5RXR","2022-05-18T15:11:54.261Z","task_switching-rhyme-same_different-phon_sim","","1368","task_switching","{""addition_ans"":""13""}","training","10","addition","13","true","add","","","","","","","","","","","","","","","","","","","","","","","","","","","","",""
"","","","","","html-keyboard-response","60","205742","0.0-60.0","A10JXOU89D5RXR","2022-05-18T15:11:54.261Z","task_switching-rhyme-same_different-phon_sim","","null","task_switching","null","training","<div style=""color:darkgreen; font-size:60px"">Well done!</div>","addition","","","","","","","","","","","","","","","","","","","","","","","","","","","","","","","",""
"","","","","","survey-text","61","207652","0.0-61.0","A10JXOU89D5RXR","2022-05-18T15:11:54.261Z","task_switching-rhyme-same_different-phon_sim","","1908.9000000059605","task_switching","{""addition_ans"":""50""}","training","47","addition","50","true","add","","","","","","","","","","","","","","","","","","","","","","","","","","","","",""
"","","","","","html-keyboard-response","62","208665","0.0-62.0","A10JXOU89D5RXR","2022-05-18T15:11:54.261Z","task_switching-rhyme-same_different-phon_sim","","null","task_switching","null","training","<div style=""color:darkgreen; font-size:60px"">Well done!</div>","addition","","","","","","","","","","","","","","","","","","","","","","","","","","","","","","","",""
"","","","","","survey-text","63","210502","0.0-63.0","A10JXOU89D5RXR","2022-05-18T15:11:54.261Z","task_switching-rhyme-same_different-phon_sim","","1831","task_switching","{""addition_ans"":""15""}","training","12","addition","15","true","add","","","","","","","","","","","","","","","","","","","","","","","","","","","","",""
"","","","","","html-keyboard-response","64","211509","0.0-64.0","A10JXOU89D5RXR","2022-05-18T15:11:54.261Z","task_switching-rhyme-same_different-phon_sim","","null","task_switching","null","training","<div style=""color:darkgreen; font-size:60px"">Well done!</div>","addition","","","","","","","","","","","","","","","","","","","","","","","","","","","","","","","",""
"","","","","","survey-text","65","213821","0.0-65.0","A10JXOU89D5RXR","2022-05-18T15:11:54.261Z","task_switching-rhyme-same_different-phon_sim","","2308.600000023842","task_switching","{""addition_ans"":""66""}","training","63","addition","66","true","add","","","","","","","","","","","","","","","","","","","","","","","","","","","","",""
"","","","","","html-keyboard-response","66","214838","0.0-66.0","A10JXOU89D5RXR","2022-05-18T15:11:54.261Z","task_switching-rhyme-same_different-phon_sim","","null","task_switching","null","training","<div style=""color:darkgreen; font-size:60px"">Well done!</div>","addition","","","","","","","","","","","","","","","","","","","","","","","","","","","","","","","",""
"","","","","","survey-text","67","217013","0.0-67.0","A10JXOU89D5RXR","2022-05-18T15:11:54.261Z","task_switching-rhyme-same_different-phon_sim","","2173.0999999940395","task_switching","{""addition_ans"":""78""}","training","75","addition","78","true","add","","","","","","","","","","","","","","","","","","","","","","","","","","","","",""
"","","","","","html-keyboard-response","68","218029","0.0-68.0","A10JXOU89D5RXR","2022-05-18T15:11:54.261Z","task_switching-rhyme-same_different-phon_sim","","null","task_switching","null","training","<div style=""color:darkgreen; font-size:60px"">Well done!</div>","addition","","","","","","","","","","","","","","","","","","","","","","","","","","","","","","","",""
"","","","","","survey-text","69","220069","0.0-69.0","A10JXOU89D5RXR","2022-05-18T15:11:54.261Z","task_switching-rhyme-same_different-phon_sim","","2038.5","task_switching","{""addition_ans"":""29""}","training","26","addition","29","true","add","","","","","","","","","","","","","","","","","","","","","","","","","","","","",""
"","","","","","html-keyboard-response","70","221086","0.0-70.0","A10JXOU89D5RXR","2022-05-18T15:11:54.261Z","task_switching-rhyme-same_different-phon_sim","","null","task_switching","null","training","<div style=""color:darkgreen; font-size:60px"">Well done!</div>","addition","","","","","","","","","","","","","","","","","","","","","","","","","","","","","","","",""
"","","","","","survey-text","71","223045","0.0-71.0","A10JXOU89D5RXR","2022-05-18T15:11:54.261Z","task_switching-rhyme-same_different-phon_sim","","1956.699999988079","task_switching","{""addition_ans"":""45""}","training","42","addition","45","true","add","","","","","","","","","","","","","","","","","","","","","","","","","","","","",""
"","","","","","html-keyboard-response","72","224058","0.0-72.0","A10JXOU89D5RXR","2022-05-18T15:11:54.261Z","task_switching-rhyme-same_different-phon_sim","","null","task_switching","null","training","<div style=""color:darkgreen; font-size:60px"">Well done!</div>","addition","","","","","","","","","","","","","","","","","","","","","","","","","","","","","","","",""
"","","","","","survey-text","73","226013","0.0-73.0","A10JXOU89D5RXR","2022-05-18T15:11:54.261Z","task_switching-rhyme-same_different-phon_sim","","1952.800000011921","task_switching","{""addition_ans"":""99""}","training","96","addition","99","true","add","","","","","","","","","","","","","","","","","","","","","","","","","","","","",""
"","","","","","html-keyboard-response","74","227020","0.0-74.0","A10JXOU89D5RXR","2022-05-18T15:11:54.261Z","task_switching-rhyme-same_different-phon_sim","","null","task_switching","null","training","<div style=""color:darkgreen; font-size:60px"">Well done!</div>","addition","","","","","","","","","","","","","","","","","","","","","","","","","","","","","","","",""
"","","","","","survey-text","75","229238","0.0-75.0","A10JXOU89D5RXR","2022-05-18T15:11:54.261Z","task_switching-rhyme-same_different-phon_sim","","2214.5","task_switching","{""addition_ans"":""43""}","training","40","addition","43","true","add","","","","","","","","","","","","","","","","","","","","","","","","","","","","",""
"","","","","","html-keyboard-response","76","230240","0.0-76.0","A10JXOU89D5RXR","2022-05-18T15:11:54.261Z","task_switching-rhyme-same_different-phon_sim","","null","task_switching","null","training","<div style=""color:darkgreen; font-size:60px"">Well done!</div>","addition","","","","","","","","","","","","","","","","","","","","","","","","","","","","","","","",""
"","","","","","instructions","77","232609","0.0-77.0","A10JXOU89D5RXR","2022-05-18T15:11:54.261Z","task_switching-rhyme-same_different-phon_sim","[{""page_index"":0,""viewing_time"":2368.4000000059605}]","2368.600000023842","task_switching","","","","","","","","","","","","","","","","","","","","","","","","","","","","","","","","","","","",""
"","","","","","survey-text","78","235760","0.0-78.0","A10JXOU89D5RXR","2022-05-18T15:11:54.261Z","task_switching-rhyme-same_different-phon_sim","","3146.2999999821186","task_switching","{""addition_ans"":""81""}","experiment","78","addition","81","true","add","","","","","","","","","","","","","","","","","","","","","","","","","","","","",""
"","","","","","survey-text","79","239262","0.0-79.0","A10JXOU89D5RXR","2022-05-18T15:11:54.261Z","task_switching-rhyme-same_different-phon_sim","","3496.5999999940395","task_switching","{""addition_ans"":""64""}","experiment","61","addition","64","true","add","","","","","","","","","","","","","","","","","","","","","","","","","","","","",""
"","","","","","survey-text","80","241287","0.0-80.0","A10JXOU89D5RXR","2022-05-18T15:11:54.261Z","task_switching-rhyme-same_different-phon_sim","","2019.800000011921","task_switching","{""addition_ans"":""31""}","experiment","28","addition","31","true","add","","","","","","","","","","","","","","","","","","","","","","","","","","","","",""
"","","","","","survey-text","81","243286","0.0-81.0","A10JXOU89D5RXR","2022-05-18T15:11:54.261Z","task_switching-rhyme-same_different-phon_sim","","1995.699999988079","task_switching","{""addition_ans"":""43""}","experiment","40","addition","43","true","add","","","","","","","","","","","","","","","","","","","","","","","","","","","","",""
"","","","","","survey-text","82","245462","0.0-82.0","A10JXOU89D5RXR","2022-05-18T15:11:54.261Z","task_switching-rhyme-same_different-phon_sim","","2171.7999999821186","task_switching","{""addition_ans"":""72""}","experiment","69","addition","72","true","add","","","","","","","","","","","","","","","","","","","","","","","","","","","","",""
"","","","","","survey-text","83","247326","0.0-83.0","A10JXOU89D5RXR","2022-05-18T15:11:54.261Z","task_switching-rhyme-same_different-phon_sim","","1857.9000000059605","task_switching","{""addition_ans"":""99""}","experiment","96","addition","99","true","add","","","","","","","","","","","","","","","","","","","","","","","","","","","","",""
"","","","","","survey-text","84","249342","0.0-84.0","A10JXOU89D5RXR","2022-05-18T15:11:54.261Z","task_switching-rhyme-same_different-phon_sim","","2010.6000000238419","task_switching","{""addition_ans"":""21""}","experiment","18","addition","21","true","add","","","","","","","","","","","","","","","","","","","","","","","","","","","","",""
"","","","","","survey-text","85","251814","0.0-85.0","A10JXOU89D5RXR","2022-05-18T15:11:54.261Z","task_switching-rhyme-same_different-phon_sim","","2468.4000000059605","task_switching","{""addition_ans"":""51""}","experiment","48","addition","51","true","add","","","","","","","","","","","","","","","","","","","","","","","","","","","","",""
"","","","","","survey-text","86","253638","0.0-86.0","A10JXOU89D5RXR","2022-05-18T15:11:54.261Z","task_switching-rhyme-same_different-phon_sim","","1820.199999988079","task_switching","{""addition_ans"":""63""}","experiment","60","addition","63","true","add","","","","","","","","","","","","","","","","","","","","","","","","","","","","",""
"","","","","","survey-text","87","255878","0.0-87.0","A10JXOU89D5RXR","2022-05-18T15:11:54.261Z","task_switching-rhyme-same_different-phon_sim","","2236.0999999940395","task_switching","{""addition_ans"":""95""}","experiment","92","addition","95","true","add","","","","","","","","","","","","","","","","","","","","","","","","","","","","",""
"","","","","","survey-text","88","258371","0.0-88.0","A10JXOU89D5RXR","2022-05-18T15:11:54.261Z","task_switching-rhyme-same_different-phon_sim","","2488.5","task_switching","{""addition_ans"":""86""}","experiment","83","addition","86","true","add","","","","","","","","","","","","","","","","","","","","","","","","","","","","",""
"","","","","","survey-text","89","260374","0.0-89.0","A10JXOU89D5RXR","2022-05-18T15:11:54.261Z","task_switching-rhyme-same_different-phon_sim","","1995.5","task_switching","{""addition_ans"":""19""}","experiment","16","addition","19","true","add","","","","","","","","","","","","","","","","","","","","","","","","","","","","",""
"","","","","","survey-text","90","262431","0.0-90.0","A10JXOU89D5RXR","2022-05-18T15:11:54.261Z","task_switching-rhyme-same_different-phon_sim","","2052","task_switching","{""addition_ans"":""75""}","experiment","72","addition","75","true","add","","","","","","","","","","","","","","","","","","","","","","","","","","","","",""
"","","","","","survey-text","91","264486","0.0-91.0","A10JXOU89D5RXR","2022-05-18T15:11:54.261Z","task_switching-rhyme-same_different-phon_sim","","2050.4000000059605","task_switching","{""addition_ans"":""59""}","experiment","56","addition","59","true","add","","","","","","","","","","","","","","","","","","","","","","","","","","","","",""
"","","","","","survey-text","92","266558","0.0-92.0","A10JXOU89D5RXR","2022-05-18T15:11:54.261Z","task_switching-rhyme-same_different-phon_sim","","2068.0999999940395","task_switching","{""addition_ans"":""66""}","experiment","63","addition","66","true","add","","","","","","","","","","","","","","","","","","","","","","","","","","","","",""
"","","","","","survey-text","93","268702","0.0-93.0","A10JXOU89D5RXR","2022-05-18T15:11:54.261Z","task_switching-rhyme-same_different-phon_sim","","2138.600000023842","task_switching","{""addition_ans"":""61""}","experiment","58","addition","61","true","add","","","","","","","","","","","","","","","","","","","","","","","","","","","","",""
"","","","","","survey-text","94","270710","0.0-94.0","A10JXOU89D5RXR","2022-05-18T15:11:54.261Z","task_switching-rhyme-same_different-phon_sim","","2004.7000000178814","task_switching","{""addition_ans"":""70""}","experiment","67","addition","70","true","add","","","","","","","","","","","","","","","","","","","","","","","","","","","","",""
"","","","","","survey-text","95","272885","0.0-95.0","A10JXOU89D5RXR","2022-05-18T15:11:54.261Z","task_switching-rhyme-same_different-phon_sim","","2171.199999988079","task_switching","{""addition_ans"":""42""}","experiment","39","addition","42","true","add","","","","","","","","","","","","","","","","","","","","","","","","","","","","",""
"","","","","","survey-text","96","275862","0.0-96.0","A10JXOU89D5RXR","2022-05-18T15:11:54.261Z","task_switching-rhyme-same_different-phon_sim","","2972.699999988079","task_switching","{""addition_ans"":""67""}","experiment","64","addition","67","true","add","","","","","","","","","","","","","","","","","","","","","","","","","","","","",""
"","","","","","survey-text","97","277869","0.0-97.0","A10JXOU89D5RXR","2022-05-18T15:11:54.261Z","task_switching-rhyme-same_different-phon_sim","","2001","task_switching","{""addition_ans"":""29""}","experiment","26","addition","29","true","add","","","","","","","","","","","","","","","","","","","","","","","","","","","","",""
"","","","","","survey-text","98","279693","0.0-98.0","A10JXOU89D5RXR","2022-05-18T15:11:54.261Z","task_switching-rhyme-same_different-phon_sim","","1820.0999999940395","task_switching","{""addition_ans"":""40""}","experiment","37","addition","40","true","add","","","","","","","","","","","","","","","","","","","","","","","","","","","","",""
"","","","","","survey-text","99","281910","0.0-99.0","A10JXOU89D5RXR","2022-05-18T15:11:54.261Z","task_switching-rhyme-same_different-phon_sim","","2211.899999976158","task_switching","{""addition_ans"":""62""}","experiment","59","addition","62","true","add","","","","","","","","","","","","","","","","","","","","","","","","","","","","",""
"","","","","","survey-text","100","283854","0.0-100.0","A10JXOU89D5RXR","2022-05-18T15:11:54.261Z","task_switching-rhyme-same_different-phon_sim","","1940","task_switching","{""addition_ans"":""49""}","experiment","46","addition","49","true","add","","","","","","","","","","","","","","","","","","","","","","","","","","","","",""
"","","","","","survey-text","101","285462","0.0-101.0","A10JXOU89D5RXR","2022-05-18T15:11:54.261Z","task_switching-rhyme-same_different-phon_sim","","1603.199999988079","task_switching","{""addition_ans"":""25""}","experiment","22","addition","25","true","add","","","","","","","","","","","","","","","","","","","","","","","","","","","","",""
"","","","","","survey-text","102","287254","0.0-102.0","A10JXOU89D5RXR","2022-05-18T15:11:54.261Z","task_switching-rhyme-same_different-phon_sim","","1787.5999999940395","task_switching","{""addition_ans"":""14""}","experiment","11","addition","14","true","add","","","","","","","","","","","","","","","","","","","","","","","","","","","","",""
"","","","","","survey-text","103","288966","0.0-103.0","A10JXOU89D5RXR","2022-05-18T15:11:54.261Z","task_switching-rhyme-same_different-phon_sim","","1707.2000000178814","task_switching","{""addition_ans"":""23""}","experiment","20","addition","23","true","add","","","","","","","","","","","","","","","","","","","","","","","","","","","","",""
"","","","","","survey-text","104","290999","0.0-104.0","A10JXOU89D5RXR","2022-05-18T15:11:54.261Z","task_switching-rhyme-same_different-phon_sim","","2028.2000000178814","task_switching","{""addition_ans"":""68""}","experiment","65","addition","68","true","add","","","","","","","","","","","","","","","","","","","","","","","","","","","","",""
"","","","","","survey-text","105","292895","0.0-105.0","A10JXOU89D5RXR","2022-05-18T15:11:54.261Z","task_switching-rhyme-same_different-phon_sim","","1891.300000011921","task_switching","{""addition_ans"":""91""}","experiment","88","addition","91","true","add","","","","","","","","","","","","","","","","","","","","","","","","","","","","",""
"","","","","","survey-text","106","295471","0.0-106.0","A10JXOU89D5RXR","2022-05-18T15:11:54.261Z","task_switching-rhyme-same_different-phon_sim","","2572.699999988079","task_switching","{""addition_ans"":""77""}","experiment","74","addition","77","true","add","","","","","","","","","","","","","","","","","","","","","","","","","","","","",""
"","","","","","survey-text","107","297391","0.0-107.0","A10JXOU89D5RXR","2022-05-18T15:11:54.261Z","task_switching-rhyme-same_different-phon_sim","","1915.699999988079","task_switching","{""addition_ans"":""60""}","experiment","57","addition","60","true","add","","","","","","","","","","","","","","","","","","","","","","","","","","","","",""
"","","","","","instructions","108","304190","0.0-108.0","A10JXOU89D5RXR","2022-05-18T15:11:54.261Z","task_switching-rhyme-same_different-phon_sim","[{""page_index"":0,""viewing_time"":6797}]","6797.299999982119","task_switching","","","","","","","","","","","","","","","","","","","","","","","","","","","","","","","","","","","",""
"","","","","","survey-text","109","307759","0.0-109.0","A10JXOU89D5RXR","2022-05-18T15:11:54.261Z","task_switching-rhyme-same_different-phon_sim","","3565.7000000178814","task_switching","{""symbolcue_switch_ans"":""32""}","training","29","symbolcue_switch","32","true","add","+","0","","","","","","","","","","","","","","","","","","","","","","","","","","",""
"","","","","","html-keyboard-response","110","308772","0.0-110.0","A10JXOU89D5RXR","2022-05-18T15:11:54.261Z","task_switching-rhyme-same_different-phon_sim","","null","task_switching","null","training","<div style=""color:darkgreen; font-size:60px"">Well done!</div>","symbolcue_switch","","","","","","","","","","","","","","","","","","","","","","","","","","","","","","","",""
"","","","","","survey-text","111","313326","0.0-111.0","A10JXOU89D5RXR","2022-05-18T15:11:54.261Z","task_switching-rhyme-same_different-phon_sim","","4552.300000011921","task_switching","{""symbolcue_switch_ans"":""64""}","training","67","symbolcue_switch","64","true","subtract","-","1","","","","","","","","","","","","","","","","","","","","","","","","","","",""
"","","","","","html-keyboard-response","112","314339","0.0-112.0","A10JXOU89D5RXR","2022-05-18T15:11:54.261Z","task_switching-rhyme-same_different-phon_sim","","null","task_switching","null","training","<div style=""color:darkgreen; font-size:60px"">Well done!</div>","symbolcue_switch","","","","","","","","","","","","","","","","","","","","","","","","","","","","","","","",""
"","","","","","survey-text","113","316262","0.0-113.0","A10JXOU89D5RXR","2022-05-18T15:11:54.261Z","task_switching-rhyme-same_different-phon_sim","","1920.0999999940395","task_switching","{""symbolcue_switch_ans"":""58""}","training","55","symbolcue_switch","58","true","add","+","2","","","","","","","","","","","","","","","","","","","","","","","","","","",""
"","","","","","html-keyboard-response","114","317272","0.0-114.0","A10JXOU89D5RXR","2022-05-18T15:11:54.261Z","task_switching-rhyme-same_different-phon_sim","","null","task_switching","null","training","<div style=""color:darkgreen; font-size:60px"">Well done!</div>","symbolcue_switch","","","","","","","","","","","","","","","","","","","","","","","","","","","","","","","",""
"","","","","","survey-text","115","318831","0.0-115.0","A10JXOU89D5RXR","2022-05-18T15:11:54.261Z","task_switching-rhyme-same_different-phon_sim","","1557.2000000178814","task_switching","{""symbolcue_switch_ans"":""50""}","training","53","symbolcue_switch","50","true","subtract","-","3","","","","","","","","","","","","","","","","","","","","","","","","","","",""
"","","","","","html-keyboard-response","116","319845","0.0-116.0","A10JXOU89D5RXR","2022-05-18T15:11:54.261Z","task_switching-rhyme-same_different-phon_sim","","null","task_switching","null","training","<div style=""color:darkgreen; font-size:60px"">Well done!</div>","symbolcue_switch","","","","","","","","","","","","","","","","","","","","","","","","","","","","","","","",""
"","","","","","survey-text","117","321614","0.0-117.0","A10JXOU89D5RXR","2022-05-18T15:11:54.261Z","task_switching-rhyme-same_different-phon_sim","","1767.2999999821186","task_switching","{""symbolcue_switch_ans"":""80""}","training","77","symbolcue_switch","80","true","add","+","4","","","","","","","","","","","","","","","","","","","","","","","","","","",""
"","","","","","html-keyboard-response","118","322626","0.0-118.0","A10JXOU89D5RXR","2022-05-18T15:11:54.261Z","task_switching-rhyme-same_different-phon_sim","","null","task_switching","null","training","<div style=""color:darkgreen; font-size:60px"">Well done!</div>","symbolcue_switch","","","","","","","","","","","","","","","","","","","","","","","","","","","","","","","",""
"","","","","","survey-text","119","324839","0.0-119.0","A10JXOU89D5RXR","2022-05-18T15:11:54.261Z","task_switching-rhyme-same_different-phon_sim","","2208.9000000059605","task_switching","{""symbolcue_switch_ans"":""16""}","training","19","symbolcue_switch","16","true","subtract","-","5","","","","","","","","","","","","","","","","","","","","","","","","","","",""
"","","","","","html-keyboard-response","120","325849","0.0-120.0","A10JXOU89D5RXR","2022-05-18T15:11:54.261Z","task_switching-rhyme-same_different-phon_sim","","null","task_switching","null","training","<div style=""color:darkgreen; font-size:60px"">Well done!</div>","symbolcue_switch","","","","","","","","","","","","","","","","","","","","","","","","","","","","","","","",""
"","","","","","survey-text","121","327559","0.0-121.0","A10JXOU89D5RXR","2022-05-18T15:11:54.261Z","task_switching-rhyme-same_different-phon_sim","","1707.0999999940395","task_switching","{""symbolcue_switch_ans"":""46""}","training","43","symbolcue_switch","46","true","add","+","6","","","","","","","","","","","","","","","","","","","","","","","","","","",""
"","","","","","html-keyboard-response","122","328576","0.0-122.0","A10JXOU89D5RXR","2022-05-18T15:11:54.261Z","task_switching-rhyme-same_different-phon_sim","","null","task_switching","null","training","<div style=""color:darkgreen; font-size:60px"">Well done!</div>","symbolcue_switch","","","","","","","","","","","","","","","","","","","","","","","","","","","","","","","",""
"","","","","","survey-text","123","330855","0.0-123.0","A10JXOU89D5RXR","2022-05-18T15:11:54.261Z","task_switching-rhyme-same_different-phon_sim","","2276.4000000059605","task_switching","{""symbolcue_switch_ans"":""68""}","training","71","symbolcue_switch","68","true","subtract","-","7","","","","","","","","","","","","","","","","","","","","","","","","","","",""
"","","","","","html-keyboard-response","124","331863","0.0-124.0","A10JXOU89D5RXR","2022-05-18T15:11:54.261Z","task_switching-rhyme-same_different-phon_sim","","null","task_switching","null","training","<div style=""color:darkgreen; font-size:60px"">Well done!</div>","symbolcue_switch","","","","","","","","","","","","","","","","","","","","","","","","","","","","","","","",""
"","","","","","survey-text","125","333478","0.0-125.0","A10JXOU89D5RXR","2022-05-18T15:11:54.261Z","task_switching-rhyme-same_different-phon_sim","","1613.199999988079","task_switching","{""symbolcue_switch_ans"":""25""}","training","22","symbolcue_switch","25","true","add","+","8","","","","","","","","","","","","","","","","","","","","","","","","","","",""
"","","","","","html-keyboard-response","126","334490","0.0-126.0","A10JXOU89D5RXR","2022-05-18T15:11:54.261Z","task_switching-rhyme-same_different-phon_sim","","null","task_switching","null","training","<div style=""color:darkgreen; font-size:60px"">Well done!</div>","symbolcue_switch","","","","","","","","","","","","","","","","","","","","","","","","","","","","","","","",""
"","","","","","survey-text","127","338255","0.0-127.0","A10JXOU89D5RXR","2022-05-18T15:11:54.261Z","task_switching-rhyme-same_different-phon_sim","","3762.0999999940395","task_switching","{""symbolcue_switch_ans"":""93""}","training","96","symbolcue_switch","93","true","subtract","-","9","","","","","","","","","","","","","","","","","","","","","","","","","","",""
"","","","","","html-keyboard-response","128","339266","0.0-128.0","A10JXOU89D5RXR","2022-05-18T15:11:54.261Z","task_switching-rhyme-same_different-phon_sim","","null","task_switching","null","training","<div style=""color:darkgreen; font-size:60px"">Well done!</div>","symbolcue_switch","","","","","","","","","","","","","","","","","","","","","","","","","","","","","","","",""
"","","","","","instructions","129","343102","0.0-129.0","A10JXOU89D5RXR","2022-05-18T15:11:54.261Z","task_switching-rhyme-same_different-phon_sim","[{""page_index"":0,""viewing_time"":3835.5999999940395}]","3835.9000000059605","task_switching","","","","","","","","","","","","","","","","","","","","","","","","","","","","","","","","","","","",""
"","","","","","survey-text","130","346487","0.0-130.0","A10JXOU89D5RXR","2022-05-18T15:11:54.261Z","task_switching-rhyme-same_different-phon_sim","","3380.5","task_switching","{""symbolcue_switch_ans"":""56""}","experiment","53","symbolcue_switch","56","true","add","+","0","","","","","","","","","","","","","","","","","","","","","","","","","","",""
"","","","","","survey-text","131","348615","0.0-131.0","A10JXOU89D5RXR","2022-05-18T15:11:54.261Z","task_switching-rhyme-same_different-phon_sim","","2121.2000000178814","task_switching","{""symbolcue_switch_ans"":""55""}","experiment","58","symbolcue_switch","55","true","subtract","-","1","","","","","","","","","","","","","","","","","","","","","","","","","","",""
"","","","","","survey-text","132","350800","0.0-132.0","A10JXOU89D5RXR","2022-05-18T15:11:54.261Z","task_switching-rhyme-same_different-phon_sim","","2178.5","task_switching","{""symbolcue_switch_ans"":""95""}","experiment","92","symbolcue_switch","95","true","add","+","2","","","","","","","","","","","","","","","","","","","","","","","","","","",""
"","","","","","survey-text","133","353823","0.0-133.0","A10JXOU89D5RXR","2022-05-18T15:11:54.261Z","task_switching-rhyme-same_different-phon_sim","","3017.9000000059605","task_switching","{""symbolcue_switch_ans"":""85""}","experiment","88","symbolcue_switch","85","true","subtract","-","3","","","","","","","","","","","","","","","","","","","","","","","","","","",""
"","","","","","survey-text","134","356143","0.0-134.0","A10JXOU89D5RXR","2022-05-18T15:11:54.261Z","task_switching-rhyme-same_different-phon_sim","","2315.399999976158","task_switching","{""symbolcue_switch_ans"":""67""}","experiment","64","symbolcue_switch","67","true","add","+","4","","","","","","","","","","","","","","","","","","","","","","","","","","",""
"","","","","","survey-text","135","358279","0.0-135.0","A10JXOU89D5RXR","2022-05-18T15:11:54.261Z","task_switching-rhyme-same_different-phon_sim","","2132.0999999940395","task_switching","{""symbolcue_switch_ans"":""52""}","experiment","55","symbolcue_switch","52","true","subtract","-","5","","","","","","","","","","","","","","","","","","","","","","","","","","",""
"","","","","","survey-text","136","360143","0.0-136.0","A10JXOU89D5RXR","2022-05-18T15:11:54.261Z","task_switching-rhyme-same_different-phon_sim","","1858.5999999940395","task_switching","{""symbolcue_switch_ans"":""90""}","experiment","87","symbolcue_switch","90","true","add","+","6","","","","","","","","","","","","","","","","","","","","","","","","","","",""
"","","","","","survey-text","137","363591","0.0-137.0","A10JXOU89D5RXR","2022-05-18T15:11:54.261Z","task_switching-rhyme-same_different-phon_sim","","3444","task_switching","{""symbolcue_switch_ans"":""12""}","experiment","15","symbolcue_switch","12","true","subtract","-","7","","","","","","","","","","","","","","","","","","","","","","","","","","",""
"","","","","","survey-text","138","365998","0.0-138.0","A10JXOU89D5RXR","2022-05-18T15:11:54.261Z","task_switching-rhyme-same_different-phon_sim","","2403.5","task_switching","{""symbolcue_switch_ans"":""82""}","experiment","79","symbolcue_switch","82","true","add","+","8","","","","","","","","","","","","","","","","","","","","","","","","","","",""
"","","","","","survey-text","139","368592","0.0-139.0","A10JXOU89D5RXR","2022-05-18T15:11:54.261Z","task_switching-rhyme-same_different-phon_sim","","2588.0999999940395","task_switching","{""symbolcue_switch_ans"":""81""}","experiment","84","symbolcue_switch","81","true","subtract","-","9","","","","","","","","","","","","","","","","","","","","","","","","","","",""
"","","","","","survey-text","140","370744","0.0-140.0","A10JXOU89D5RXR","2022-05-18T15:11:54.261Z","task_switching-rhyme-same_different-phon_sim","","2147.699999988079","task_switching","{""symbolcue_switch_ans"":""25""}","experiment","21","symbolcue_switch","25","false","add","+","10","","","","","","","","","","","","","","","","","","","","","","","","","","",""
"","","","","","survey-text","141","373031","0.0-141.0","A10JXOU89D5RXR","2022-05-18T15:11:54.261Z","task_switching-rhyme-same_different-phon_sim","","2284.2000000178814","task_switching","{""symbolcue_switch_ans"":""19""}","experiment","22","symbolcue_switch","19","true","subtract","-","11","","","","","","","","","","","","","","","","","","","","","","","","","","",""
"","","","","","survey-text","142","374839","0.0-142.0","A10JXOU89D5RXR","2022-05-18T15:11:54.261Z","task_switching-rhyme-same_different-phon_sim","","1802.4000000059605","task_switching","{""symbolcue_switch_ans"":""59""}","experiment","56","symbolcue_switch","59","true","add","+","12","","","","","","","","","","","","","","","","","","","","","","","","","","",""
"","","","","","survey-text","143","378679","0.0-143.0","A10JXOU89D5RXR","2022-05-18T15:11:54.261Z","task_switching-rhyme-same_different-phon_sim","","3836.2000000178814","task_switching","{""symbolcue_switch_ans"":""78""}","experiment","81","symbolcue_switch","78","true","subtract","-","13","","","","","","","","","","","","","","","","","","","","","","","","","","",""
"","","","","","survey-text","144","380903","0.0-144.0","A10JXOU89D5RXR","2022-05-18T15:11:54.261Z","task_switching-rhyme-same_different-phon_sim","","2219.5","task_switching","{""symbolcue_switch_ans"":""31""}","experiment","28","symbolcue_switch","31","true","add","+","14","","","","","","","","","","","","","","","","","","","","","","","","","","",""
"","","","","","survey-text","145","383686","0.0-145.0","A10JXOU89D5RXR","2022-05-18T15:11:54.261Z","task_switching-rhyme-same_different-phon_sim","","2779.300000011921","task_switching","{""symbolcue_switch_ans"":""87""}","experiment","90","symbolcue_switch","87","true","subtract","-","15","","","","","","","","","","","","","","","","","","","","","","","","","","",""
"","","","","","survey-text","146","385999","0.0-146.0","A10JXOU89D5RXR","2022-05-18T15:11:54.261Z","task_switching-rhyme-same_different-phon_sim","","2308.0999999940395","task_switching","{""symbolcue_switch_ans"":""89""}","experiment","86","symbolcue_switch","89","true","add","+","16","","","","","","","","","","","","","","","","","","","","","","","","","","",""
"","","","","","survey-text","147","388087","0.0-147.0","A10JXOU89D5RXR","2022-05-18T15:11:54.261Z","task_switching-rhyme-same_different-phon_sim","","2083.5999999940395","task_switching","{""symbolcue_switch_ans"":""31""}","experiment","34","symbolcue_switch","31","true","subtract","-","17","","","","","","","","","","","","","","","","","","","","","","","","","","",""
"","","","","","survey-text","148","389767","0.0-148.0","A10JXOU89D5RXR","2022-05-18T15:11:54.261Z","task_switching-rhyme-same_different-phon_sim","","1676.300000011921","task_switching","{""symbolcue_switch_ans"":""16""}","experiment","13","symbolcue_switch","16","true","add","+","18","","","","","","","","","","","","","","","","","","","","","","","","","","",""
"","","","","","survey-text","149","392270","0.0-149.0","A10JXOU89D5RXR","2022-05-18T15:11:54.261Z","task_switching-rhyme-same_different-phon_sim","","2498.4000000059605","task_switching","{""symbolcue_switch_ans"":""39""}","experiment","42","symbolcue_switch","39","true","subtract","-","19","","","","","","","","","","","","","","","","","","","","","","","","","","",""
"","","","","","survey-text","150","394271","0.0-150.0","A10JXOU89D5RXR","2022-05-18T15:11:54.261Z","task_switching-rhyme-same_different-phon_sim","","1996.699999988079","task_switching","{""symbolcue_switch_ans"":""63""}","experiment","60","symbolcue_switch","63","true","add","+","20","","","","","","","","","","","","","","","","","","","","","","","","","","",""
"","","","","","survey-text","151","396487","0.0-151.0","A10JXOU89D5RXR","2022-05-18T15:11:54.261Z","task_switching-rhyme-same_different-phon_sim","","2212.5","task_switching","{""symbolcue_switch_ans"":""43""}","experiment","46","symbolcue_switch","43","true","subtract","-","21","","","","","","","","","","","","","","","","","","","","","","","","","","",""
"","","","","","survey-text","152","398360","0.0-152.0","A10JXOU89D5RXR","2022-05-18T15:11:54.261Z","task_switching-rhyme-same_different-phon_sim","","1867.699999988079","task_switching","{""symbolcue_switch_ans"":""53""}","experiment","50","symbolcue_switch","53","true","add","+","22","","","","","","","","","","","","","","","","","","","","","","","","","","",""
"","","","","","survey-text","153","401055","0.0-153.0","A10JXOU89D5RXR","2022-05-18T15:11:54.261Z","task_switching-rhyme-same_different-phon_sim","","2690.9000000059605","task_switching","{""symbolcue_switch_ans"":""92""}","experiment","95","symbolcue_switch","92","true","subtract","-","23","","","","","","","","","","","","","","","","","","","","","","","","","","",""
"","","","","","survey-text","154","404415","0.0-154.0","A10JXOU89D5RXR","2022-05-18T15:11:54.261Z","task_switching-rhyme-same_different-phon_sim","","3356.4000000059605","task_switching","{""symbolcue_switch_ans"":""22""}","experiment","19","symbolcue_switch","22","true","add","+","24","","","","","","","","","","","","","","","","","","","","","","","","","","",""
"","","","","","survey-text","155","408560","0.0-155.0","A10JXOU89D5RXR","2022-05-18T15:11:54.261Z","task_switching-rhyme-same_different-phon_sim","","4138.200000017881","task_switching","{""symbolcue_switch_ans"":""24""}","experiment","27","symbolcue_switch","24","true","subtract","-","25","","","","","","","","","","","","","","","","","","","","","","","","","","",""
"","","","","","survey-text","156","410951","0.0-156.0","A10JXOU89D5RXR","2022-05-18T15:11:54.261Z","task_switching-rhyme-same_different-phon_sim","","2386.9000000059605","task_switching","{""symbolcue_switch_ans"":""72""}","experiment","69","symbolcue_switch","72","true","add","+","26","","","","","","","","","","","","","","","","","","","","","","","","","","",""
"","","","","","survey-text","157","413359","0.0-157.0","A10JXOU89D5RXR","2022-05-18T15:11:54.261Z","task_switching-rhyme-same_different-phon_sim","","2404.4000000059605","task_switching","{""symbolcue_switch_ans"":""28""}","experiment","31","symbolcue_switch","28","true","subtract","-","27","","","","","","","","","","","","","","","","","","","","","","","","","","",""
"","","","","","survey-text","158","414983","0.0-158.0","A10JXOU89D5RXR","2022-05-18T15:11:54.261Z","task_switching-rhyme-same_different-phon_sim","","1620.0999999940395","task_switching","{""symbolcue_switch_ans"":""23""}","experiment","20","symbolcue_switch","23","true","add","+","28","","","","","","","","","","","","","","","","","","","","","","","","","","",""
"","","","","","survey-text","159","416647","0.0-159.0","A10JXOU89D5RXR","2022-05-18T15:11:54.261Z","task_switching-rhyme-same_different-phon_sim","","1660.1000000238419","task_switching","{""symbolcue_switch_ans"":""30""}","experiment","33","symbolcue_switch","30","true","subtract","-","29","","","","","","","","","","","","","","","","","","","","","","","","","","",""
"","","","","","instructions","160","424179","0.0-160.0","A10JXOU89D5RXR","2022-05-18T15:11:54.261Z","task_switching-rhyme-same_different-phon_sim","[{""page_index"":0,""viewing_time"":7530.699999988079}]","7531","task_switching","","","","","","","","","","","","","","","","","","","","","","","","","","","","","","","","","","","",""
"","","","","","survey-text","161","426952","0.0-161.0","A10JXOU89D5RXR","2022-05-18T15:11:54.261Z","task_switching-rhyme-same_different-phon_sim","","2771.2999999821186","task_switching","{""colorcue_switch_ans"":""88""}","training","85","colorcue_switch","88","true","add","","0","red","","","","","","","","","","","","","","","","","","","","","","","","","",""
"","","","","","html-keyboard-response","162","427955","0.0-162.0","A10JXOU89D5RXR","2022-05-18T15:11:54.261Z","task_switching-rhyme-same_different-phon_sim","","null","task_switching","null","training","<div style=""color:darkgreen; font-size:60px"">Well done!</div>","colorcue_switch","","","","","","","","","","","","","","","","","","","","","","","","","","","","","","","",""
"","","","","","survey-text","163","431143","0.0-163.0","A10JXOU89D5RXR","2022-05-18T15:11:54.261Z","task_switching-rhyme-same_different-phon_sim","","3186.5999999940395","task_switching","{""colorcue_switch_ans"":""54""}","training","57","colorcue_switch","54","true","subtract","","1","blue","","","","","","","","","","","","","","","","","","","","","","","","","",""
"","","","","","html-keyboard-response","164","432148","0.0-164.0","A10JXOU89D5RXR","2022-05-18T15:11:54.261Z","task_switching-rhyme-same_different-phon_sim","","null","task_switching","null","training","<div style=""color:darkgreen; font-size:60px"">Well done!</div>","colorcue_switch","","","","","","","","","","","","","","","","","","","","","","","","","","","","","","","",""
"","","","","","survey-text","165","433999","0.0-165.0","A10JXOU89D5RXR","2022-05-18T15:11:54.261Z","task_switching-rhyme-same_different-phon_sim","","1849.800000011921","task_switching","{""colorcue_switch_ans"":""56""}","training","53","colorcue_switch","56","true","add","","2","red","","","","","","","","","","","","","","","","","","","","","","","","","",""
"","","","","","html-keyboard-response","166","435013","0.0-166.0","A10JXOU89D5RXR","2022-05-18T15:11:54.261Z","task_switching-rhyme-same_different-phon_sim","","null","task_switching","null","training","<div style=""color:darkgreen; font-size:60px"">Well done!</div>","colorcue_switch","","","","","","","","","","","","","","","","","","","","","","","","","","","","","","","",""
"","","","","","survey-text","167","436688","0.0-167.0","A10JXOU89D5RXR","2022-05-18T15:11:54.261Z","task_switching-rhyme-same_different-phon_sim","","1672.5999999940395","task_switching","{""colorcue_switch_ans"":""20""}","training","23","colorcue_switch","20","true","subtract","","3","blue","","","","","","","","","","","","","","","","","","","","","","","","","",""
"","","","","","html-keyboard-response","168","437699","0.0-168.0","A10JXOU89D5RXR","2022-05-18T15:11:54.261Z","task_switching-rhyme-same_different-phon_sim","","null","task_switching","null","training","<div style=""color:darkgreen; font-size:60px"">Well done!</div>","colorcue_switch","","","","","","","","","","","","","","","","","","","","","","","","","","","","","","","",""
"","","","","","survey-text","169","439448","0.0-169.0","A10JXOU89D5RXR","2022-05-18T15:11:54.261Z","task_switching-rhyme-same_different-phon_sim","","1746.9000000059605","task_switching","{""colorcue_switch_ans"":""17""}","training","14","colorcue_switch","17","true","add","","4","red","","","","","","","","","","","","","","","","","","","","","","","","","",""
"","","","","","html-keyboard-response","170","440457","0.0-170.0","A10JXOU89D5RXR","2022-05-18T15:11:54.261Z","task_switching-rhyme-same_different-phon_sim","","null","task_switching","null","training","<div style=""color:darkgreen; font-size:60px"">Well done!</div>","colorcue_switch","","","","","","","","","","","","","","","","","","","","","","","","","","","","","","","",""
"","","","","","survey-text","171","442144","0.0-171.0","A10JXOU89D5RXR","2022-05-18T15:11:54.261Z","task_switching-rhyme-same_different-phon_sim","","1683.3999999761581","task_switching","{""colorcue_switch_ans"":""26""}","training","29","colorcue_switch","26","true","subtract","","5","blue","","","","","","","","","","","","","","","","","","","","","","","","","",""
"","","","","","html-keyboard-response","172","443154","0.0-172.0","A10JXOU89D5RXR","2022-05-18T15:11:54.261Z","task_switching-rhyme-same_different-phon_sim","","null","task_switching","null","training","<div style=""color:darkgreen; font-size:60px"">Well done!</div>","colorcue_switch","","","","","","","","","","","","","","","","","","","","","","","","","","","","","","","",""
"","","","","","survey-text","173","445439","0.0-173.0","A10JXOU89D5RXR","2022-05-18T15:11:54.261Z","task_switching-rhyme-same_different-phon_sim","","2283.5999999940395","task_switching","{""colorcue_switch_ans"":""84""}","training","81","colorcue_switch","84","true","add","","6","red","","","","","","","","","","","","","","","","","","","","","","","","","",""
"","","","","","html-keyboard-response","174","446456","0.0-174.0","A10JXOU89D5RXR","2022-05-18T15:11:54.261Z","task_switching-rhyme-same_different-phon_sim","","null","task_switching","null","training","<div style=""color:darkgreen; font-size:60px"">Well done!</div>","colorcue_switch","","","","","","","","","","","","","","","","","","","","","","","","","","","","","","","",""
"","","","","","survey-text","175","449071","0.0-175.0","A10JXOU89D5RXR","2022-05-18T15:11:54.261Z","task_switching-rhyme-same_different-phon_sim","","2613.2999999821186","task_switching","{""colorcue_switch_ans"":""81""}","training","84","colorcue_switch","81","true","subtract","","7","blue","","","","","","","","","","","","","","","","","","","","","","","","","",""
"","","","","","html-keyboard-response","176","450077","0.0-176.0","A10JXOU89D5RXR","2022-05-18T15:11:54.261Z","task_switching-rhyme-same_different-phon_sim","","null","task_switching","null","training","<div style=""color:darkgreen; font-size:60px"">Well done!</div>","colorcue_switch","","","","","","","","","","","","","","","","","","","","","","","","","","","","","","","",""
"","","","","","survey-text","177","452471","0.0-177.0","A10JXOU89D5RXR","2022-05-18T15:11:54.261Z","task_switching-rhyme-same_different-phon_sim","","2392.0999999940395","task_switching","{""colorcue_switch_ans"":""76""}","training","73","colorcue_switch","76","true","add","","8","red","","","","","","","","","","","","","","","","","","","","","","","","","",""
"","","","","","html-keyboard-response","178","453480","0.0-178.0","A10JXOU89D5RXR","2022-05-18T15:11:54.261Z","task_switching-rhyme-same_different-phon_sim","","null","task_switching","null","training","<div style=""color:darkgreen; font-size:60px"">Well done!</div>","colorcue_switch","","","","","","","","","","","","","","","","","","","","","","","","","","","","","","","",""
"","","","","","survey-text","179","456087","0.0-179.0","A10JXOU89D5RXR","2022-05-18T15:11:54.261Z","task_switching-rhyme-same_different-phon_sim","","2605","task_switching","{""colorcue_switch_ans"":""68""}","training","71","colorcue_switch","68","true","subtract","","9","blue","","","","","","","","","","","","","","","","","","","","","","","","","",""
"","","","","","html-keyboard-response","180","457092","0.0-180.0","A10JXOU89D5RXR","2022-05-18T15:11:54.261Z","task_switching-rhyme-same_different-phon_sim","","null","task_switching","null","training","<div style=""color:darkgreen; font-size:60px"">Well done!</div>","colorcue_switch","","","","","","","","","","","","","","","","","","","","","","","","","","","","","","","",""
"","","","","","instructions","181","459779","0.0-181.0","A10JXOU89D5RXR","2022-05-18T15:11:54.261Z","task_switching-rhyme-same_different-phon_sim","[{""page_index"":0,""viewing_time"":2685.9000000059605}]","2686.2000000178814","task_switching","","","","","","","","","","","","","","","","","","","","","","","","","","","","","","","","","","","",""
"","","","","","survey-text","182","462775","0.0-182.0","A10JXOU89D5RXR","2022-05-18T15:11:54.261Z","task_switching-rhyme-same_different-phon_sim","","2993.199999988079","task_switching","{""colorcue_switch_ans"":""62""}","experiment","59","colorcue_switch","62","true","add","","0","red","","","","","","","","","","","","","","","","","","","","","","","","","",""
"","","","","","survey-text","183","465736","0.0-183.0","A10JXOU89D5RXR","2022-05-18T15:11:54.261Z","task_switching-rhyme-same_different-phon_sim","","2956.5999999940395","task_switching","{""colorcue_switch_ans"":""43""}","experiment","46","colorcue_switch","43","true","subtract","","1","blue","","","","","","","","","","","","","","","","","","","","","","","","","",""
"","","","","","survey-text","184","467663","0.0-184.0","A10JXOU89D5RXR","2022-05-18T15:11:54.261Z","task_switching-rhyme-same_different-phon_sim","","1923","task_switching","{""colorcue_switch_ans"":""74""}","experiment","71","colorcue_switch","74","true","add","","2","red","","","","","","","","","","","","","","","","","","","","","","","","","",""
"","","","","","survey-text","185","469951","0.0-185.0","A10JXOU89D5RXR","2022-05-18T15:11:54.261Z","task_switching-rhyme-same_different-phon_sim","","2283.0999999940395","task_switching","{""colorcue_switch_ans"":""58""}","experiment","61","colorcue_switch","58","true","subtract","","3","blue","","","","","","","","","","","","","","","","","","","","","","","","","",""
"","","","","","survey-text","186","472127","0.0-186.0","A10JXOU89D5RXR","2022-05-18T15:11:54.261Z","task_switching-rhyme-same_different-phon_sim","","2172.0999999940395","task_switching","{""colorcue_switch_ans"":""88""}","experiment","85","colorcue_switch","88","true","add","","4","red","","","","","","","","","","","","","","","","","","","","","","","","","",""
"","","","","","survey-text","187","474191","0.0-187.0","A10JXOU89D5RXR","2022-05-18T15:11:54.261Z","task_switching-rhyme-same_different-phon_sim","","2059.899999976158","task_switching","{""colorcue_switch_ans"":""71""}","experiment","74","colorcue_switch","71","true","subtract","","5","blue","","","","","","","","","","","","","","","","","","","","","","","","","",""
"","","","","","survey-text","188","476127","0.0-188.0","A10JXOU89D5RXR","2022-05-18T15:11:54.261Z","task_switching-rhyme-same_different-phon_sim","","1932.300000011921","task_switching","{""colorcue_switch_ans"":""91""}","experiment","88","colorcue_switch","91","true","add","","6","red","","","","","","","","","","","","","","","","","","","","","","","","","",""
"","","","","","survey-text","189","479023","0.0-189.0","A10JXOU89D5RXR","2022-05-18T15:11:54.261Z","task_switching-rhyme-same_different-phon_sim","","2892.2999999821186","task_switching","{""colorcue_switch_ans"":""14""}","experiment","17","colorcue_switch","14","true","subtract","","7","blue","","","","","","","","","","","","","","","","","","","","","","","","","",""
"","","","","","survey-text","190","481247","0.0-190.0","A10JXOU89D5RXR","2022-05-18T15:11:54.261Z","task_switching-rhyme-same_different-phon_sim","","2219.9000000059605","task_switching","{""colorcue_switch_ans"":""34""}","experiment","31","colorcue_switch","34","true","add","","8","red","","","","","","","","","","","","","","","","","","","","","","","","","",""
"","","","","","survey-text","191","483087","0.0-191.0","A10JXOU89D5RXR","2022-05-18T15:11:54.261Z","task_switching-rhyme-same_different-phon_sim","","1836.1000000238419","task_switching","{""colorcue_switch_ans"":""70""}","experiment","73","colorcue_switch","70","true","subtract","","9","blue","","","","","","","","","","","","","","","","","","","","","","","","","",""
"","","","","","survey-text","192","484871","0.0-192.0","A10JXOU89D5RXR","2022-05-18T15:11:54.261Z","task_switching-rhyme-same_different-phon_sim","","1779.800000011921","task_switching","{""colorcue_switch_ans"":""24""}","experiment","21","colorcue_switch","24","true","add","","10","red","","","","","","","","","","","","","","","","","","","","","","","","","",""
"","","","","","survey-text","193","487559","0.0-193.0","A10JXOU89D5RXR","2022-05-18T15:11:54.261Z","task_switching-rhyme-same_different-phon_sim","","2684.5","task_switching","{""colorcue_switch_ans"":""65""}","experiment","68","colorcue_switch","65","true","subtract","","11","blue","","","","","","","","","","","","","","","","","","","","","","","","","",""
"","","","","","survey-text","194","489512","0.0-194.0","A10JXOU89D5RXR","2022-05-18T15:11:54.261Z","task_switching-rhyme-same_different-phon_sim","","1947.5","task_switching","{""colorcue_switch_ans"":""60""}","experiment","57","colorcue_switch","60","true","add","","12","red","","","","","","","","","","","","","","","","","","","","","","","","","",""
"","","","","","survey-text","195","492263","0.0-195.0","A10JXOU89D5RXR","2022-05-18T15:11:54.261Z","task_switching-rhyme-same_different-phon_sim","","2747.300000011921","task_switching","{""colorcue_switch_ans"":""69""}","experiment","72","colorcue_switch","69","true","subtract","","13","blue","","","","","","","","","","","","","","","","","","","","","","","","","",""
"","","","","","survey-text","196","495800","0.0-196.0","A10JXOU89D5RXR","2022-05-18T15:11:54.261Z","task_switching-rhyme-same_different-phon_sim","","3532","task_switching","{""colorcue_switch_ans"":""67""}","experiment","64","colorcue_switch","67","true","add","","14","red","","","","","","","","","","","","","","","","","","","","","","","","","",""
"","","","","","survey-text","197","498848","0.0-197.0","A10JXOU89D5RXR","2022-05-18T15:11:54.261Z","task_switching-rhyme-same_different-phon_sim","","3039.9000000059605","task_switching","{""colorcue_switch_ans"":""73""}","experiment","76","colorcue_switch","73","true","subtract","","15","blue","","","","","","","","","","","","","","","","","","","","","","","","","",""
"","","","","","survey-text","198","500992","0.0-198.0","A10JXOU89D5RXR","2022-05-18T15:11:54.261Z","task_switching-rhyme-same_different-phon_sim","","2137.2000000178814","task_switching","{""colorcue_switch_ans"":""61""}","experiment","58","colorcue_switch","61","true","add","","16","red","","","","","","","","","","","","","","","","","","","","","","","","","",""
"","","","","","survey-text","199","504232","0.0-199.0","A10JXOU89D5RXR","2022-05-18T15:11:54.261Z","task_switching-rhyme-same_different-phon_sim","","3236.199999988079","task_switching","{""colorcue_switch_ans"":""64""}","experiment","67","colorcue_switch","64","true","subtract","","17","blue","","","","","","","","","","","","","","","","","","","","","","","","","",""
"","","","","","survey-text","200","506120","0.0-200.0","A10JXOU89D5RXR","2022-05-18T15:11:54.261Z","task_switching-rhyme-same_different-phon_sim","","1880.0999999940395","task_switching","{""colorcue_switch_ans"":""31""}","experiment","28","colorcue_switch","31","true","add","","18","red","","","","","","","","","","","","","","","","","","","","","","","","","",""
"","","","","","survey-text","201","508575","0.0-201.0","A10JXOU89D5RXR","2022-05-18T15:11:54.261Z","task_switching-rhyme-same_different-phon_sim","","2450.800000011921","task_switching","{""colorcue_switch_ans"":""35""}","experiment","38","colorcue_switch","35","true","subtract","","19","blue","","","","","","","","","","","","","","","","","","","","","","","","","",""
"","","","","","survey-text","202","512935","0.0-202.0","A10JXOU89D5RXR","2022-05-18T15:11:54.261Z","task_switching-rhyme-same_different-phon_sim","","4356","task_switching","{""colorcue_switch_ans"":""98""}","experiment","95","colorcue_switch","98","true","add","","20","red","","","","","","","","","","","","","","","","","","","","","","","","","",""
"","","","","","survey-text","203","515088","0.0-203.0","A10JXOU89D5RXR","2022-05-18T15:11:54.261Z","task_switching-rhyme-same_different-phon_sim","","2148.2999999821186","task_switching","{""colorcue_switch_ans"":""67""}","experiment","70","colorcue_switch","67","true","subtract","","21","blue","","","","","","","","","","","","","","","","","","","","","","","","","",""
"","","","","","survey-text","204","518063","0.0-204.0","A10JXOU89D5RXR","2022-05-18T15:11:54.261Z","task_switching-rhyme-same_different-phon_sim","","2972.699999988079","task_switching","{""colorcue_switch_ans"":""32""}","experiment","29","colorcue_switch","32","true","add","","22","red","","","","","","","","","","","","","","","","","","","","","","","","","",""
"","","","","","survey-text","205","521271","0.0-205.0","A10JXOU89D5RXR","2022-05-18T15:11:54.261Z","task_switching-rhyme-same_different-phon_sim","","3203.9000000059605","task_switching","{""colorcue_switch_ans"":""33""}","experiment","36","colorcue_switch","33","true","subtract","","23","blue","","","","","","","","","","","","","","","","","","","","","","","","","",""
"","","","","","survey-text","206","523167","0.0-206.0","A10JXOU89D5RXR","2022-05-18T15:11:54.261Z","task_switching-rhyme-same_different-phon_sim","","1891.800000011921","task_switching","{""colorcue_switch_ans"":""51""}","experiment","48","colorcue_switch","51","true","add","","24","red","","","","","","","","","","","","","","","","","","","","","","","","","",""
"","","","","","survey-text","207","525863","0.0-207.0","A10JXOU89D5RXR","2022-05-18T15:11:54.261Z","task_switching-rhyme-same_different-phon_sim","","2692.699999988079","task_switching","{""colorcue_switch_ans"":""75""}","experiment","78","colorcue_switch","75","true","subtract","","25","blue","","","","","","","","","","","","","","","","","","","","","","","","","",""
"","","","","","survey-text","208","528247","0.0-208.0","A10JXOU89D5RXR","2022-05-18T15:11:54.261Z","task_switching-rhyme-same_different-phon_sim","","2380.5999999940395","task_switching","{""colorcue_switch_ans"":""27""}","experiment","24","colorcue_switch","27","true","add","","26","red","","","","","","","","","","","","","","","","","","","","","","","","","",""
"","","","","","survey-text","209","530143","0.0-209.0","A10JXOU89D5RXR","2022-05-18T15:11:54.261Z","task_switching-rhyme-same_different-phon_sim","","1892.5","task_switching","{""colorcue_switch_ans"":""59""}","experiment","62","colorcue_switch","59","true","subtract","","27","blue","","","","","","","","","","","","","","","","","","","","","","","","","",""
"","","","","","survey-text","210","533000","0.0-210.0","A10JXOU89D5RXR","2022-05-18T15:11:54.261Z","task_switching-rhyme-same_different-phon_sim","","2852.199999988079","task_switching","{""colorcue_switch_ans"":""97""}","experiment","94","colorcue_switch","97","true","add","","28","red","","","","","","","","","","","","","","","","","","","","","","","","","",""
"","","","","","survey-text","211","535505","0.0-211.0","A10JXOU89D5RXR","2022-05-18T15:11:54.261Z","task_switching-rhyme-same_different-phon_sim","","2500.600000023842","task_switching","{""colorcue_switch_ans"":""52""}","experiment","55","colorcue_switch","52","true","subtract","","29","blue","","","","","","","","","","","","","","","","","","","","","","","","","",""
"","","","","","instructions","212","556216","0.0-212.0","A10JXOU89D5RXR","2022-05-18T15:11:54.261Z","task_switching-rhyme-same_different-phon_sim","[{""page_index"":0,""viewing_time"":20707.69999998808}]","20708.09999999404","task_switching","","","","","","","","","","","","","","","","","","","","","","","","","","","","","","","","","","","",""
"","","","","","survey-text","213","563232","0.0-213.0","A10JXOU89D5RXR","2022-05-18T15:11:54.261Z","task_switching-rhyme-same_different-phon_sim","","7013.700000017881","task_switching","{""uncued_switch_ans"":""65""}","training","62","uncued_switch","65","true","add","","0","","","","","","","","","","","","","","","","","","","","","","","","","","",""
"","","","","","html-keyboard-response","214","564249","0.0-214.0","A10JXOU89D5RXR","2022-05-18T15:11:54.261Z","task_switching-rhyme-same_different-phon_sim","","null","task_switching","null","training","<div style=""color:darkgreen; font-size:60px"">Well done!</div>","uncued_switch","","","","","","","","","","","","","","","","","","","","","","","","","","","","","","","",""
"","","","","","survey-text","215","566369","0.0-215.0","A10JXOU89D5RXR","2022-05-18T15:11:54.261Z","task_switching-rhyme-same_different-phon_sim","","2117.7999999821186","task_switching","{""uncued_switch_ans"":""74""}","training","77","uncued_switch","74","true","subtract","","1","","","","","","","","","","","","","","","","","","","","","","","","","","",""
"","","","","","html-keyboard-response","216","567382","0.0-216.0","A10JXOU89D5RXR","2022-05-18T15:11:54.261Z","task_switching-rhyme-same_different-phon_sim","","null","task_switching","null","training","<div style=""color:darkgreen; font-size:60px"">Well done!</div>","uncued_switch","","","","","","","","","","","","","","","","","","","","","","","","","","","","","","","",""
"","","","","","survey-text","217","570776","0.0-217.0","A10JXOU89D5RXR","2022-05-18T15:11:54.261Z","task_switching-rhyme-same_different-phon_sim","","3392.699999988079","task_switching","{""uncued_switch_ans"":""46""}","training","43","uncued_switch","46","true","add","","2","","","","","","","","","","","","","","","","","","","","","","","","","","",""
"","","","","","html-keyboard-response","218","571786","0.0-218.0","A10JXOU89D5RXR","2022-05-18T15:11:54.261Z","task_switching-rhyme-same_different-phon_sim","","null","task_switching","null","training","<div style=""color:darkgreen; font-size:60px"">Well done!</div>","uncued_switch","","","","","","","","","","","","","","","","","","","","","","","","","","","","","","","",""
"","","","","","survey-text","219","573216","0.0-219.0","A10JXOU89D5RXR","2022-05-18T15:11:54.261Z","task_switching-rhyme-same_different-phon_sim","","1428","task_switching","{""uncued_switch_ans"":""70""}","training","73","uncued_switch","70","true","subtract","","3","","","","","","","","","","","","","","","","","","","","","","","","","","",""
"","","","","","html-keyboard-response","220","574229","0.0-220.0","A10JXOU89D5RXR","2022-05-18T15:11:54.261Z","task_switching-rhyme-same_different-phon_sim","","null","task_switching","null","training","<div style=""color:darkgreen; font-size:60px"">Well done!</div>","uncued_switch","","","","","","","","","","","","","","","","","","","","","","","","","","","","","","","",""
"","","","","","survey-text","221","577352","0.0-221.0","A10JXOU89D5RXR","2022-05-18T15:11:54.261Z","task_switching-rhyme-same_different-phon_sim","","3119.5","task_switching","{""uncued_switch_ans"":""28""}","training","25","uncued_switch","28","true","add","","4","","","","","","","","","","","","","","","","","","","","","","","","","","",""
"","","","","","html-keyboard-response","222","578355","0.0-222.0","A10JXOU89D5RXR","2022-05-18T15:11:54.261Z","task_switching-rhyme-same_different-phon_sim","","null","task_switching","null","training","<div style=""color:darkgreen; font-size:60px"">Well done!</div>","uncued_switch","","","","","","","","","","","","","","","","","","","","","","","","","","","","","","","",""
"","","","","","survey-text","223","582424","0.0-223.0","A10JXOU89D5RXR","2022-05-18T15:11:54.261Z","task_switching-rhyme-same_different-phon_sim","","4066.4000000059605","task_switching","{""uncued_switch_ans"":""69""}","training","72","uncued_switch","69","true","subtract","","5","","","","","","","","","","","","","","","","","","","","","","","","","","",""
"","","","","","html-keyboard-response","224","583434","0.0-224.0","A10JXOU89D5RXR","2022-05-18T15:11:54.261Z","task_switching-rhyme-same_different-phon_sim","","null","task_switching","null","training","<div style=""color:darkgreen; font-size:60px"">Well done!</div>","uncued_switch","","","","","","","","","","","","","","","","","","","","","","","","","","","","","","","",""
"","","","","","survey-text","225","585232","0.0-225.0","A10JXOU89D5RXR","2022-05-18T15:11:54.261Z","task_switching-rhyme-same_different-phon_sim","","1796","task_switching","{""uncued_switch_ans"":""19""}","training","16","uncued_switch","19","true","add","","6","","","","","","","","","","","","","","","","","","","","","","","","","","",""
"","","","","","html-keyboard-response","226","586245","0.0-226.0","A10JXOU89D5RXR","2022-05-18T15:11:54.261Z","task_switching-rhyme-same_different-phon_sim","","null","task_switching","null","training","<div style=""color:darkgreen; font-size:60px"">Well done!</div>","uncued_switch","","","","","","","","","","","","","","","","","","","","","","","","","","","","","","","",""
"","","","","","survey-text","227","588536","0.0-227.0","A10JXOU89D5RXR","2022-05-18T15:11:54.261Z","task_switching-rhyme-same_different-phon_sim","","2288.4000000059605","task_switching","{""uncued_switch_ans"":""47""}","training","50","uncued_switch","47","true","subtract","","7","","","","","","","","","","","","","","","","","","","","","","","","","","",""
"","","","","","html-keyboard-response","228","589547","0.0-228.0","A10JXOU89D5RXR","2022-05-18T15:11:54.261Z","task_switching-rhyme-same_different-phon_sim","","null","task_switching","null","training","<div style=""color:darkgreen; font-size:60px"">Well done!</div>","uncued_switch","","","","","","","","","","","","","","","","","","","","","","","","","","","","","","","",""
"","","","","","survey-text","229","591288","0.0-229.0","A10JXOU89D5RXR","2022-05-18T15:11:54.261Z","task_switching-rhyme-same_different-phon_sim","","1738.5999999940395","task_switching","{""uncued_switch_ans"":""34""}","training","31","uncued_switch","34","true","add","","8","","","","","","","","","","","","","","","","","","","","","","","","","","",""
"","","","","","html-keyboard-response","230","592300","0.0-230.0","A10JXOU89D5RXR","2022-05-18T15:11:54.261Z","task_switching-rhyme-same_different-phon_sim","","null","task_switching","null","training","<div style=""color:darkgreen; font-size:60px"">Well done!</div>","uncued_switch","","","","","","","","","","","","","","","","","","","","","","","","","","","","","","","",""
"","","","","","survey-text","231","594641","0.0-231.0","A10JXOU89D5RXR","2022-05-18T15:11:54.261Z","task_switching-rhyme-same_different-phon_sim","","2337.300000011921","task_switching","{""uncued_switch_ans"":""82""}","training","85","uncued_switch","82","true","subtract","","9","","","","","","","","","","","","","","","","","","","","","","","","","","",""
"","","","","","html-keyboard-response","232","595658","0.0-232.0","A10JXOU89D5RXR","2022-05-18T15:11:54.261Z","task_switching-rhyme-same_different-phon_sim","","null","task_switching","null","training","<div style=""color:darkgreen; font-size:60px"">Well done!</div>","uncued_switch","","","","","","","","","","","","","","","","","","","","","","","","","","","","","","","",""
"","","","","","instructions","233","598320","0.0-233.0","A10JXOU89D5RXR","2022-05-18T15:11:54.261Z","task_switching-rhyme-same_different-phon_sim","[{""page_index"":0,""viewing_time"":2661.2999999821186}]","2661.5","task_switching","","","","","","","","","","","","","","","","","","","","","","","","","","","","","","","","","","","",""
"","","","","","survey-text","234","600633","0.0-234.0","A10JXOU89D5RXR","2022-05-18T15:11:54.261Z","task_switching-rhyme-same_different-phon_sim","","2310.0999999940395","task_switching","{""uncued_switch_ans"":""76""}","experiment","73","uncued_switch","76","true","add","","0","","","","","","","","","","","","","","","","","","","","","","","","","","",""
"","","","","","survey-text","235","602744","0.0-235.0","A10JXOU89D5RXR","2022-05-18T15:11:54.261Z","task_switching-rhyme-same_different-phon_sim","","2107.0999999940395","task_switching","{""uncued_switch_ans"":""30""}","experiment","33","uncued_switch","30","true","subtract","","1","","","","","","","","","","","","","","","","","","","","","","","","","","",""
"","","","","","survey-text","236","604384","0.0-236.0","A10JXOU89D5RXR","2022-05-18T15:11:54.261Z","task_switching-rhyme-same_different-phon_sim","","1636.2000000178814","task_switching","{""uncued_switch_ans"":""30""}","experiment","27","uncued_switch","30","true","add","","2","","","","","","","","","","","","","","","","","","","","","","","","","","",""
"","","","","","survey-text","237","607840","0.0-237.0","A10JXOU89D5RXR","2022-05-18T15:11:54.261Z","task_switching-rhyme-same_different-phon_sim","","3452.5999999940395","task_switching","{""uncued_switch_ans"":""86""}","experiment","89","uncued_switch","86","true","subtract","","3","","","","","","","","","","","","","","","","","","","","","","","","","","",""
"","","","","","survey-text","238","609568","0.0-238.0","A10JXOU89D5RXR","2022-05-18T15:11:54.261Z","task_switching-rhyme-same_different-phon_sim","","1723","task_switching","{""uncued_switch_ans"":""18""}","experiment","15","uncued_switch","18","true","add","","4","","","","","","","","","","","","","","","","","","","","","","","","","","",""
"","","","","","survey-text","239","612002","0.0-239.0","A10JXOU89D5RXR","2022-05-18T15:11:54.261Z","task_switching-rhyme-same_different-phon_sim","","2426.300000011921","task_switching","{""uncued_switch_ans"":""75""}","experiment","78","uncued_switch","75","true","subtract","","5","","","","","","","","","","","","","","","","","","","","","","","","","","",""
"","","","","","survey-text","240","613681","0.0-240.0","A10JXOU89D5RXR","2022-05-18T15:11:54.261Z","task_switching-rhyme-same_different-phon_sim","","1674.4000000059605","task_switching","{""uncued_switch_ans"":""90""}","experiment","87","uncued_switch","90","true","add","","6","","","","","","","","","","","","","","","","","","","","","","","","","","",""
"","","","","","survey-text","241","615521","0.0-241.0","A10JXOU89D5RXR","2022-05-18T15:11:54.261Z","task_switching-rhyme-same_different-phon_sim","","1833.5999999940395","task_switching","{""uncued_switch_ans"":""80""}","experiment","83","uncued_switch","80","true","subtract","","7","","","","","","","","","","","","","","","","","","","","","","","","","","",""
"","","","","","survey-text","242","617841","0.0-242.0","A10JXOU89D5RXR","2022-05-18T15:11:54.261Z","task_switching-rhyme-same_different-phon_sim","","2316.300000011921","task_switching","{""uncued_switch_ans"":""37""}","experiment","34","uncued_switch","37","true","add","","8","","","","","","","","","","","","","","","","","","","","","","","","","","",""
"","","","","","survey-text","243","623032","0.0-243.0","A10JXOU89D5RXR","2022-05-18T15:11:54.261Z","task_switching-rhyme-same_different-phon_sim","","5188.4000000059605","task_switching","{""uncued_switch_ans"":""46""}","experiment","49","uncued_switch","46","true","subtract","","9","","","","","","","","","","","","","","","","","","","","","","","","","","",""
"","","","","","survey-text","244","624817","0.0-244.0","A10JXOU89D5RXR","2022-05-18T15:11:54.261Z","task_switching-rhyme-same_different-phon_sim","","1780","task_switching","{""uncued_switch_ans"":""33""}","experiment","30","uncued_switch","33","true","add","","10","","","","","","","","","","","","","","","","","","","","","","","","","","",""
"","","","","","survey-text","245","626729","0.0-245.0","A10JXOU89D5RXR","2022-05-18T15:11:54.261Z","task_switching-rhyme-same_different-phon_sim","","1908.2000000178814","task_switching","{""uncued_switch_ans"":""66""}","experiment","69","uncued_switch","66","true","subtract","","11","","","","","","","","","","","","","","","","","","","","","","","","","","",""
"","","","","","survey-text","246","628672","0.0-246.0","A10JXOU89D5RXR","2022-05-18T15:11:54.261Z","task_switching-rhyme-same_different-phon_sim","","1936.5","task_switching","{""uncued_switch_ans"":""41""}","experiment","38","uncued_switch","41","true","add","","12","","","","","","","","","","","","","","","","","","","","","","","","","","",""
"","","","","","survey-text","247","631416","0.0-247.0","A10JXOU89D5RXR","2022-05-18T15:11:54.261Z","task_switching-rhyme-same_different-phon_sim","","2738.800000011921","task_switching","{""uncued_switch_ans"":""78""}","experiment","81","uncued_switch","78","true","subtract","","13","","","","","","","","","","","","","","","","","","","","","","","","","","",""
"","","","","","survey-text","248","640474","0.0-248.0","A10JXOU89D5RXR","2022-05-18T15:11:54.261Z","task_switching-rhyme-same_different-phon_sim","","9053.59999999404","task_switching","{""uncued_switch_ans"":""64""}","experiment","61","uncued_switch","64","true","add","","14","","","","","","","","","","","","","","","","","","","","","","","","","","",""
"","","","","","survey-text","249","642537","0.0-249.0","A10JXOU89D5RXR","2022-05-18T15:11:54.261Z","task_switching-rhyme-same_different-phon_sim","","2058.300000011921","task_switching","{""uncued_switch_ans"":""22""}","experiment","25","uncued_switch","22","true","subtract","","15","","","","","","","","","","","","","","","","","","","","","","","","","","",""
"","","","","","survey-text","250","646760","0.0-250.0","A10JXOU89D5RXR","2022-05-18T15:11:54.261Z","task_switching-rhyme-same_different-phon_sim","","4219","task_switching","{""uncued_switch_ans"":""39""}","experiment","36","uncued_switch","39","true","add","","16","","","","","","","","","","","","","","","","","","","","","","","","","","",""
"","","","","","survey-text","251","649097","0.0-251.0","A10JXOU89D5RXR","2022-05-18T15:11:54.261Z","task_switching-rhyme-same_different-phon_sim","","2331.7000000178814","task_switching","{""uncued_switch_ans"":""72""}","experiment","75","uncued_switch","72","true","subtract","","17","","","","","","","","","","","","","","","","","","","","","","","","","","",""
"","","","","","survey-text","252","651009","0.0-252.0","A10JXOU89D5RXR","2022-05-18T15:11:54.261Z","task_switching-rhyme-same_different-phon_sim","","1906.5","task_switching","{""uncued_switch_ans"":""35""}","experiment","32","uncued_switch","35","true","add","","18","","","","","","","","","","","","","","","","","","","","","","","","","","",""
"","","","","","survey-text","253","654113","0.0-253.0","A10JXOU89D5RXR","2022-05-18T15:11:54.261Z","task_switching-rhyme-same_different-phon_sim","","3100.4000000059605","task_switching","{""uncued_switch_ans"":""56""}","experiment","59","uncued_switch","56","true","subtract","","19","","","","","","","","","","","","","","","","","","","","","","","","","","",""
"","","","","","survey-text","254","657362","0.0-254.0","A10JXOU89D5RXR","2022-05-18T15:11:54.261Z","task_switching-rhyme-same_different-phon_sim","","3244.2999999821186","task_switching","{""uncued_switch_ans"":""22""}","experiment","19","uncued_switch","22","true","add","","20","","","","","","","","","","","","","","","","","","","","","","","","","","",""
"","","","","","survey-text","255","659651","0.0-255.0","A10JXOU89D5RXR","2022-05-18T15:11:54.261Z","task_switching-rhyme-same_different-phon_sim","","2282.300000011921","task_switching","{""uncued_switch_ans"":""74""}","experiment","77","uncued_switch","74","true","subtract","","21","","","","","","","","","","","","","","","","","","","","","","","","","","",""
"","","","","","survey-text","256","661497","0.0-256.0","A10JXOU89D5RXR","2022-05-18T15:11:54.261Z","task_switching-rhyme-same_different-phon_sim","","1842.7000000178814","task_switching","{""uncued_switch_ans"":""21""}","experiment","18","uncued_switch","21","true","add","","22","","","","","","","","","","","","","","","","","","","","","","","","","","",""
"","","","","","survey-text","257","663770","0.0-257.0","A10JXOU89D5RXR","2022-05-18T15:11:54.261Z","task_switching-rhyme-same_different-phon_sim","","2268.7000000178814","task_switching","{""uncued_switch_ans"":""53""}","experiment","56","uncued_switch","53","true","subtract","","23","","","","","","","","","","","","","","","","","","","","","","","","","","",""
"","","","","","survey-text","258","666105","0.0-258.0","A10JXOU89D5RXR","2022-05-18T15:11:54.261Z","task_switching-rhyme-same_different-phon_sim","","2330.5","task_switching","{""uncued_switch_ans"":""38""}","experiment","35","uncued_switch","38","true","add","","24","","","","","","","","","","","","","","","","","","","","","","","","","","",""
"","","","","","survey-text","259","668193","0.0-259.0","A10JXOU89D5RXR","2022-05-18T15:11:54.261Z","task_switching-rhyme-same_different-phon_sim","","2081.5","task_switching","{""uncued_switch_ans"":""63""}","experiment","66","uncued_switch","63","true","subtract","","25","","","","","","","","","","","","","","","","","","","","","","","","","","",""
"","","","","","survey-text","260","669977","0.0-260.0","A10JXOU89D5RXR","2022-05-18T15:11:54.261Z","task_switching-rhyme-same_different-phon_sim","","1779.800000011921","task_switching","{""uncued_switch_ans"":""74""}","experiment","71","uncued_switch","74","true","add","","26","","","","","","","","","","","","","","","","","","","","","","","","","","",""
"","","","","","survey-text","261","672802","0.0-261.0","A10JXOU89D5RXR","2022-05-18T15:11:54.261Z","task_switching-rhyme-same_different-phon_sim","","2819.800000011921","task_switching","{""uncued_switch_ans"":""52""}","experiment","55","uncued_switch","52","true","subtract","","27","","","","","","","","","","","","","","","","","","","","","","","","","","",""
"","","","","","survey-text","262","674994","0.0-262.0","A10JXOU89D5RXR","2022-05-18T15:11:54.261Z","task_switching-rhyme-same_different-phon_sim","","2188.2000000178814","task_switching","{""uncued_switch_ans"":""71""}","experiment","68","uncued_switch","71","true","add","","28","","","","","","","","","","","","","","","","","","","","","","","","","","",""
"","","","","","survey-text","263","677073","0.0-263.0","A10JXOU89D5RXR","2022-05-18T15:11:54.261Z","task_switching-rhyme-same_different-phon_sim","","2072","task_switching","{""uncued_switch_ans"":""61""}","experiment","64","uncued_switch","61","true","subtract","","29","","","","","","","","","","","","","","","","","","","","","","","","","","",""
"","","","","","survey-multi-choice","264","682153","0.0-264.0","A10JXOU89D5RXR","2022-05-18T15:11:54.261Z","task_switching-rhyme-same_different-phon_sim","","5077.299999982119","task_switching","{""Q0"":""Yes""}","","","","","","","","","","[0]","Yes","","","","","","","","","","","","","","","","","","","","","","","",""
"","","","","","survey-text","265","687365","0.0-265.0","A10JXOU89D5RXR","2022-05-18T15:11:54.261Z","task_switching-rhyme-same_different-phon_sim","","5208.9000000059605","task_switching","{""Q0"":""no""}","","","","","","","","","","","","no","","","","","","","","","","","","","","","","","","","","","","",""
"","","","","","instructions","266","688905","0.0-266.0","A10JXOU89D5RXR","2022-05-18T15:11:54.261Z","task_switching-rhyme-same_different-phon_sim","[{""page_index"":0,""viewing_time"":1538.800000011921}]","1539.2000000178814","task_switching","","","","","","","","","","","","","","","","","","","","","","","","","","","","","","","","","","","",""
"","","","","","instructions","267","706449","0.0-267.0","A10JXOU89D5RXR","2022-05-18T15:11:54.261Z","task_switching-rhyme-same_different-phon_sim","[{""page_index"":0,""viewing_time"":17543.100000023842}]","17543.40000000596","rhyme","","","","","","","","","","","","","","","","","","","","","","","","","","","","","","","","","","","",""
"","","","","","html-keyboard-response","268","706701","0.0-268.0-0.0","A10JXOU89D5RXR","2022-05-18T15:11:54.261Z","task_switching-rhyme-same_different-phon_sim","","null","rhyme","null","","<div style=""font-size:60px;"">+</div>","","","","","","","","","","","250","","","","","","","","","","","","","","","","","","","","","",""
"","","","","","html-keyboard-response","269","707210","0.0-268.0-1.0","A10JXOU89D5RXR","2022-05-18T15:11:54.261Z","task_switching-rhyme-same_different-phon_sim","","null","rhyme","null","","<img src=""square.png"" width=""306"" height=""306"" style=""position: fixed;left:14%;top:30%""><img src=""square.png"" width=""306"" height=""306"" style=""position: fixed;left:64%;top:30%"">","","","","","","","","","","","","","","","","","","","","","","","","","","","","","","","","",""
"","","","","","categorize-html","270","711441","0.0-268.0-2.0","A10JXOU89D5RXR","2022-05-18T15:11:54.261Z","task_switching-rhyme-same_different-phon_sim","","3212.300000011921","rhyme","arrowdown","training","<div style=""border: 3px solid #000000; position: fixed;left:14%;top:30%""><img src=""visual/chess.png"" width=""300""></div><div style=""border: 3px solid #000000; position: fixed;left:64%;top:30%""><img src=""visual/suit.png"" width=""300""></div>","","","true","","","","","","","","","visual/chess.png","visual/suit.png","ArrowDown","NA","","","","","","","","","","","","","","","","","",""
"","","","","","html-keyboard-response","271","712203","0.0-268.0-0.1","A10JXOU89D5RXR","2022-05-18T15:11:54.261Z","task_switching-rhyme-same_different-phon_sim","","null","rhyme","null","","<div style=""font-size:60px;"">+</div>","","","","","","","","","","","750","","","","","","","","","","","","","","","","","","","","","",""
