"success","timeout","failed_images","failed_audio","failed_video","trial_type","trial_index","time_elapsed","internal_node_id","worker_id","start_time","experiment_order","view_history","rt","experiment","response","phase","stimulus","condition","answer","correct","operation","color_cue","trial_no","symbol_cue","question_order","talk_out_loud","strategy_free_ans","wait_time","image_1","image_2","cor_key","type","judgment_type","stim_1","stim_2","inverted","false_pos","true_neg","true_pos","false_neg"
"true","false","[]","[]","[]","preload","0","18986","0.0-0.0","A2683ZVNWI119A","2022-05-27T04:27:08.906Z","task_switching-rhyme-same_different-phon_sim","","","","","","","","","","","","","","","","","","","","","","","","","","","","",""
"","","","","","instructions","1","24937","0.0-1.0","A2683ZVNWI119A","2022-05-27T04:27:08.906Z","task_switching-rhyme-same_different-phon_sim","[{""page_index"":0,""viewing_time"":5948}]","5948.399999999907","","","","","","","","","","","","","","","","","","","","","","","","","","",""
"true","","","","","fullscreen","2","42721","0.0-2.0","A2683ZVNWI119A","2022-05-27T04:27:08.906Z","task_switching-rhyme-same_different-phon_sim","","","","","","","","","","","","","","","","","","","","","","","","","","","","",""
"","","","","","instructions","3","69768","0.0-3.0","A2683ZVNWI119A","2022-05-27T04:27:08.906Z","task_switching-rhyme-same_different-phon_sim","[{""page_index"":0,""viewing_time"":27046.299999999814}]","27046.799999999814","task_switching","","","","","","","","","","","","","","","","","","","","","","","","","",""
"","","","","","instructions","4","103952","0.0-4.0","A2683ZVNWI119A","2022-05-27T04:27:08.906Z","task_switching-rhyme-same_different-phon_sim","[{""page_index"":0,""viewing_time"":34182.200000000186}]","34182.60000000009","task_switching","","","","","","","","","","","","","","","","","","","","","","","","","",""
"","","","","","survey-text","5","109896","0.0-5.0","A2683ZVNWI119A","2022-05-27T04:27:08.906Z","task_switching-rhyme-same_different-phon_sim","","5912","task_switching","{""addition_ans"":""61""}","training","61","addition","61","false","add","","","","","","","","","","","","","","","","","","",""
"","","","","","html-keyboard-response","6","114915","0.0-6.0","A2683ZVNWI119A","2022-05-27T04:27:08.906Z","task_switching-rhyme-same_different-phon_sim","","null","task_switching","null","training","<div style=""color:darkred; font-size:40px"">That was just the same number!<p> Correct answer: 64</p></div>","addition","","","","","","","","","","","","","","","","","","","","","",""
"","","","","","survey-text","7","138161","0.0-7.0","A2683ZVNWI119A","2022-05-27T04:27:08.906Z","task_switching-rhyme-same_different-phon_sim","","23241.600000000093","task_switching","{""addition_ans"":""41""}","training","39","addition","41","false","add","","","","","","","","","","","","","","","","","","",""
"","","","","","html-keyboard-response","8","143173","0.0-8.0","A2683ZVNWI119A","2022-05-27T04:27:08.906Z","task_switching-rhyme-same_different-phon_sim","","null","task_switching","null","training","<div style=""color:darkred; font-size:40px"">Right direction but be careful with the numbers.<p> Correct answer: 42</p></div>","addition","","","","","","","","","","","","","","","","","","","","","",""
"","","","","","survey-text","9","149034","0.0-9.0","A2683ZVNWI119A","2022-05-27T04:27:08.906Z","task_switching-rhyme-same_different-phon_sim","","5856.5","task_switching","{""addition_ans"":""63""}","training","59","addition","63","false","add","","","","","","","","","","","","","","","","","","",""
"","","","","","html-keyboard-response","10","154037","0.0-10.0","A2683ZVNWI119A","2022-05-27T04:27:08.906Z","task_switching-rhyme-same_different-phon_sim","","null","task_switching","null","training","<div style=""color:darkred; font-size:40px"">Right direction but be careful with the numbers.<p> Correct answer: 62</p></div>","addition","","","","","","","","","","","","","","","","","","","","","",""
"","","","","","survey-text","11","175257","0.0-11.0","A2683ZVNWI119A","2022-05-27T04:27:08.906Z","task_switching-rhyme-same_different-phon_sim","","21216","task_switching","{""addition_ans"":""92""}","training","89","addition","92","true","add","","","","","","","","","","","","","","","","","","",""
"","","","","","html-keyboard-response","12","176274","0.0-12.0","A2683ZVNWI119A","2022-05-27T04:27:08.906Z","task_switching-rhyme-same_different-phon_sim","","null","task_switching","null","training","<div style=""color:darkgreen; font-size:60px"">Well done!</div>","addition","","","","","","","","","","","","","","","","","","","","","",""
"","","","","","survey-text","13","182368","0.0-13.0","A2683ZVNWI119A","2022-05-27T04:27:08.906Z","task_switching-rhyme-same_different-phon_sim","","6092","task_switching","{""addition_ans"":""35""}","training","33","addition","35","false","add","","","","","","","","","","","","","","","","","","",""
"","","","","","html-keyboard-response","14","187381","0.0-14.0","A2683ZVNWI119A","2022-05-27T04:27:08.906Z","task_switching-rhyme-same_different-phon_sim","","null","task_switching","null","training","<div style=""color:darkred; font-size:40px"">Right direction but be careful with the numbers.<p> Correct answer: 36</p></div>","addition","","","","","","","","","","","","","","","","","","","","","",""
"","","","","","survey-text","15","194192","0.0-15.0","A2683ZVNWI119A","2022-05-27T04:27:08.906Z","task_switching-rhyme-same_different-phon_sim","","6807.700000000186","task_switching","{""addition_ans"":""31""}","training","28","addition","31","true","add","","","","","","","","","","","","","","","","","","",""
"","","","","","html-keyboard-response","16","195194","0.0-16.0","A2683ZVNWI119A","2022-05-27T04:27:08.906Z","task_switching-rhyme-same_different-phon_sim","","null","task_switching","null","training","<div style=""color:darkgreen; font-size:60px"">Well done!</div>","addition","","","","","","","","","","","","","","","","","","","","","",""
"","","","","","survey-text","17","201096","0.0-17.0","A2683ZVNWI119A","2022-05-27T04:27:08.906Z","task_switching-rhyme-same_different-phon_sim","","5899.299999999814","task_switching","{""addition_ans"":""15""}","training","12","addition","15","true","add","","","","","","","","","","","","","","","","","","",""
"","","","","","html-keyboard-response","18","202111","0.0-18.0","A2683ZVNWI119A","2022-05-27T04:27:08.906Z","task_switching-rhyme-same_different-phon_sim","","null","task_switching","null","training","<div style=""color:darkgreen; font-size:60px"">Well done!</div>","addition","","","","","","","","","","","","","","","","","","","","","",""
"","","","","","survey-text","19","217016","0.0-19.0","A2683ZVNWI119A","2022-05-27T04:27:08.906Z","task_switching-rhyme-same_different-phon_sim","","14901.899999999907","task_switching","{""addition_ans"":""16""}","training","13","addition","16","true","add","","","","","","","","","","","","","","","","","","",""
"","","","","","html-keyboard-response","20","218029","0.0-20.0","A2683ZVNWI119A","2022-05-27T04:27:08.906Z","task_switching-rhyme-same_different-phon_sim","","null","task_switching","null","training","<div style=""color:darkgreen; font-size:60px"">Well done!</div>","addition","","","","","","","","","","","","","","","","","","","","","",""
"","","","","","survey-text","21","267656","0.0-21.0","A2683ZVNWI119A","2022-05-27T04:27:08.906Z","task_switching-rhyme-same_different-phon_sim","","49622.89999999991","task_switching","{""addition_ans"":""27""}","training","24","addition","27","true","add","","","","","","","","","","","","","","","","","","",""
"","","","","","html-keyboard-response","22","268671","0.0-22.0","A2683ZVNWI119A","2022-05-27T04:27:08.906Z","task_switching-rhyme-same_different-phon_sim","","null","task_switching","null","training","<div style=""color:darkgreen; font-size:60px"">Well done!</div>","addition","","","","","","","","","","","","","","","","","","","","","",""
"","","","","","survey-text","23","276560","0.0-23.0","A2683ZVNWI119A","2022-05-27T04:27:08.906Z","task_switching-rhyme-same_different-phon_sim","","7883.899999999441","task_switching","{""addition_ans"":""74""}","training","71","addition","74","true","add","","","","","","","","","","","","","","","","","","",""
"","","","","","html-keyboard-response","24","277568","0.0-24.0","A2683ZVNWI119A","2022-05-27T04:27:08.906Z","task_switching-rhyme-same_different-phon_sim","","null","task_switching","null","training","<div style=""color:darkgreen; font-size:60px"">Well done!</div>","addition","","","","","","","","","","","","","","","","","","","","","",""
"","","","","","instructions","25","286096","0.0-25.0","A2683ZVNWI119A","2022-05-27T04:27:08.906Z","task_switching-rhyme-same_different-phon_sim","[{""page_index"":0,""viewing_time"":8527}]","8527.900000000373","task_switching","","","","","","","","","","","","","","","","","","","","","","","","","",""
"","","","","","survey-text","26","292552","0.0-26.0","A2683ZVNWI119A","2022-05-27T04:27:08.906Z","task_switching-rhyme-same_different-phon_sim","","6452.5999999996275","task_switching","{""addition_ans"":""91""}","experiment","88","addition","91","true","add","","","","","","","","","","","","","","","","","","",""
"","","","","","survey-text","27","297600","0.0-27.0","A2683ZVNWI119A","2022-05-27T04:27:08.906Z","task_switching-rhyme-same_different-phon_sim","","5044.5","task_switching","{""addition_ans"":""22""}","experiment","19","addition","22","true","add","","","","","","","","","","","","","","","","","","",""
"","","","","","survey-text","28","303497","0.0-28.0","A2683ZVNWI119A","2022-05-27T04:27:08.906Z","task_switching-rhyme-same_different-phon_sim","","5892.5","task_switching","{""addition_ans"":""75""}","experiment","72","addition","75","true","add","","","","","","","","","","","","","","","","","","",""
"","","","","","survey-text","29","307217","0.0-29.0","A2683ZVNWI119A","2022-05-27T04:27:08.906Z","task_switching-rhyme-same_different-phon_sim","","3714.399999999441","task_switching","{""addition_ans"":""14""}","experiment","10","addition","14","false","add","","","","","","","","","","","","","","","","","","",""
"","","","","","survey-text","30","311873","0.0-30.0","A2683ZVNWI119A","2022-05-27T04:27:08.906Z","task_switching-rhyme-same_different-phon_sim","","4651.600000000559","task_switching","{""addition_ans"":""51""}","experiment","47","addition","51","false","add","","","","","","","","","","","","","","","","","","",""
"","","","","","survey-text","31","315617","0.0-31.0","A2683ZVNWI119A","2022-05-27T04:27:08.906Z","task_switching-rhyme-same_different-phon_sim","","3741.100000000559","task_switching","{""addition_ans"":""57""}","experiment","53","addition","57","false","add","","","","","","","","","","","","","","","","","","",""
"","","","","","survey-text","32","321089","0.0-32.0","A2683ZVNWI119A","2022-05-27T04:27:08.906Z","task_switching-rhyme-same_different-phon_sim","","5468.9000000003725","task_switching","{""addition_ans"":""80""}","experiment","76","addition","80","false","add","","","","","","","","","","","","","","","","","","",""
"","","","","","survey-text","33","325625","0.0-33.0","A2683ZVNWI119A","2022-05-27T04:27:08.906Z","task_switching-rhyme-same_different-phon_sim","","4532.5999999996275","task_switching","{""addition_ans"":""37""}","experiment","34","addition","37","true","add","","","","","","","","","","","","","","","","","","",""
"","","","","","survey-text","34","328785","0.0-34.0","A2683ZVNWI119A","2022-05-27T04:27:08.906Z","task_switching-rhyme-same_different-phon_sim","","3157","task_switching","{""addition_ans"":""55""}","experiment","51","addition","55","false","add","","","","","","","","","","","","","","","","","","",""
"","","","","","survey-text","35","335913","0.0-35.0","A2683ZVNWI119A","2022-05-27T04:27:08.906Z","task_switching-rhyme-same_different-phon_sim","","7125.4000000003725","task_switching","{""addition_ans"":""26""}","experiment","22","addition","26","false","add","","","","","","","","","","","","","","","","","","",""
"","","","","","survey-text","36","342225","0.0-36.0","A2683ZVNWI119A","2022-05-27T04:27:08.906Z","task_switching-rhyme-same_different-phon_sim","","6308.0999999996275","task_switching","{""addition_ans"":""51""}","experiment","48","addition","51","true","add","","","","","","","","","","","","","","","","","","",""
"","","","","","survey-text","37","346393","0.0-37.0","A2683ZVNWI119A","2022-05-27T04:27:08.906Z","task_switching-rhyme-same_different-phon_sim","","4164.100000000559","task_switching","{""addition_ans"":""29""}","experiment","25","addition","29","false","add","","","","","","","","","","","","","","","","","","",""
"","","","","","survey-text","38","351761","0.0-38.0","A2683ZVNWI119A","2022-05-27T04:27:08.906Z","task_switching-rhyme-same_different-phon_sim","","5365","task_switching","{""addition_ans"":""63""}","experiment","59","addition","63","false","add","","","","","","","","","","","","","","","","","","",""
"","","","","","survey-text","39","356625","0.0-39.0","A2683ZVNWI119A","2022-05-27T04:27:08.906Z","task_switching-rhyme-same_different-phon_sim","","4860.899999999441","task_switching","{""addition_ans"":""73""}","experiment","70","addition","73","true","add","","","","","","","","","","","","","","","","","","",""
"","","","","","survey-text","40","370145","0.0-40.0","A2683ZVNWI119A","2022-05-27T04:27:08.906Z","task_switching-rhyme-same_different-phon_sim","","13514.600000000559","task_switching","{""addition_ans"":""99""}","experiment","95","addition","99","false","add","","","","","","","","","","","","","","","","","","",""
"","","","","","survey-text","41","384353","0.0-41.0","A2683ZVNWI119A","2022-05-27T04:27:08.906Z","task_switching-rhyme-same_different-phon_sim","","14204.799999999814","task_switching","{""addition_ans"":""49""}","experiment","45","addition","49","false","add","","","","","","","","","","","","","","","","","","",""
"","","","","","survey-text","42","408913","0.0-42.0","A2683ZVNWI119A","2022-05-27T04:27:08.906Z","task_switching-rhyme-same_different-phon_sim","","24555.200000000186","task_switching","{""addition_ans"":""96""}","experiment","92","addition","96","false","add","","","","","","","","","","","","","","","","","","",""
"","","","","","survey-text","43","412777","0.0-43.0","A2683ZVNWI119A","2022-05-27T04:27:08.906Z","task_switching-rhyme-same_different-phon_sim","","3860.800000000745","task_switching","{""addition_ans"":""16""}","experiment","13","addition","16","true","add","","","","","","","","","","","","","","","","","","",""
"","","","","","survey-text","44","423456","0.0-44.0","A2683ZVNWI119A","2022-05-27T04:27:08.906Z","task_switching-rhyme-same_different-phon_sim","","10677.100000000559","task_switching","{""addition_ans"":""81""}","experiment","78","addition","81","true","add","","","","","","","","","","","","","","","","","","",""
"","","","","","survey-text","45","427952","0.0-45.0","A2683ZVNWI119A","2022-05-27T04:27:08.906Z","task_switching-rhyme-same_different-phon_sim","","4493.300000000745","task_switching","{""addition_ans"":""77""}","experiment","73","addition","77","false","add","","","","","","","","","","","","","","","","","","",""
"","","","","","survey-text","46","431104","0.0-46.0","A2683ZVNWI119A","2022-05-27T04:27:08.906Z","task_switching-rhyme-same_different-phon_sim","","3149.2000000001863","task_switching","{""addition_ans"":""60""}","experiment","56","addition","60","false","add","","","","","","","","","","","","","","","","","","",""
"","","","","","survey-text","47","436952","0.0-47.0","A2683ZVNWI119A","2022-05-27T04:27:08.906Z","task_switching-rhyme-same_different-phon_sim","","5845.5","task_switching","{""addition_ans"":""92""}","experiment","89","addition","92","true","add","","","","","","","","","","","","","","","","","","",""
"","","","","","survey-text","48","471016","0.0-48.0","A2683ZVNWI119A","2022-05-27T04:27:08.906Z","task_switching-rhyme-same_different-phon_sim","","34061.10000000056","task_switching","{""addition_ans"":""42""}","experiment","39","addition","42","true","add","","","","","","","","","","","","","","","","","","",""
"","","","","","survey-text","49","475856","0.0-49.0","A2683ZVNWI119A","2022-05-27T04:27:08.906Z","task_switching-rhyme-same_different-phon_sim","","4836.799999999814","task_switching","{""addition_ans"":""83""}","experiment","80","addition","83","true","add","","","","","","","","","","","","","","","","","","",""
"","","","","","survey-text","50","482208","0.0-50.0","A2683ZVNWI119A","2022-05-27T04:27:08.906Z","task_switching-rhyme-same_different-phon_sim","","6348.700000000186","task_switching","{""addition_ans"":""21""}","experiment","17","addition","21","false","add","","","","","","","","","","","","","","","","","","",""
"","","","","","survey-text","51","485745","0.0-51.0","A2683ZVNWI119A","2022-05-27T04:27:08.906Z","task_switching-rhyme-same_different-phon_sim","","3533.100000000559","task_switching","{""addition_ans"":""87""}","experiment","84","addition","87","true","add","","","","","","","","","","","","","","","","","","",""
"","","","","","survey-text","52","488697","0.0-52.0","A2683ZVNWI119A","2022-05-27T04:27:08.906Z","task_switching-rhyme-same_different-phon_sim","","2949.2999999998137","task_switching","{""addition_ans"":""30""}","experiment","26","addition","30","false","add","","","","","","","","","","","","","","","","","","",""
"","","","","","survey-text","53","491649","0.0-53.0","A2683ZVNWI119A","2022-05-27T04:27:08.906Z","task_switching-rhyme-same_different-phon_sim","","2949.399999999441","task_switching","{""addition_ans"":""45""}","experiment","42","addition","45","true","add","","","","","","","","","","","","","","","","","","",""
"","","","","","survey-text","54","496081","0.0-54.0","A2683ZVNWI119A","2022-05-27T04:27:08.906Z","task_switching-rhyme-same_different-phon_sim","","4429","task_switching","{""addition_ans"":""69""}","experiment","65","addition","69","false","add","","","","","","","","","","","","","","","","","","",""
"","","","","","survey-text","55","503609","0.0-55.0","A2683ZVNWI119A","2022-05-27T04:27:08.906Z","task_switching-rhyme-same_different-phon_sim","","7523.700000000186","task_switching","{""addition_ans"":""22""}","experiment","18","addition","22","false","add","","","","","","","","","","","","","","","","","","",""
"","","","","","instructions","56","524281","0.0-56.0","A2683ZVNWI119A","2022-05-27T04:27:08.906Z","task_switching-rhyme-same_different-phon_sim","[{""page_index"":0,""viewing_time"":20669.900000000373}]","20670.300000000745","task_switching","","","","","","","","","","","","","","","","","","","","","","","","","",""
"","","","","","survey-text","57","528097","0.0-57.0","A2683ZVNWI119A","2022-05-27T04:27:08.906Z","task_switching-rhyme-same_different-phon_sim","","3813.2999999998137","task_switching","{""subtraction_ans"":""41""}","training","44","subtraction","41","true","subtract","","","","","","","","","","","","","","","","","","",""
"","","","","","html-keyboard-response","58","529107","0.0-58.0","A2683ZVNWI119A","2022-05-27T04:27:08.906Z","task_switching-rhyme-same_different-phon_sim","","null","task_switching","null","training","<div style=""color:darkgreen; font-size:60px"">Well done!</div>","subtraction","","","","","","","","","","","","","","","","","","","","","",""
"","","","","","survey-text","59","531841","0.0-59.0","A2683ZVNWI119A","2022-05-27T04:27:08.906Z","task_switching-rhyme-same_different-phon_sim","","2731.0999999996275","task_switching","{""subtraction_ans"":""21""}","training","24","subtraction","21","true","subtract","","","","","","","","","","","","","","","","","","",""
"","","","","","html-keyboard-response","60","532855","0.0-60.0","A2683ZVNWI119A","2022-05-27T04:27:08.906Z","task_switching-rhyme-same_different-phon_sim","","null","task_switching","null","training","<div style=""color:darkgreen; font-size:60px"">Well done!</div>","subtraction","","","","","","","","","","","","","","","","","","","","","",""
"","","","","","survey-text","61","539929","0.0-61.0","A2683ZVNWI119A","2022-05-27T04:27:08.906Z","task_switching-rhyme-same_different-phon_sim","","7071.299999999814","task_switching","{""subtraction_ans"":""88""}","training","91","subtraction","88","true","subtract","","","","","","","","","","","","","","","","","","",""
"","","","","","html-keyboard-response","62","540939","0.0-62.0","A2683ZVNWI119A","2022-05-27T04:27:08.906Z","task_switching-rhyme-same_different-phon_sim","","null","task_switching","null","training","<div style=""color:darkgreen; font-size:60px"">Well done!</div>","subtraction","","","","","","","","","","","","","","","","","","","","","",""
"","","","","","survey-text","63","545209","0.0-63.0","A2683ZVNWI119A","2022-05-27T04:27:08.906Z","task_switching-rhyme-same_different-phon_sim","","4267.5","task_switching","{""subtraction_ans"":""64""}","training","67","subtraction","64","true","subtract","","","","","","","","","","","","","","","","","","",""
"","","","","","html-keyboard-response","64","546217","0.0-64.0","A2683ZVNWI119A","2022-05-27T04:27:08.906Z","task_switching-rhyme-same_different-phon_sim","","null","task_switching","null","training","<div style=""color:darkgreen; font-size:60px"">Well done!</div>","subtraction","","","","","","","","","","","","","","","","","","","","","",""
"","","","","","survey-text","65","553281","0.0-65.0","A2683ZVNWI119A","2022-05-27T04:27:08.906Z","task_switching-rhyme-same_different-phon_sim","","7061.100000000559","task_switching","{""subtraction_ans"":""22""}","training","25","subtraction","22","true","subtract","","","","","","","","","","","","","","","","","","",""
"","","","","","html-keyboard-response","66","554286","0.0-66.0","A2683ZVNWI119A","2022-05-27T04:27:08.906Z","task_switching-rhyme-same_different-phon_sim","","null","task_switching","null","training","<div style=""color:darkgreen; font-size:60px"">Well done!</div>","subtraction","","","","","","","","","","","","","","","","","","","","","",""
"","","","","","survey-text","67","558049","0.0-67.0","A2683ZVNWI119A","2022-05-27T04:27:08.906Z","task_switching-rhyme-same_different-phon_sim","","3760.399999999441","task_switching","{""subtraction_ans"":""27""}","training","30","subtraction","27","true","subtract","","","","","","","","","","","","","","","","","","",""
"","","","","","html-keyboard-response","68","559060","0.0-68.0","A2683ZVNWI119A","2022-05-27T04:27:08.906Z","task_switching-rhyme-same_different-phon_sim","","null","task_switching","null","training","<div style=""color:darkgreen; font-size:60px"">Well done!</div>","subtraction","","","","","","","","","","","","","","","","","","","","","",""
"","","","","","survey-text","69","561665","0.0-69.0","A2683ZVNWI119A","2022-05-27T04:27:08.906Z","task_switching-rhyme-same_different-phon_sim","","2601.9000000003725","task_switching","{""subtraction_ans"":""33""}","training","36","subtraction","33","true","subtract","","","","","","","","","","","","","","","","","","",""
"","","","","","html-keyboard-response","70","562669","0.0-70.0","A2683ZVNWI119A","2022-05-27T04:27:08.906Z","task_switching-rhyme-same_different-phon_sim","","null","task_switching","null","training","<div style=""color:darkgreen; font-size:60px"">Well done!</div>","subtraction","","","","","","","","","","","","","","","","","","","","","",""
"","","","","","survey-text","71","567041","0.0-71.0","A2683ZVNWI119A","2022-05-27T04:27:08.906Z","task_switching-rhyme-same_different-phon_sim","","4368.600000000559","task_switching","{""subtraction_ans"":""65""}","training","68","subtraction","65","true","subtract","","","","","","","","","","","","","","","","","","",""
"","","","","","html-keyboard-response","72","568058","0.0-72.0","A2683ZVNWI119A","2022-05-27T04:27:08.906Z","task_switching-rhyme-same_different-phon_sim","","null","task_switching","null","training","<div style=""color:darkgreen; font-size:60px"">Well done!</div>","subtraction","","","","","","","","","","","","","","","","","","","","","",""
"","","","","","survey-text","73","572817","0.0-73.0","A2683ZVNWI119A","2022-05-27T04:27:08.906Z","task_switching-rhyme-same_different-phon_sim","","4756.100000000559","task_switching","{""subtraction_ans"":""24""}","training","27","subtraction","24","true","subtract","","","","","","","","","","","","","","","","","","",""
"","","","","","html-keyboard-response","74","573823","0.0-74.0","A2683ZVNWI119A","2022-05-27T04:27:08.906Z","task_switching-rhyme-same_different-phon_sim","","null","task_switching","null","training","<div style=""color:darkgreen; font-size:60px"">Well done!</div>","subtraction","","","","","","","","","","","","","","","","","","","","","",""
"","","","","","survey-text","75","581713","0.0-75.0","A2683ZVNWI119A","2022-05-27T04:27:08.906Z","task_switching-rhyme-same_different-phon_sim","","7887.5999999996275","task_switching","{""subtraction_ans"":""85""}","training","88","subtraction","85","true","subtract","","","","","","","","","","","","","","","","","","",""
"","","","","","html-keyboard-response","76","582724","0.0-76.0","A2683ZVNWI119A","2022-05-27T04:27:08.906Z","task_switching-rhyme-same_different-phon_sim","","null","task_switching","null","training","<div style=""color:darkgreen; font-size:60px"">Well done!</div>","subtraction","","","","","","","","","","","","","","","","","","","","","",""
"","","","","","instructions","77","821233","0.0-77.0","A2683ZVNWI119A","2022-05-27T04:27:08.906Z","task_switching-rhyme-same_different-phon_sim","[{""page_index"":0,""viewing_time"":238507.59999999963}]","238507.89999999944","task_switching","","","","","","","","","","","","","","","","","","","","","","","","","",""
"","","","","","survey-text","78","825921","0.0-78.0","A2683ZVNWI119A","2022-05-27T04:27:08.906Z","task_switching-rhyme-same_different-phon_sim","","4685","task_switching","{""subtraction_ans"":""52""}","experiment","65","subtraction","52","false","subtract","","","","","","","","","","","","","","","","","","",""
"","","","","","survey-text","79","830649","0.0-79.0","A2683ZVNWI119A","2022-05-27T04:27:08.906Z","task_switching-rhyme-same_different-phon_sim","","4725.100000000559","task_switching","{""subtraction_ans"":""72""}","experiment","75","subtraction","72","true","subtract","","","","","","","","","","","","","","","","","","",""
"","","","","","survey-text","80","835145","0.0-80.0","A2683ZVNWI119A","2022-05-27T04:27:08.906Z","task_switching-rhyme-same_different-phon_sim","","4492.799999999814","task_switching","{""subtraction_ans"":""28""}","experiment","31","subtraction","28","true","subtract","","","","","","","","","","","","","","","","","","",""
"","","","","","survey-text","81","844753","0.0-81.0","A2683ZVNWI119A","2022-05-27T04:27:08.906Z","task_switching-rhyme-same_different-phon_sim","","9605","task_switching","{""subtraction_ans"":""67""}","experiment","70","subtraction","67","true","subtract","","","","","","","","","","","","","","","","","","",""
"","","","","","survey-text","82","851441","0.0-82.0","A2683ZVNWI119A","2022-05-27T04:27:08.906Z","task_switching-rhyme-same_different-phon_sim","","6685.100000000559","task_switching","{""subtraction_ans"":""75""}","experiment","78","subtraction","75","true","subtract","","","","","","","","","","","","","","","","","","",""
"","","","","","survey-text","83","874313","0.0-83.0","A2683ZVNWI119A","2022-05-27T04:27:08.906Z","task_switching-rhyme-same_different-phon_sim","","22869.099999999627","task_switching","{""subtraction_ans"":""14""}","experiment","17","subtraction","14","true","subtract","","","","","","","","","","","","","","","","","","",""
"","","","","","survey-text","84","877369","0.0-84.0","A2683ZVNWI119A","2022-05-27T04:27:08.906Z","task_switching-rhyme-same_different-phon_sim","","3052.2000000001863","task_switching","{""subtraction_ans"":""20""}","experiment","23","subtraction","20","true","subtract","","","","","","","","","","","","","","","","","","",""
"","","","","","survey-text","85","889345","0.0-85.0","A2683ZVNWI119A","2022-05-27T04:27:08.906Z","task_switching-rhyme-same_different-phon_sim","","11972.799999999814","task_switching","{""subtraction_ans"":""84""}","experiment","87","subtraction","84","true","subtract","","","","","","","","","","","","","","","","","","",""
"","","","","","survey-text","86","893337","0.0-86.0","A2683ZVNWI119A","2022-05-27T04:27:08.906Z","task_switching-rhyme-same_different-phon_sim","","3989","task_switching","{""subtraction_ans"":""37""}","experiment","40","subtraction","37","true","subtract","","","","","","","","","","","","","","","","","","",""
"","","","","","survey-text","87","897865","0.0-87.0","A2683ZVNWI119A","2022-05-27T04:27:08.906Z","task_switching-rhyme-same_different-phon_sim","","4525.200000000186","task_switching","{""subtraction_ans"":""76""}","experiment","79","subtraction","76","true","subtract","","","","","","","","","","","","","","","","","","",""
"","","","","","survey-text","88","905592","0.0-88.0","A2683ZVNWI119A","2022-05-27T04:27:08.906Z","task_switching-rhyme-same_different-phon_sim","","7725.200000000186","task_switching","{""subtraction_ans"":""24""}","experiment","27","subtraction","24","true","subtract","","","","","","","","","","","","","","","","","","",""
"","","","","","survey-text","89","919200","0.0-89.0","A2683ZVNWI119A","2022-05-27T04:27:08.906Z","task_switching-rhyme-same_different-phon_sim","","13604.799999999814","task_switching","{""subtraction_ans"":""92""}","experiment","95","subtraction","92","true","subtract","","","","","","","","","","","","","","","","","","",""
"","","","","","survey-text","90","972465","0.0-90.0","A2683ZVNWI119A","2022-05-27T04:27:08.906Z","task_switching-rhyme-same_different-phon_sim","","53260","task_switching","{""subtraction_ans"":""10""}","experiment","13","subtraction","10","true","subtract","","","","","","","","","","","","","","","","","","",""
"","","","","","survey-text","91","978008","0.0-91.0","A2683ZVNWI119A","2022-05-27T04:27:08.906Z","task_switching-rhyme-same_different-phon_sim","","5538.600000000559","task_switching","{""subtraction_ans"":""91""}","experiment","94","subtraction","91","true","subtract","","","","","","","","","","","","","","","","","","",""
"","","","","","survey-text","92","986296","0.0-92.0","A2683ZVNWI119A","2022-05-27T04:27:08.906Z","task_switching-rhyme-same_different-phon_sim","","8284.899999999441","task_switching","{""subtraction_ans"":""49""}","experiment","52","subtraction","49","true","subtract","","","","","","","","","","","","","","","","","","",""
"","","","","","survey-text","93","1026153","0.0-93.0","A2683ZVNWI119A","2022-05-27T04:27:08.906Z","task_switching-rhyme-same_different-phon_sim","","39853","task_switching","{""subtraction_ans"":""52""}","experiment","55","subtraction","52","true","subtract","","","","","","","","","","","","","","","","","","",""
"","","","","","survey-text","94","1031296","0.0-94.0","A2683ZVNWI119A","2022-05-27T04:27:08.906Z","task_switching-rhyme-same_different-phon_sim","","5140.4000000003725","task_switching","{""subtraction_ans"":""48""}","experiment","51","subtraction","48","true","subtract","","","","","","","","","","","","","","","","","","",""
"","","","","","survey-text","95","1035272","0.0-95.0","A2683ZVNWI119A","2022-05-27T04:27:08.906Z","task_switching-rhyme-same_different-phon_sim","","3973.2000000001863","task_switching","{""subtraction_ans"":""32""}","experiment","35","subtraction","32","true","subtract","","","","","","","","","","","","","","","","","","",""
"","","","","","survey-text","96","1040625","0.0-96.0","A2683ZVNWI119A","2022-05-27T04:27:08.906Z","task_switching-rhyme-same_different-phon_sim","","5349.0999999996275","task_switching","{""subtraction_ans"":""26""}","experiment","29","subtraction","26","true","subtract","","","","","","","","","","","","","","","","","","",""
"","","","","","survey-text","97","1044113","0.0-97.0","A2683ZVNWI119A","2022-05-27T04:27:08.906Z","task_switching-rhyme-same_different-phon_sim","","3483.0999999996275","task_switching","{""subtraction_ans"":""30""}","experiment","33","subtraction","30","true","subtract","","","","","","","","","","","","","","","","","","",""
"","","","","","survey-text","98","1056696","0.0-98.0","A2683ZVNWI119A","2022-05-27T04:27:08.906Z","task_switching-rhyme-same_different-phon_sim","","12580.799999999814","task_switching","{""subtraction_ans"":""78""}","experiment","81","subtraction","78","true","subtract","","","","","","","","","","","","","","","","","","",""
"","","","","","survey-text","99","1066792","0.0-99.0","A2683ZVNWI119A","2022-05-27T04:27:08.906Z","task_switching-rhyme-same_different-phon_sim","","10092.399999999441","task_switching","{""subtraction_ans"":""82""}","experiment","85","subtraction","82","true","subtract","","","","","","","","","","","","","","","","","","",""
"","","","","","survey-text","100","1069856","0.0-100.0","A2683ZVNWI119A","2022-05-27T04:27:08.906Z","task_switching-rhyme-same_different-phon_sim","","3060.699999999255","task_switching","{""subtraction_ans"":""77""}","experiment","80","subtraction","77","true","subtract","","","","","","","","","","","","","","","","","","",""
"","","","","","survey-text","101","1072608","0.0-101.0","A2683ZVNWI119A","2022-05-27T04:27:08.906Z","task_switching-rhyme-same_different-phon_sim","","2749.4000000003725","task_switching","{""subtraction_ans"":""12""}","experiment","15","subtraction","12","true","subtract","","","","","","","","","","","","","","","","","","",""
"","","","","","survey-text","102","1077472","0.0-102.0","A2683ZVNWI119A","2022-05-27T04:27:08.906Z","task_switching-rhyme-same_different-phon_sim","","4861.5","task_switching","{""subtraction_ans"":""29""}","experiment","32","subtraction","29","true","subtract","","","","","","","","","","","","","","","","","","",""
"","","","","","survey-text","103","1087968","0.0-103.0","A2683ZVNWI119A","2022-05-27T04:27:08.906Z","task_switching-rhyme-same_different-phon_sim","","10490.600000000559","task_switching","{""subtraction_ans"":""25""}","experiment","28","subtraction","25","true","subtract","","","","","","","","","","","","","","","","","","",""
"","","","","","survey-text","104","1096648","0.0-104.0","A2683ZVNWI119A","2022-05-27T04:27:08.906Z","task_switching-rhyme-same_different-phon_sim","","8677.200000000186","task_switching","{""subtraction_ans"":""54""}","experiment","57","subtraction","54","true","subtract","","","","","","","","","","","","","","","","","","",""
"","","","","","survey-text","105","1104576","0.0-105.0","A2683ZVNWI119A","2022-05-27T04:27:08.906Z","task_switching-rhyme-same_different-phon_sim","","7924.200000000186","task_switching","{""subtraction_ans"":""16""}","experiment","19","subtraction","16","true","subtract","","","","","","","","","","","","","","","","","","",""
"","","","","","survey-text","106","1138248","0.0-106.0","A2683ZVNWI119A","2022-05-27T04:27:08.906Z","task_switching-rhyme-same_different-phon_sim","","33667.299999999814","task_switching","{""subtraction_ans"":""93""}","experiment","96","subtraction","93","true","subtract","","","","","","","","","","","","","","","","","","",""
"","","","","","survey-text","107","1141888","0.0-107.0","A2683ZVNWI119A","2022-05-27T04:27:08.906Z","task_switching-rhyme-same_different-phon_sim","","3637.2000000001863","task_switching","{""subtraction_ans"":""80""}","experiment","83","subtraction","80","true","subtract","","","","","","","","","","","","","","","","","","",""
"","","","","","instructions","108","1193833","0.0-108.0","A2683ZVNWI119A","2022-05-27T04:27:08.906Z","task_switching-rhyme-same_different-phon_sim","[{""page_index"":0,""viewing_time"":51942.59999999963}]","51943.09999999963","task_switching","","","","","","","","","","","","","","","","","","","","","","","","","",""
"","","","","","survey-text","109","1202625","0.0-109.0","A2683ZVNWI119A","2022-05-27T04:27:08.906Z","task_switching-rhyme-same_different-phon_sim","","8788.5","task_switching","{""colorcue_switch_ans"":""29""}","training","26","colorcue_switch","29","true","add","red","0","","","","","","","","","","","","","","","","",""
"","","","","","html-keyboard-response","110","1203637","0.0-110.0","A2683ZVNWI119A","2022-05-27T04:27:08.906Z","task_switching-rhyme-same_different-phon_sim","","null","task_switching","null","training","<div style=""color:darkgreen; font-size:60px"">Well done!</div>","colorcue_switch","","","","","","","","","","","","","","","","","","","","","",""
"","","","","","survey-text","111","1209536","0.0-111.0","A2683ZVNWI119A","2022-05-27T04:27:08.906Z","task_switching-rhyme-same_different-phon_sim","","5896.9000000003725","task_switching","{""colorcue_switch_ans"":""10""}","training","13","colorcue_switch","10","true","subtract","blue","1","","","","","","","","","","","","","","","","",""
"","","","","","html-keyboard-response","112","1210546","0.0-112.0","A2683ZVNWI119A","2022-05-27T04:27:08.906Z","task_switching-rhyme-same_different-phon_sim","","null","task_switching","null","training","<div style=""color:darkgreen; font-size:60px"">Well done!</div>","colorcue_switch","","","","","","","","","","","","","","","","","","","","","",""
"","","","","","survey-text","113","1215960","0.0-113.0","A2683ZVNWI119A","2022-05-27T04:27:08.906Z","task_switching-rhyme-same_different-phon_sim","","5410.799999999814","task_switching","{""colorcue_switch_ans"":""61""}","training","58","colorcue_switch","61","true","add","red","2","","","","","","","","","","","","","","","","",""
"","","","","","html-keyboard-response","114","1216976","0.0-114.0","A2683ZVNWI119A","2022-05-27T04:27:08.906Z","task_switching-rhyme-same_different-phon_sim","","null","task_switching","null","training","<div style=""color:darkgreen; font-size:60px"">Well done!</div>","colorcue_switch","","","","","","","","","","","","","","","","","","","","","",""
"","","","","","survey-text","115","1220384","0.0-115.0","A2683ZVNWI119A","2022-05-27T04:27:08.906Z","task_switching-rhyme-same_different-phon_sim","","3405.199999999255","task_switching","{""colorcue_switch_ans"":""43""}","training","46","colorcue_switch","43","true","subtract","blue","3","","","","","","","","","","","","","","","","",""
"","","","","","html-keyboard-response","116","1221401","0.0-116.0","A2683ZVNWI119A","2022-05-27T04:27:08.906Z","task_switching-rhyme-same_different-phon_sim","","null","task_switching","null","training","<div style=""color:darkgreen; font-size:60px"">Well done!</div>","colorcue_switch","","","","","","","","","","","","","","","","","","","","","",""
"","","","","","survey-text","117","1227496","0.0-117.0","A2683ZVNWI119A","2022-05-27T04:27:08.906Z","task_switching-rhyme-same_different-phon_sim","","6092.600000000559","task_switching","{""colorcue_switch_ans"":""62""}","training","59","colorcue_switch","62","true","add","red","4","","","","","","","","","","","","","","","","",""
"","","","","","html-keyboard-response","118","1228512","0.0-118.0","A2683ZVNWI119A","2022-05-27T04:27:08.906Z","task_switching-rhyme-same_different-phon_sim","","null","task_switching","null","training","<div style=""color:darkgreen; font-size:60px"">Well done!</div>","colorcue_switch","","","","","","","","","","","","","","","","","","","","","",""
"","","","","","survey-text","119","1232688","0.0-119.0","A2683ZVNWI119A","2022-05-27T04:27:08.906Z","task_switching-rhyme-same_different-phon_sim","","4173.5","task_switching","{""colorcue_switch_ans"":""63""}","training","66","colorcue_switch","63","true","subtract","blue","5","","","","","","","","","","","","","","","","",""
"","","","","","html-keyboard-response","120","1233704","0.0-120.0","A2683ZVNWI119A","2022-05-27T04:27:08.906Z","task_switching-rhyme-same_different-phon_sim","","null","task_switching","null","training","<div style=""color:darkgreen; font-size:60px"">Well done!</div>","colorcue_switch","","","","","","","","","","","","","","","","","","","","","",""
"","","","","","survey-text","121","1238128","0.0-121.0","A2683ZVNWI119A","2022-05-27T04:27:08.906Z","task_switching-rhyme-same_different-phon_sim","","4421.399999999441","task_switching","{""colorcue_switch_ans"":""48""}","training","45","colorcue_switch","48","true","add","red","6","","","","","","","","","","","","","","","","",""
"","","","","","html-keyboard-response","122","1239140","0.0-122.0","A2683ZVNWI119A","2022-05-27T04:27:08.906Z","task_switching-rhyme-same_different-phon_sim","","null","task_switching","null","training","<div style=""color:darkgreen; font-size:60px"">Well done!</div>","colorcue_switch","","","","","","","","","","","","","","","","","","","","","",""
"","","","","","survey-text","123","1241689","0.0-123.0","A2683ZVNWI119A","2022-05-27T04:27:08.906Z","task_switching-rhyme-same_different-phon_sim","","2546.0999999996275","task_switching","{""colorcue_switch_ans"":""21""}","training","24","colorcue_switch","21","true","subtract","blue","7","","","","","","","","","","","","","","","","",""
"","","","","","html-keyboard-response","124","1242707","0.0-124.0","A2683ZVNWI119A","2022-05-27T04:27:08.906Z","task_switching-rhyme-same_different-phon_sim","","null","task_switching","null","training","<div style=""color:darkgreen; font-size:60px"">Well done!</div>","colorcue_switch","","","","","","","","","","","","","","","","","","","","","",""
"","","","","","survey-text","125","1246408","0.0-125.0","A2683ZVNWI119A","2022-05-27T04:27:08.906Z","task_switching-rhyme-same_different-phon_sim","","3699","task_switching","{""colorcue_switch_ans"":""64""}","training","61","colorcue_switch","64","true","add","red","8","","","","","","","","","","","","","","","","",""
"","","","","","html-keyboard-response","126","1247425","0.0-126.0","A2683ZVNWI119A","2022-05-27T04:27:08.906Z","task_switching-rhyme-same_different-phon_sim","","null","task_switching","null","training","<div style=""color:darkgreen; font-size:60px"">Well done!</div>","colorcue_switch","","","","","","","","","","","","","","","","","","","","","",""
"","","","","","survey-text","127","1253368","0.0-127.0","A2683ZVNWI119A","2022-05-27T04:27:08.906Z","task_switching-rhyme-same_different-phon_sim","","5940.299999999814","task_switching","{""colorcue_switch_ans"":""80""}","training","83","colorcue_switch","80","true","subtract","blue","9","","","","","","","","","","","","","","","","",""
"","","","","","html-keyboard-response","128","1254372","0.0-128.0","A2683ZVNWI119A","2022-05-27T04:27:08.906Z","task_switching-rhyme-same_different-phon_sim","","null","task_switching","null","training","<div style=""color:darkgreen; font-size:60px"">Well done!</div>","colorcue_switch","","","","","","","","","","","","","","","","","","","","","",""
"","","","","","instructions","129","1256048","0.0-129.0","A2683ZVNWI119A","2022-05-27T04:27:08.906Z","task_switching-rhyme-same_different-phon_sim","[{""page_index"":0,""viewing_time"":1675.2999999998137}]","1675.5999999996275","task_switching","","","","","","","","","","","","","","","","","","","","","","","","","",""
"","","","","","survey-text","130","1261232","0.0-130.0","A2683ZVNWI119A","2022-05-27T04:27:08.906Z","task_switching-rhyme-same_different-phon_sim","","5180.799999999814","task_switching","{""colorcue_switch_ans"":""54""}","experiment","51","colorcue_switch","54","true","add","red","0","","","","","","","","","","","","","","","","",""
"","","","","","survey-text","131","1268385","0.0-131.0","A2683ZVNWI119A","2022-05-27T04:27:08.906Z","task_switching-rhyme-same_different-phon_sim","","7148.899999999441","task_switching","{""colorcue_switch_ans"":""79""}","experiment","82","colorcue_switch","79","true","subtract","blue","1","","","","","","","","","","","","","","","","",""
"","","","","","survey-text","132","1277305","0.0-132.0","A2683ZVNWI119A","2022-05-27T04:27:08.906Z","task_switching-rhyme-same_different-phon_sim","","8917.099999999627","task_switching","{""colorcue_switch_ans"":""48""}","experiment","45","colorcue_switch","48","true","add","red","2","","","","","","","","","","","","","","","","",""
"","","","","","survey-text","133","1283857","0.0-133.0","A2683ZVNWI119A","2022-05-27T04:27:08.906Z","task_switching-rhyme-same_different-phon_sim","","6548.899999999441","task_switching","{""colorcue_switch_ans"":""91""}","experiment","94","colorcue_switch","91","true","subtract","blue","3","","","","","","","","","","","","","","","","",""
"","","","","","survey-text","134","1287985","0.0-134.0","A2683ZVNWI119A","2022-05-27T04:27:08.906Z","task_switching-rhyme-same_different-phon_sim","","4124.9000000003725","task_switching","{""colorcue_switch_ans"":""87""}","experiment","84","colorcue_switch","87","true","add","red","4","","","","","","","","","","","","","","","","",""
"","","","","","survey-text","135","1291145","0.0-135.0","A2683ZVNWI119A","2022-05-27T04:27:08.906Z","task_switching-rhyme-same_different-phon_sim","","3157.4000000003725","task_switching","{""colorcue_switch_ans"":""20""}","experiment","23","colorcue_switch","20","true","subtract","blue","5","","","","","","","","","","","","","","","","",""
"","","","","","survey-text","136","1294169","0.0-136.0","A2683ZVNWI119A","2022-05-27T04:27:08.906Z","task_switching-rhyme-same_different-phon_sim","","3019.899999999441","task_switching","{""colorcue_switch_ans"":""44""}","experiment","41","colorcue_switch","44","true","add","red","6","","","","","","","","","","","","","","","","",""
"","","","","","survey-text","137","1297777","0.0-137.0","A2683ZVNWI119A","2022-05-27T04:27:08.906Z","task_switching-rhyme-same_different-phon_sim","","3605.2000000001863","task_switching","{""colorcue_switch_ans"":""36""}","experiment","39","colorcue_switch","36","true","subtract","blue","7","","","","","","","","","","","","","","","","",""
"","","","","","survey-text","138","1302609","0.0-138.0","A2683ZVNWI119A","2022-05-27T04:27:08.906Z","task_switching-rhyme-same_different-phon_sim","","4828.899999999441","task_switching","{""colorcue_switch_ans"":""86""}","experiment","83","colorcue_switch","86","true","add","red","8","","","","","","","","","","","","","","","","",""
"","","","","","survey-text","139","1308873","0.0-139.0","A2683ZVNWI119A","2022-05-27T04:27:08.906Z","task_switching-rhyme-same_different-phon_sim","","6260.0999999996275","task_switching","{""colorcue_switch_ans"":""69""}","experiment","72","colorcue_switch","69","true","subtract","blue","9","","","","","","","","","","","","","","","","",""
"","","","","","survey-text","140","1315273","0.0-140.0","A2683ZVNWI119A","2022-05-27T04:27:08.906Z","task_switching-rhyme-same_different-phon_sim","","6396.799999999814","task_switching","{""colorcue_switch_ans"":""39""}","experiment","36","colorcue_switch","39","true","add","red","10","","","","","","","","","","","","","","","","",""
"","","","","","survey-text","141","1325513","0.0-141.0","A2683ZVNWI119A","2022-05-27T04:27:08.906Z","task_switching-rhyme-same_different-phon_sim","","10237.200000000186","task_switching","{""colorcue_switch_ans"":""54""}","experiment","57","colorcue_switch","54","true","subtract","blue","11","","","","","","","","","","","","","","","","",""
"","","","","","survey-text","142","1331224","0.0-142.0","A2683ZVNWI119A","2022-05-27T04:27:08.906Z","task_switching-rhyme-same_different-phon_sim","","5708.799999999814","task_switching","{""colorcue_switch_ans"":""36""}","experiment","33","colorcue_switch","36","true","add","red","12","","","","","","","","","","","","","","","","",""
"","","","","","survey-text","143","1336776","0.0-143.0","A2683ZVNWI119A","2022-05-27T04:27:08.906Z","task_switching-rhyme-same_different-phon_sim","","5547.100000000559","task_switching","{""colorcue_switch_ans"":""24""}","experiment","27","colorcue_switch","24","true","subtract","blue","13","","","","","","","","","","","","","","","","",""
"","","","","","survey-text","144","1346280","0.0-144.0","A2683ZVNWI119A","2022-05-27T04:27:08.906Z","task_switching-rhyme-same_different-phon_sim","","9499.799999999814","task_switching","{""colorcue_switch_ans"":""69""}","experiment","66","colorcue_switch","69","true","add","red","14","","","","","","","","","","","","","","","","",""
"","","","","","survey-text","145","1350664","0.0-145.0","A2683ZVNWI119A","2022-05-27T04:27:08.906Z","task_switching-rhyme-same_different-phon_sim","","4381","task_switching","{""colorcue_switch_ans"":""56""}","experiment","59","colorcue_switch","56","true","subtract","blue","15","","","","","","","","","","","","","","","","",""
"","","","","","survey-text","146","1357120","0.0-146.0","A2683ZVNWI119A","2022-05-27T04:27:08.906Z","task_switching-rhyme-same_different-phon_sim","","6452.399999999441","task_switching","{""colorcue_switch_ans"":""51""}","experiment","48","colorcue_switch","51","true","add","red","16","","","","","","","","","","","","","","","","",""
"","","","","","survey-text","147","1365024","0.0-147.0","A2683ZVNWI119A","2022-05-27T04:27:08.906Z","task_switching-rhyme-same_different-phon_sim","","7900.899999999441","task_switching","{""colorcue_switch_ans"":""75""}","experiment","78","colorcue_switch","75","true","subtract","blue","17","","","","","","","","","","","","","","","","",""
"","","","","","survey-text","148","1372688","0.0-148.0","A2683ZVNWI119A","2022-05-27T04:27:08.906Z","task_switching-rhyme-same_different-phon_sim","","7660.5","task_switching","{""colorcue_switch_ans"":""94""}","experiment","91","colorcue_switch","94","true","add","red","18","","","","","","","","","","","","","","","","",""
"","","","","","survey-text","149","1424417","0.0-149.0","A2683ZVNWI119A","2022-05-27T04:27:08.906Z","task_switching-rhyme-same_different-phon_sim","","51724.299999999814","task_switching","{""colorcue_switch_ans"":""52""}","experiment","55","colorcue_switch","52","true","subtract","blue","19","","","","","","","","","","","","","","","","",""
"","","","","","survey-text","150","1436601","0.0-150.0","A2683ZVNWI119A","2022-05-27T04:27:08.906Z","task_switching-rhyme-same_different-phon_sim","","12180.5","task_switching","{""colorcue_switch_ans"":""70""}","experiment","67","colorcue_switch","70","true","add","red","20","","","","","","","","","","","","","","","","",""
"","","","","","survey-text","151","1445481","0.0-151.0","A2683ZVNWI119A","2022-05-27T04:27:08.906Z","task_switching-rhyme-same_different-phon_sim","","8876.700000000186","task_switching","{""colorcue_switch_ans"":""77""}","experiment","80","colorcue_switch","77","true","subtract","blue","21","","","","","","","","","","","","","","","","",""
"","","","","","survey-text","152","1450153","0.0-152.0","A2683ZVNWI119A","2022-05-27T04:27:08.906Z","task_switching-rhyme-same_different-phon_sim","","4668.5","task_switching","{""colorcue_switch_ans"":""47""}","experiment","44","colorcue_switch","47","true","add","red","22","","","","","","","","","","","","","","","","",""
"","","","","","survey-text","153","1455833","0.0-153.0","A2683ZVNWI119A","2022-05-27T04:27:08.906Z","task_switching-rhyme-same_different-phon_sim","","5677","task_switching","{""colorcue_switch_ans"":""85""}","experiment","88","colorcue_switch","85","true","subtract","blue","23","","","","","","","","","","","","","","","","",""
"","","","","","survey-text","154","1460073","0.0-154.0","A2683ZVNWI119A","2022-05-27T04:27:08.906Z","task_switching-rhyme-same_different-phon_sim","","4236.899999999441","task_switching","{""colorcue_switch_ans"":""67""}","experiment","64","colorcue_switch","67","true","add","red","24","","","","","","","","","","","","","","","","",""
"","","","","","survey-text","155","1466105","0.0-155.0","A2683ZVNWI119A","2022-05-27T04:27:08.906Z","task_switching-rhyme-same_different-phon_sim","","6029.100000000559","task_switching","{""colorcue_switch_ans"":""43""}","experiment","46","colorcue_switch","43","true","subtract","blue","25","","","","","","","","","","","","","","","","",""
"","","","","","survey-text","156","1470945","0.0-156.0","A2683ZVNWI119A","2022-05-27T04:27:08.906Z","task_switching-rhyme-same_different-phon_sim","","4836.9000000003725","task_switching","{""colorcue_switch_ans"":""76""}","experiment","73","colorcue_switch","76","true","add","red","26","","","","","","","","","","","","","","","","",""
"","","","","","survey-text","157","1476913","0.0-157.0","A2683ZVNWI119A","2022-05-27T04:27:08.906Z","task_switching-rhyme-same_different-phon_sim","","5964.699999999255","task_switching","{""colorcue_switch_ans"":""71""}","experiment","74","colorcue_switch","71","true","subtract","blue","27","","","","","","","","","","","","","","","","",""
"","","","","","survey-text","158","1481569","0.0-158.0","A2683ZVNWI119A","2022-05-27T04:27:08.906Z","task_switching-rhyme-same_different-phon_sim","","4653.100000000559","task_switching","{""colorcue_switch_ans"":""64""}","experiment","61","colorcue_switch","64","true","add","red","28","","","","","","","","","","","","","","","","",""
"","","","","","survey-text","159","1491921","0.0-159.0","A2683ZVNWI119A","2022-05-27T04:27:08.906Z","task_switching-rhyme-same_different-phon_sim","","10348.400000000373","task_switching","{""colorcue_switch_ans"":""66""}","experiment","69","colorcue_switch","66","true","subtract","blue","29","","","","","","","","","","","","","","","","",""
"","","","","","instructions","160","1562680","0.0-160.0","A2683ZVNWI119A","2022-05-27T04:27:08.906Z","task_switching-rhyme-same_different-phon_sim","[{""page_index"":0,""viewing_time"":70758.20000000019}]","70758.59999999963","task_switching","","","","","","","","","","","","","","","","","","","","","","","","","",""
"","","","","","survey-text","161","1568920","0.0-161.0","A2683ZVNWI119A","2022-05-27T04:27:08.906Z","task_switching-rhyme-same_different-phon_sim","","6236.700000000186","task_switching","{""uncued_switch_ans"":""43""}","training","40","uncued_switch","43","true","add","","0","","","","","","","","","","","","","","","","",""
"","","","","","html-keyboard-response","162","1569923","0.0-162.0","A2683ZVNWI119A","2022-05-27T04:27:08.906Z","task_switching-rhyme-same_different-phon_sim","","null","task_switching","null","training","<div style=""color:darkgreen; font-size:60px"">Well done!</div>","uncued_switch","","","","","","","","","","","","","","","","","","","","","",""
"","","","","","survey-text","163","1575920","0.0-163.0","A2683ZVNWI119A","2022-05-27T04:27:08.906Z","task_switching-rhyme-same_different-phon_sim","","5994.600000000559","task_switching","{""uncued_switch_ans"":""63""}","training","66","uncued_switch","63","true","subtract","","1","","","","","","","","","","","","","","","","",""
"","","","","","html-keyboard-response","164","1576935","0.0-164.0","A2683ZVNWI119A","2022-05-27T04:27:08.906Z","task_switching-rhyme-same_different-phon_sim","","null","task_switching","null","training","<div style=""color:darkgreen; font-size:60px"">Well done!</div>","uncued_switch","","","","","","","","","","","","","","","","","","","","","",""
"","","","","","survey-text","165","1582664","0.0-165.0","A2683ZVNWI119A","2022-05-27T04:27:08.906Z","task_switching-rhyme-same_different-phon_sim","","5727.200000000186","task_switching","{""uncued_switch_ans"":""62""}","training","59","uncued_switch","62","true","add","","2","","","","","","","","","","","","","","","","",""
"","","","","","html-keyboard-response","166","1583673","0.0-166.0","A2683ZVNWI119A","2022-05-27T04:27:08.906Z","task_switching-rhyme-same_different-phon_sim","","null","task_switching","null","training","<div style=""color:darkgreen; font-size:60px"">Well done!</div>","uncued_switch","","","","","","","","","","","","","","","","","","","","","",""
"","","","","","survey-text","167","1591592","0.0-167.0","A2683ZVNWI119A","2022-05-27T04:27:08.906Z","task_switching-rhyme-same_different-phon_sim","","7916.700000000186","task_switching","{""uncued_switch_ans"":""78""}","training","81","uncued_switch","78","true","subtract","","3","","","","","","","","","","","","","","","","",""
"","","","","","html-keyboard-response","168","1592603","0.0-168.0","A2683ZVNWI119A","2022-05-27T04:27:08.906Z","task_switching-rhyme-same_different-phon_sim","","null","task_switching","null","training","<div style=""color:darkgreen; font-size:60px"">Well done!</div>","uncued_switch","","","","","","","","","","","","","","","","","","","","","",""
"","","","","","survey-text","169","1600336","0.0-169.0","A2683ZVNWI119A","2022-05-27T04:27:08.906Z","task_switching-rhyme-same_different-phon_sim","","7730.899999999441","task_switching","{""uncued_switch_ans"":""19""}","training","16","uncued_switch","19","true","add","","4","","","","","","","","","","","","","","","","",""
"","","","","","html-keyboard-response","170","1601345","0.0-170.0","A2683ZVNWI119A","2022-05-27T04:27:08.906Z","task_switching-rhyme-same_different-phon_sim","","null","task_switching","null","training","<div style=""color:darkgreen; font-size:60px"">Well done!</div>","uncued_switch","","","","","","","","","","","","","","","","","","","","","",""
"","","","","","survey-text","171","1652609","0.0-171.0","A2683ZVNWI119A","2022-05-27T04:27:08.906Z","task_switching-rhyme-same_different-phon_sim","","51260.700000000186","task_switching","{""uncued_switch_ans"":""65""}","training","68","uncued_switch","65","true","subtract","","5","","","","","","","","","","","","","","","","",""
"","","","","","html-keyboard-response","172","1653616","0.0-172.0","A2683ZVNWI119A","2022-05-27T04:27:08.906Z","task_switching-rhyme-same_different-phon_sim","","null","task_switching","null","training","<div style=""color:darkgreen; font-size:60px"">Well done!</div>","uncued_switch","","","","","","","","","","","","","","","","","","","","","",""
"","","","","","survey-text","173","1658153","0.0-173.0","A2683ZVNWI119A","2022-05-27T04:27:08.906Z","task_switching-rhyme-same_different-phon_sim","","4533.5","task_switching","{""uncued_switch_ans"":""78""}","training","75","uncued_switch","78","true","add","","6","","","","","","","","","","","","","","","","",""
"","","","","","html-keyboard-response","174","1659174","0.0-174.0","A2683ZVNWI119A","2022-05-27T04:27:08.906Z","task_switching-rhyme-same_different-phon_sim","","null","task_switching","null","training","<div style=""color:darkgreen; font-size:60px"">Well done!</div>","uncued_switch","","","","","","","","","","","","","","","","","","","","","",""
"","","","","","survey-text","175","1665953","0.0-175.0","A2683ZVNWI119A","2022-05-27T04:27:08.906Z","task_switching-rhyme-same_different-phon_sim","","6774.9000000003725","task_switching","{""uncued_switch_ans"":""89""}","training","92","uncued_switch","89","true","subtract","","7","","","","","","","","","","","","","","","","",""
"","","","","","html-keyboard-response","176","1666962","0.0-176.0","A2683ZVNWI119A","2022-05-27T04:27:08.906Z","task_switching-rhyme-same_different-phon_sim","","null","task_switching","null","training","<div style=""color:darkgreen; font-size:60px"">Well done!</div>","uncued_switch","","","","","","","","","","","","","","","","","","","","","",""
"","","","","","survey-text","177","1674257","0.0-177.0","A2683ZVNWI119A","2022-05-27T04:27:08.906Z","task_switching-rhyme-same_different-phon_sim","","7292.5","task_switching","{""uncued_switch_ans"":""59""}","training","56","uncued_switch","59","true","add","","8","","","","","","","","","","","","","","","","",""
"","","","","","html-keyboard-response","178","1675265","0.0-178.0","A2683ZVNWI119A","2022-05-27T04:27:08.906Z","task_switching-rhyme-same_different-phon_sim","","null","task_switching","null","training","<div style=""color:darkgreen; font-size:60px"">Well done!</div>","uncued_switch","","","","","","","","","","","","","","","","","","","","","",""
"","","","","","survey-text","179","1678553","0.0-179.0","A2683ZVNWI119A","2022-05-27T04:27:08.906Z","task_switching-rhyme-same_different-phon_sim","","3285.100000000559","task_switching","{""uncued_switch_ans"":""41""}","training","45","uncued_switch","41","false","subtract","","9","","","","","","","","","","","","","","","","",""
"","","","","","html-keyboard-response","180","1683566","0.0-180.0","A2683ZVNWI119A","2022-05-27T04:27:08.906Z","task_switching-rhyme-same_different-phon_sim","","null","task_switching","null","training","<div style=""color:darkred; font-size:40px"">Right direction but be careful with the numbers.<p> Correct answer: 42.</p><p> Next trial add 3.</p></div>","uncued_switch","","","","","","","","","","","","","","","","","","","","","",""
"","","","","","instructions","181","1724552","0.0-181.0","A2683ZVNWI119A","2022-05-27T04:27:08.906Z","task_switching-rhyme-same_different-phon_sim","[{""page_index"":0,""viewing_time"":40984.90000000037}]","40985.299999999814","task_switching","","","","","","","","","","","","","","","","","","","","","","","","","",""
"","","","","","survey-text","182","1728193","0.0-182.0","A2683ZVNWI119A","2022-05-27T04:27:08.906Z","task_switching-rhyme-same_different-phon_sim","","3637","task_switching","{""uncued_switch_ans"":""43""}","experiment","40","uncued_switch","43","true","add","","0","","","","","","","","","","","","","","","","",""
"","","","","","survey-text","183","1733537","0.0-183.0","A2683ZVNWI119A","2022-05-27T04:27:08.906Z","task_switching-rhyme-same_different-phon_sim","","5341.0999999996275","task_switching","{""uncued_switch_ans"":""66""}","experiment","69","uncued_switch","66","true","subtract","","1","","","","","","","","","","","","","","","","",""
"","","","","","survey-text","184","1738385","0.0-184.0","A2683ZVNWI119A","2022-05-27T04:27:08.906Z","task_switching-rhyme-same_different-phon_sim","","4842.799999999814","task_switching","{""uncued_switch_ans"":""25""}","experiment","22","uncued_switch","25","true","add","","2","","","","","","","","","","","","","","","","",""
"","","","","","survey-text","185","1742088","0.0-185.0","A2683ZVNWI119A","2022-05-27T04:27:08.906Z","task_switching-rhyme-same_different-phon_sim","","3700.600000000559","task_switching","{""uncued_switch_ans"":""48""}","experiment","51","uncued_switch","48","true","subtract","","3","","","","","","","","","","","","","","","","",""
"","","","","","survey-text","186","1744625","0.0-186.0","A2683ZVNWI119A","2022-05-27T04:27:08.906Z","task_switching-rhyme-same_different-phon_sim","","2531.7000000001863","task_switching","{""uncued_switch_ans"":""55""}","experiment","52","uncued_switch","55","true","add","","4","","","","","","","","","","","","","","","","",""
"","","","","","survey-text","187","1750608","0.0-187.0","A2683ZVNWI119A","2022-05-27T04:27:08.906Z","task_switching-rhyme-same_different-phon_sim","","5980.5","task_switching","{""uncued_switch_ans"":""53""}","experiment","56","uncued_switch","53","true","subtract","","5","","","","","","","","","","","","","","","","",""
"","","","","","survey-text","188","1755992","0.0-188.0","A2683ZVNWI119A","2022-05-27T04:27:08.906Z","task_switching-rhyme-same_different-phon_sim","","5380.899999999441","task_switching","{""uncued_switch_ans"":""53""}","experiment","50","uncued_switch","53","true","add","","6","","","","","","","","","","","","","","","","",""
"","","","","","survey-text","189","1759032","0.0-189.0","A2683ZVNWI119A","2022-05-27T04:27:08.906Z","task_switching-rhyme-same_different-phon_sim","","3037.0999999996275","task_switching","{""uncued_switch_ans"":""60""}","experiment","63","uncued_switch","60","true","subtract","","7","","","","","","","","","","","","","","","","",""
"","","","","","survey-text","190","1763584","0.0-190.0","A2683ZVNWI119A","2022-05-27T04:27:08.906Z","task_switching-rhyme-same_different-phon_sim","","4548.799999999814","task_switching","{""uncued_switch_ans"":""87""}","experiment","84","uncued_switch","87","true","add","","8","","","","","","","","","","","","","","","","",""
"","","","","","survey-text","191","1769360","0.0-191.0","A2683ZVNWI119A","2022-05-27T04:27:08.906Z","task_switching-rhyme-same_different-phon_sim","","5772.799999999814","task_switching","{""uncued_switch_ans"":""45""}","experiment","48","uncued_switch","45","true","subtract","","9","","","","","","","","","","","","","","","","",""
"","","","","","survey-text","192","1773040","0.0-192.0","A2683ZVNWI119A","2022-05-27T04:27:08.906Z","task_switching-rhyme-same_different-phon_sim","","3675","task_switching","{""uncued_switch_ans"":""17""}","experiment","14","uncued_switch","17","true","add","","10","","","","","","","","","","","","","","","","",""
"","","","","","survey-text","193","1778448","0.0-193.0","A2683ZVNWI119A","2022-05-27T04:27:08.906Z","task_switching-rhyme-same_different-phon_sim","","5404.899999999441","task_switching","{""uncued_switch_ans"":""29""}","experiment","32","uncued_switch","29","true","subtract","","11","","","","","","","","","","","","","","","","",""
"","","","","","survey-text","194","1784664","0.0-194.0","A2683ZVNWI119A","2022-05-27T04:27:08.906Z","task_switching-rhyme-same_different-phon_sim","","6213.0999999996275","task_switching","{""uncued_switch_ans"":""73""}","experiment","70","uncued_switch","73","true","add","","12","","","","","","","","","","","","","","","","",""
"","","","","","survey-text","195","1789136","0.0-195.0","A2683ZVNWI119A","2022-05-27T04:27:08.906Z","task_switching-rhyme-same_different-phon_sim","","4468.799999999814","task_switching","{""uncued_switch_ans"":""90""}","experiment","93","uncued_switch","90","true","subtract","","13","","","","","","","","","","","","","","","","",""
"","","","","","survey-text","196","1799376","0.0-196.0","A2683ZVNWI119A","2022-05-27T04:27:08.906Z","task_switching-rhyme-same_different-phon_sim","","10237","task_switching","{""uncued_switch_ans"":""65""}","experiment","62","uncued_switch","65","true","add","","14","","","","","","","","","","","","","","","","",""
"","","","","","survey-text","197","1802912","0.0-197.0","A2683ZVNWI119A","2022-05-27T04:27:08.906Z","task_switching-rhyme-same_different-phon_sim","","3532.5999999996275","task_switching","{""uncued_switch_ans"":""61""}","experiment","64","uncued_switch","61","true","subtract","","15","","","","","","","","","","","","","","","","",""
"","","","","","survey-text","198","1805376","0.0-198.0","A2683ZVNWI119A","2022-05-27T04:27:08.906Z","task_switching-rhyme-same_different-phon_sim","","2460.199999999255","task_switching","{""uncued_switch_ans"":""24""}","experiment","21","uncued_switch","24","true","add","","16","","","","","","","","","","","","","","","","",""
"","","","","","survey-text","199","1809976","0.0-199.0","A2683ZVNWI119A","2022-05-27T04:27:08.906Z","task_switching-rhyme-same_different-phon_sim","","4597.200000000186","task_switching","{""uncued_switch_ans"":""69""}","experiment","72","uncued_switch","69","true","subtract","","17","","","","","","","","","","","","","","","","",""
"","","","","","survey-text","200","1814392","0.0-200.0","A2683ZVNWI119A","2022-05-27T04:27:08.906Z","task_switching-rhyme-same_different-phon_sim","","4411.699999999255","task_switching","{""uncued_switch_ans"":""29""}","experiment","26","uncued_switch","29","true","add","","18","","","","","","","","","","","","","","","","",""
"","","","","","survey-text","201","1825528","0.0-201.0","A2683ZVNWI119A","2022-05-27T04:27:08.906Z","task_switching-rhyme-same_different-phon_sim","","11132.899999999441","task_switching","{""uncued_switch_ans"":""76""}","experiment","79","uncued_switch","76","true","subtract","","19","","","","","","","","","","","","","","","","",""
"","","","","","survey-text","202","1834217","0.0-202.0","A2683ZVNWI119A","2022-05-27T04:27:08.906Z","task_switching-rhyme-same_different-phon_sim","","8684.600000000559","task_switching","{""uncued_switch_ans"":""58""}","experiment","55","uncued_switch","58","true","add","","20","","","","","","","","","","","","","","","","",""
"","","","","","survey-text","203","1837648","0.0-203.0","A2683ZVNWI119A","2022-05-27T04:27:08.906Z","task_switching-rhyme-same_different-phon_sim","","3427.899999999441","task_switching","{""uncued_switch_ans"":""24""}","experiment","27","uncued_switch","24","true","subtract","","21","","","","","","","","","","","","","","","","",""
"","","","","","survey-text","204","1843376","0.0-204.0","A2683ZVNWI119A","2022-05-27T04:27:08.906Z","task_switching-rhyme-same_different-phon_sim","","5725","task_switching","{""uncued_switch_ans"":""50""}","experiment","47","uncued_switch","50","true","add","","22","","","","","","","","","","","","","","","","",""
"","","","","","survey-text","205","1846544","0.0-205.0","A2683ZVNWI119A","2022-05-27T04:27:08.906Z","task_switching-rhyme-same_different-phon_sim","","3164.7000000001863","task_switching","{""uncued_switch_ans"":""33""}","experiment","36","uncued_switch","33","true","subtract","","23","","","","","","","","","","","","","","","","",""
"","","","","","survey-text","206","1849256","0.0-206.0","A2683ZVNWI119A","2022-05-27T04:27:08.906Z","task_switching-rhyme-same_different-phon_sim","","2708.7999999998137","task_switching","{""uncued_switch_ans"":""22""}","experiment","19","uncued_switch","22","true","add","","24","","","","","","","","","","","","","","","","",""
"","","","","","survey-text","207","1856000","0.0-207.0","A2683ZVNWI119A","2022-05-27T04:27:08.906Z","task_switching-rhyme-same_different-phon_sim","","6741.200000000186","task_switching","{""uncued_switch_ans"":""93""}","experiment","95","uncued_switch","93","false","subtract","","25","","","","","","","","","","","","","","","","",""
"","","","","","survey-text","208","1860520","0.0-208.0","A2683ZVNWI119A","2022-05-27T04:27:08.906Z","task_switching-rhyme-same_different-phon_sim","","4516.799999999814","task_switching","{""uncued_switch_ans"":""42""}","experiment","39","uncued_switch","42","true","add","","26","","","","","","","","","","","","","","","","",""
"","","","","","survey-text","209","1872065","0.0-209.0","A2683ZVNWI119A","2022-05-27T04:27:08.906Z","task_switching-rhyme-same_different-phon_sim","","11540","task_switching","{""uncued_switch_ans"":""84""}","experiment","87","uncued_switch","84","true","subtract","","27","","","","","","","","","","","","","","","","",""
"","","","","","survey-text","210","1882121","0.0-210.0","A2683ZVNWI119A","2022-05-27T04:27:08.906Z","task_switching-rhyme-same_different-phon_sim","","10052.900000000373","task_switching","{""uncued_switch_ans"":""54""}","experiment","57","uncued_switch","54","false","add","","28","","","","","","","","","","","","","","","","",""
"","","","","","survey-text","211","1889833","0.0-211.0","A2683ZVNWI119A","2022-05-27T04:27:08.906Z","task_switching-rhyme-same_different-phon_sim","","7708.299999999814","task_switching","{""uncued_switch_ans"":""30""}","experiment","33","uncued_switch","30","true","subtract","","29","","","","","","","","","","","","","","","","",""
"","","","","","instructions","212","1901489","0.0-212.0","A2683ZVNWI119A","2022-05-27T04:27:08.906Z","task_switching-rhyme-same_different-phon_sim","[{""page_index"":0,""viewing_time"":11654.200000000186}]","11654.600000000559","task_switching","","","","","","","","","","","","","","","","","","","","","","","","","",""
"","","","","","survey-text","213","1906137","0.0-213.0","A2683ZVNWI119A","2022-05-27T04:27:08.906Z","task_switching-rhyme-same_different-phon_sim","","4643.799999999814","task_switching","{""symbolcue_switch_ans"":""21""}","training","18","symbolcue_switch","21","true","add","","0","+","","","","","","","","","","","","","","","",""
"","","","","","html-keyboard-response","214","1907153","0.0-214.0","A2683ZVNWI119A","2022-05-27T04:27:08.906Z","task_switching-rhyme-same_different-phon_sim","","null","task_switching","null","training","<div style=""color:darkgreen; font-size:60px"">Well done!</div>","symbolcue_switch","","","","","","","","","","","","","","","","","","","","","",""
"","","","","","survey-text","215","1913649","0.0-215.0","A2683ZVNWI119A","2022-05-27T04:27:08.906Z","task_switching-rhyme-same_different-phon_sim","","6492.799999999814","task_switching","{""symbolcue_switch_ans"":""23""}","training","26","symbolcue_switch","23","true","subtract","","1","-","","","","","","","","","","","","","","","",""
"","","","","","html-keyboard-response","216","1914661","0.0-216.0","A2683ZVNWI119A","2022-05-27T04:27:08.906Z","task_switching-rhyme-same_different-phon_sim","","null","task_switching","null","training","<div style=""color:darkgreen; font-size:60px"">Well done!</div>","symbolcue_switch","","","","","","","","","","","","","","","","","","","","","",""
"","","","","","survey-text","217","1919233","0.0-217.0","A2683ZVNWI119A","2022-05-27T04:27:08.906Z","task_switching-rhyme-same_different-phon_sim","","4567.5","task_switching","{""symbolcue_switch_ans"":""57""}","training","54","symbolcue_switch","57","true","add","","2","+","","","","","","","","","","","","","","","",""
"","","","","","html-keyboard-response","218","1920245","0.0-218.0","A2683ZVNWI119A","2022-05-27T04:27:08.906Z","task_switching-rhyme-same_different-phon_sim","","null","task_switching","null","training","<div style=""color:darkgreen; font-size:60px"">Well done!</div>","symbolcue_switch","","","","","","","","","","","","","","","","","","","","","",""
"","","","","","survey-text","219","1926177","0.0-219.0","A2683ZVNWI119A","2022-05-27T04:27:08.906Z","task_switching-rhyme-same_different-phon_sim","","5928.0999999996275","task_switching","{""symbolcue_switch_ans"":""42""}","training","45","symbolcue_switch","42","true","subtract","","3","-","","","","","","","","","","","","","","","",""
"","","","","","html-keyboard-response","220","1927190","0.0-220.0","A2683ZVNWI119A","2022-05-27T04:27:08.906Z","task_switching-rhyme-same_different-phon_sim","","null","task_switching","null","training","<div style=""color:darkgreen; font-size:60px"">Well done!</div>","symbolcue_switch","","","","","","","","","","","","","","","","","","","","","",""
"","","","","","survey-text","221","1934432","0.0-221.0","A2683ZVNWI119A","2022-05-27T04:27:08.906Z","task_switching-rhyme-same_different-phon_sim","","7237.700000000186","task_switching","{""symbolcue_switch_ans"":""26""}","training","23","symbolcue_switch","26","true","add","","4","+","","","","","","","","","","","","","","","",""
"","","","","","html-keyboard-response","222","1935450","0.0-222.0","A2683ZVNWI119A","2022-05-27T04:27:08.906Z","task_switching-rhyme-same_different-phon_sim","","null","task_switching","null","training","<div style=""color:darkgreen; font-size:60px"">Well done!</div>","symbolcue_switch","","","","","","","","","","","","","","","","","","","","","",""
"","","","","","survey-text","223","1943152","0.0-223.0","A2683ZVNWI119A","2022-05-27T04:27:08.906Z","task_switching-rhyme-same_different-phon_sim","","7699.5999999996275","task_switching","{""symbolcue_switch_ans"":""68""}","training","71","symbolcue_switch","68","true","subtract","","5","-","","","","","","","","","","","","","","","",""
"","","","","","html-keyboard-response","224","1944163","0.0-224.0","A2683ZVNWI119A","2022-05-27T04:27:08.906Z","task_switching-rhyme-same_different-phon_sim","","null","task_switching","null","training","<div style=""color:darkgreen; font-size:60px"">Well done!</div>","symbolcue_switch","","","","","","","","","","","","","","","","","","","","","",""
"","","","","","survey-text","225","1950344","0.0-225.0","A2683ZVNWI119A","2022-05-27T04:27:08.906Z","task_switching-rhyme-same_different-phon_sim","","6178.4000000003725","task_switching","{""symbolcue_switch_ans"":""24""}","training","21","symbolcue_switch","24","true","add","","6","+","","","","","","","","","","","","","","","",""
"","","","","","html-keyboard-response","226","1951351","0.0-226.0","A2683ZVNWI119A","2022-05-27T04:27:08.906Z","task_switching-rhyme-same_different-phon_sim","","null","task_switching","null","training","<div style=""color:darkgreen; font-size:60px"">Well done!</div>","symbolcue_switch","","","","","","","","","","","","","","","","","","","","","",""
"","","","","","survey-text","227","1957880","0.0-227.0","A2683ZVNWI119A","2022-05-27T04:27:08.906Z","task_switching-rhyme-same_different-phon_sim","","6526.100000000559","task_switching","{""symbolcue_switch_ans"":""40""}","training","43","symbolcue_switch","40","true","subtract","","7","-","","","","","","","","","","","","","","","",""
"","","","","","html-keyboard-response","228","1958888","0.0-228.0","A2683ZVNWI119A","2022-05-27T04:27:08.906Z","task_switching-rhyme-same_different-phon_sim","","null","task_switching","null","training","<div style=""color:darkgreen; font-size:60px"">Well done!</div>","symbolcue_switch","","","","","","","","","","","","","","","","","","","","","",""
"","","","","","survey-text","229","1964168","0.0-229.0","A2683ZVNWI119A","2022-05-27T04:27:08.906Z","task_switching-rhyme-same_different-phon_sim","","5275.299999999814","task_switching","{""symbolcue_switch_ans"":""52""}","training","49","symbolcue_switch","52","true","add","","8","+","","","","","","","","","","","","","","","",""
"","","","","","html-keyboard-response","230","1965182","0.0-230.0","A2683ZVNWI119A","2022-05-27T04:27:08.906Z","task_switching-rhyme-same_different-phon_sim","","null","task_switching","null","training","<div style=""color:darkgreen; font-size:60px"">Well done!</div>","symbolcue_switch","","","","","","","","","","","","","","","","","","","","","",""
"","","","","","survey-text","231","1969600","0.0-231.0","A2683ZVNWI119A","2022-05-27T04:27:08.906Z","task_switching-rhyme-same_different-phon_sim","","4415.799999999814","task_switching","{""symbolcue_switch_ans"":""61""}","training","64","symbolcue_switch","61","true","subtract","","9","-","","","","","","","","","","","","","","","",""
"","","","","","html-keyboard-response","232","1970616","0.0-232.0","A2683ZVNWI119A","2022-05-27T04:27:08.906Z","task_switching-rhyme-same_different-phon_sim","","null","task_switching","null","training","<div style=""color:darkgreen; font-size:60px"">Well done!</div>","symbolcue_switch","","","","","","","","","","","","","","","","","","","","","",""
"","","","","","instructions","233","1978424","0.0-233.0","A2683ZVNWI119A","2022-05-27T04:27:08.906Z","task_switching-rhyme-same_different-phon_sim","[{""page_index"":0,""viewing_time"":7806.699999999255}]","7807.199999999255","task_switching","","","","","","","","","","","","","","","","","","","","","","","","","",""
"","","","","","survey-text","234","1983465","0.0-234.0","A2683ZVNWI119A","2022-05-27T04:27:08.906Z","task_switching-rhyme-same_different-phon_sim","","5035","task_switching","{""symbolcue_switch_ans"":""38""}","experiment","35","symbolcue_switch","38","true","add","","0","+","","","","","","","","","","","","","","","",""
"","","","","","survey-text","235","1987368","0.0-235.0","A2683ZVNWI119A","2022-05-27T04:27:08.906Z","task_switching-rhyme-same_different-phon_sim","","3900.600000000559","task_switching","{""symbolcue_switch_ans"":""10""}","experiment","13","symbolcue_switch","10","true","subtract","","1","-","","","","","","","","","","","","","","","",""
"","","","","","survey-text","236","1991649","0.0-236.0","A2683ZVNWI119A","2022-05-27T04:27:08.906Z","task_switching-rhyme-same_different-phon_sim","","4277","task_switching","{""symbolcue_switch_ans"":""93""}","experiment","90","symbolcue_switch","93","true","add","","2","+","","","","","","","","","","","","","","","",""
"","","","","","survey-text","237","1995016","0.0-237.0","A2683ZVNWI119A","2022-05-27T04:27:08.906Z","task_switching-rhyme-same_different-phon_sim","","3364.699999999255","task_switching","{""symbolcue_switch_ans"":""77""}","experiment","80","symbolcue_switch","77","true","subtract","","3","-","","","","","","","","","","","","","","","",""
"","","","","","survey-text","238","1999097","0.0-238.0","A2683ZVNWI119A","2022-05-27T04:27:08.906Z","task_switching-rhyme-same_different-phon_sim","","4077","task_switching","{""symbolcue_switch_ans"":""76""}","experiment","73","symbolcue_switch","76","true","add","","4","+","","","","","","","","","","","","","","","",""
"","","","","","survey-text","239","2002344","0.0-239.0","A2683ZVNWI119A","2022-05-27T04:27:08.906Z","task_switching-rhyme-same_different-phon_sim","","3243.2999999998137","task_switching","{""symbolcue_switch_ans"":""47""}","experiment","50","symbolcue_switch","47","true","subtract","","5","-","","","","","","","","","","","","","","","",""
"","","","","","survey-text","240","2007872","0.0-240.0","A2683ZVNWI119A","2022-05-27T04:27:08.906Z","task_switching-rhyme-same_different-phon_sim","","5525","task_switching","{""symbolcue_switch_ans"":""92""}","experiment","89","symbolcue_switch","92","true","add","","6","+","","","","","","","","","","","","","","","",""
"","","","","","survey-text","241","2012521","0.0-241.0","A2683ZVNWI119A","2022-05-27T04:27:08.906Z","task_switching-rhyme-same_different-phon_sim","","4644.799999999814","task_switching","{""symbolcue_switch_ans"":""17""}","experiment","20","symbolcue_switch","17","true","subtract","","7","-","","","","","","","","","","","","","","","",""
"","","","","","survey-text","242","2016513","0.0-242.0","A2683ZVNWI119A","2022-05-27T04:27:08.906Z","task_switching-rhyme-same_different-phon_sim","","3988.5999999996275","task_switching","{""symbolcue_switch_ans"":""46""}","experiment","43","symbolcue_switch","46","true","add","","8","+","","","","","","","","","","","","","","","",""
"","","","","","survey-text","243","2025104","0.0-243.0","A2683ZVNWI119A","2022-05-27T04:27:08.906Z","task_switching-rhyme-same_different-phon_sim","","8586.299999999814","task_switching","{""symbolcue_switch_ans"":""69""}","experiment","72","symbolcue_switch","69","true","subtract","","9","-","","","","","","","","","","","","","","","",""
"","","","","","survey-text","244","2029056","0.0-244.0","A2683ZVNWI119A","2022-05-27T04:27:08.906Z","task_switching-rhyme-same_different-phon_sim","","3945.5","task_switching","{""symbolcue_switch_ans"":""64""}","experiment","61","symbolcue_switch","64","true","add","","10","+","","","","","","","","","","","","","","","",""
"","","","","","survey-text","245","2035224","0.0-245.0","A2683ZVNWI119A","2022-05-27T04:27:08.906Z","task_switching-rhyme-same_different-phon_sim","","6165.200000000186","task_switching","{""symbolcue_switch_ans"":""68""}","experiment","71","symbolcue_switch","68","true","subtract","","11","-","","","","","","","","","","","","","","","",""
"","","","","","survey-text","246","2039776","0.0-246.0","A2683ZVNWI119A","2022-05-27T04:27:08.906Z","task_switching-rhyme-same_different-phon_sim","","4548.799999999814","task_switching","{""symbolcue_switch_ans"":""71""}","experiment","78","symbolcue_switch","71","false","add","","12","+","","","","","","","","","","","","","","","",""
"","","","","","survey-text","247","2050928","0.0-247.0","A2683ZVNWI119A","2022-05-27T04:27:08.906Z","task_switching-rhyme-same_different-phon_sim","","11149.100000000559","task_switching","{""symbolcue_switch_ans"":""85""}","experiment","88","symbolcue_switch","85","true","subtract","","13","-","","","","","","","","","","","","","","","",""
"","","","","","survey-text","248","2054936","0.0-248.0","A2683ZVNWI119A","2022-05-27T04:27:08.906Z","task_switching-rhyme-same_different-phon_sim","","4004.4000000003725","task_switching","{""symbolcue_switch_ans"":""60""}","experiment","57","symbolcue_switch","60","true","add","","14","+","","","","","","","","","","","","","","","",""
"","","","","","survey-text","249","2059688","0.0-249.0","A2683ZVNWI119A","2022-05-27T04:27:08.906Z","task_switching-rhyme-same_different-phon_sim","","4749","task_switching","{""symbolcue_switch_ans"":""81""}","experiment","84","symbolcue_switch","81","true","subtract","","15","-","","","","","","","","","","","","","","","",""
"","","","","","survey-text","250","2065736","0.0-250.0","A2683ZVNWI119A","2022-05-27T04:27:08.906Z","task_switching-rhyme-same_different-phon_sim","","6044.799999999814","task_switching","{""symbolcue_switch_ans"":""43""}","experiment","40","symbolcue_switch","43","true","add","","16","+","","","","","","","","","","","","","","","",""
"","","","","","survey-text","251","2078314","0.0-251.0","A2683ZVNWI119A","2022-05-27T04:27:08.906Z","task_switching-rhyme-same_different-phon_sim","","12574.200000000186","task_switching","{""symbolcue_switch_ans"":""84""}","experiment","87","symbolcue_switch","84","true","subtract","","17","-","","","","","","","","","","","","","","","",""
"","","","","","survey-text","252","2082336","0.0-252.0","A2683ZVNWI119A","2022-05-27T04:27:08.906Z","task_switching-rhyme-same_different-phon_sim","","4017.2999999998137","task_switching","{""symbolcue_switch_ans"":""30""}","experiment","27","symbolcue_switch","30","true","add","","18","+","","","","","","","","","","","","","","","",""
"","","","","","survey-text","253","2094304","0.0-253.0","A2683ZVNWI119A","2022-05-27T04:27:08.906Z","task_switching-rhyme-same_different-phon_sim","","11965","task_switching","{""symbolcue_switch_ans"":""28""}","experiment","31","symbolcue_switch","28","true","subtract","","19","-","","","","","","","","","","","","","","","",""
"","","","","","survey-text","254","2098625","0.0-254.0","A2683ZVNWI119A","2022-05-27T04:27:08.906Z","task_switching-rhyme-same_different-phon_sim","","4316.200000000186","task_switching","{""symbolcue_switch_ans"":""29""}","experiment","26","symbolcue_switch","29","true","add","","20","+","","","","","","","","","","","","","","","",""
"","","","","","survey-text","255","2106536","0.0-255.0","A2683ZVNWI119A","2022-05-27T04:27:08.906Z","task_switching-rhyme-same_different-phon_sim","","7908.5999999996275","task_switching","{""symbolcue_switch_ans"":""93""}","experiment","96","symbolcue_switch","93","true","subtract","","21","-","","","","","","","","","","","","","","","",""
"","","","","","survey-text","256","2113576","0.0-256.0","A2683ZVNWI119A","2022-05-27T04:27:08.906Z","task_switching-rhyme-same_different-phon_sim","","7036.5","task_switching","{""symbolcue_switch_ans"":""98""}","experiment","95","symbolcue_switch","98","true","add","","22","+","","","","","","","","","","","","","","","",""
"","","","","","survey-text","257","2117488","0.0-257.0","A2683ZVNWI119A","2022-05-27T04:27:08.906Z","task_switching-rhyme-same_different-phon_sim","","3908.899999999441","task_switching","{""symbolcue_switch_ans"":""38""}","experiment","41","symbolcue_switch","38","true","subtract","","23","-","","","","","","","","","","","","","","","",""
"","","","","","survey-text","258","2121025","0.0-258.0","A2683ZVNWI119A","2022-05-27T04:27:08.906Z","task_switching-rhyme-same_different-phon_sim","","3532.399999999441","task_switching","{""symbolcue_switch_ans"":""57""}","experiment","54","symbolcue_switch","57","true","add","","24","+","","","","","","","","","","","","","","","",""
"","","","","","survey-text","259","2125424","0.0-259.0","A2683ZVNWI119A","2022-05-27T04:27:08.906Z","task_switching-rhyme-same_different-phon_sim","","4393.5","task_switching","{""symbolcue_switch_ans"":""41""}","experiment","44","symbolcue_switch","41","true","subtract","","25","-","","","","","","","","","","","","","","","",""
"","","","","","survey-text","260","2129248","0.0-260.0","A2683ZVNWI119A","2022-05-27T04:27:08.906Z","task_switching-rhyme-same_different-phon_sim","","3821.2000000001863","task_switching","{""symbolcue_switch_ans"":""24""}","experiment","21","symbolcue_switch","24","true","add","","26","+","","","","","","","","","","","","","","","",""
"","","","","","survey-text","261","2136408","0.0-261.0","A2683ZVNWI119A","2022-05-27T04:27:08.906Z","task_switching-rhyme-same_different-phon_sim","","7156.9000000003725","task_switching","{""symbolcue_switch_ans"":""35""}","experiment","38","symbolcue_switch","35","true","subtract","","27","-","","","","","","","","","","","","","","","",""
"","","","","","survey-text","262","2142024","0.0-262.0","A2683ZVNWI119A","2022-05-27T04:27:08.906Z","task_switching-rhyme-same_different-phon_sim","","5612.299999999814","task_switching","{""symbolcue_switch_ans"":""55""}","experiment","58","symbolcue_switch","55","false","add","","28","+","","","","","","","","","","","","","","","",""
"","","","","","survey-text","263","2149896","0.0-263.0","A2683ZVNWI119A","2022-05-27T04:27:08.906Z","task_switching-rhyme-same_different-phon_sim","","7866.5","task_switching","{""symbolcue_switch_ans"":""15""}","experiment","18","symbolcue_switch","15","true","subtract","","29","-","","","","","","","","","","","","","","","",""
"","","","","","survey-multi-choice","264","2155880","0.0-264.0","A2683ZVNWI119A","2022-05-27T04:27:08.906Z","task_switching-rhyme-same_different-phon_sim","","5981.600000000559","task_switching","{""Q0"":""No""}","","","","","","","","","","[0]","No","","","","","","","","","","","","","",""
"","","","","","survey-text","265","2159680","0.0-265.0","A2683ZVNWI119A","2022-05-27T04:27:08.906Z","task_switching-rhyme-same_different-phon_sim","","3791.4000000003725","task_switching","{""Q0"":""no""}","","","","","","","","","","","","no","","","","","","","","","","","","",""
"","","","","","instructions","266","2162024","0.0-266.0","A2683ZVNWI119A","2022-05-27T04:27:08.906Z","task_switching-rhyme-same_different-phon_sim","[{""page_index"":0,""viewing_time"":2342.2000000001863}]","2342.7999999998137","task_switching","","","","","","","","","","","","","","","","","","","","","","","","","",""
"","","","","","instructions","267","2204088","0.0-267.0","A2683ZVNWI119A","2022-05-27T04:27:08.906Z","task_switching-rhyme-same_different-phon_sim","[{""page_index"":0,""viewing_time"":42062.39999999944}]","42062.799999999814","rhyme","","","","","","","","","","","","","","","","","","","","","","","","","",""
"","","","","","html-keyboard-response","268","2204850","0.0-268.0-0.0","A2683ZVNWI119A","2022-05-27T04:27:08.906Z","task_switching-rhyme-same_different-phon_sim","","null","rhyme","null","","<div style=""font-size:60px;"">+</div>","","","","","","","","","","","750","","","","","","","","","","","",""
"","","","","","html-keyboard-response","269","2205353","0.0-268.0-1.0","A2683ZVNWI119A","2022-05-27T04:27:08.906Z","task_switching-rhyme-same_different-phon_sim","","null","rhyme","null","","<img src=""square.png"" width=""306"" height=""306"" style=""position: fixed;left:14%;top:30%""><img src=""square.png"" width=""306"" height=""306"" style=""position: fixed;left:64%;top:30%"">","","","","","","","","","","","","","","","","","","","","","","",""
"","","","","","categorize-html","270","2210548","0.0-268.0-2.0","A2683ZVNWI119A","2022-05-27T04:27:08.906Z","task_switching-rhyme-same_different-phon_sim","","4189.5","rhyme","arrowdown","training","<div style=""border: 3px solid #000000; position: fixed;left:14%;top:30%""><img src=""visual/mouse.png"" width=""300""></div><div style=""border: 3px solid #000000; position: fixed;left:64%;top:30%""><img src=""visual/dress.png"" width=""300""></div>","","","true","","","","","","","","","visual/mouse.png","visual/dress.png","ArrowDown","NA","","","","","","","",""
"","","","","","html-keyboard-response","271","2211302","0.0-268.0-0.1","A2683ZVNWI119A","2022-05-27T04:27:08.906Z","task_switching-rhyme-same_different-phon_sim","","null","rhyme","null","","<div style=""font-size:60px;"">+</div>","","","","","","","","","","","750","","","","","","","","","","","",""
"","","","","","html-keyboard-response","272","2211804","0.0-268.0-1.1","A2683ZVNWI119A","2022-05-27T04:27:08.906Z","task_switching-rhyme-same_different-phon_sim","","null","rhyme","null","","<img src=""square.png"" width=""306"" height=""306"" style=""position: fixed;left:14%;top:30%""><img src=""square.png"" width=""306"" height=""306"" style=""position: fixed;left:64%;top:30%"">","","","","","","","","","","","","","","","","","","","","","","",""
"","","","","","categorize-html","273","2214048","0.0-268.0-2.1","A2683ZVNWI119A","2022-05-27T04:27:08.906Z","task_switching-rhyme-same_different-phon_sim","","1239","rhyme","arrowdown","training","<div style=""border: 3px solid #000000; position: fixed;left:14%;top:30%""><img src=""visual/house.png"" width=""300""></div><div style=""border: 3px solid #000000; position: fixed;left:64%;top:30%""><img src=""visual/mouse.png"" width=""300""></div>","","","false","","","","","","","","","visual/house.png","visual/mouse.png","ArrowUp","NA","","","","","","","",""
"","","","","","html-keyboard-response","274","2214301","0.0-268.0-0.2","A2683ZVNWI119A","2022-05-27T04:27:08.906Z","task_switching-rhyme-same_different-phon_sim","","null","rhyme","null","","<div style=""font-size:60px;"">+</div>","","","","","","","","","","","250","","","","","","","","","","","",""
"","","","","","html-keyboard-response","275","2214815","0.0-268.0-1.2","A2683ZVNWI119A","2022-05-27T04:27:08.906Z","task_switching-rhyme-same_different-phon_sim","","null","rhyme","null","","<img src=""square.png"" width=""306"" height=""306"" style=""position: fixed;left:14%;top:30%""><img src=""square.png"" width=""306"" height=""306"" style=""position: fixed;left:64%;top:30%"">","","","","","","","","","","","","","","","","","","","","","","",""
"","","","","","categorize-html","276","2217654","0.0-268.0-2.2","A2683ZVNWI119A","2022-05-27T04:27:08.906Z","task_switching-rhyme-same_different-phon_sim","","1822.5","rhyme","arrowdown","training","<div style=""border: 3px solid #000000; position: fixed;left:14%;top:30%""><img src=""visual/dress.png"" width=""300""></div><div style=""border: 3px solid #000000; position: fixed;left:64%;top:30%""><img src=""visual/chess.png"" width=""300""></div>","","","false","","","","","","","","","visual/dress.png","visual/chess.png","ArrowUp","NA","","","","","","","",""
"","","","","","html-keyboard-response","277","2218661","0.0-268.0-0.3","A2683ZVNWI119A","2022-05-27T04:27:08.906Z","task_switching-rhyme-same_different-phon_sim","","null","rhyme","null","","<div style=""font-size:60px;"">+</div>","","","","","","","","","","","1000","","","","","","","","","","","",""
"","","","","","html-keyboard-response","278","2219170","0.0-268.0-1.3","A2683ZVNWI119A","2022-05-27T04:27:08.906Z","task_switching-rhyme-same_different-phon_sim","","null","rhyme","null","","<img src=""square.png"" width=""306"" height=""306"" style=""position: fixed;left:14%;top:30%""><img src=""square.png"" width=""306"" height=""306"" style=""position: fixed;left:64%;top:30%"">","","","","","","","","","","","","","","","","","","","","","","",""
"","","","","","categorize-html","279","2222161","0.0-268.0-2.3","A2683ZVNWI119A","2022-05-27T04:27:08.906Z","task_switching-rhyme-same_different-phon_sim","","1986.5999999996275","rhyme","arrowdown","training","<div style=""border: 3px solid #000000; position: fixed;left:14%;top:30%""><img src=""visual/chess.png"" width=""300""></div><div style=""border: 3px solid #000000; position: fixed;left:64%;top:30%""><img src=""visual/suit.png"" width=""300""></div>","","","true","","","","","","","","","visual/chess.png","visual/suit.png","ArrowDown","NA","","","","","","","",""
"","","","","","instructions","280","2225489","0.0-269.0","A2683ZVNWI119A","2022-05-27T04:27:08.906Z","task_switching-rhyme-same_different-phon_sim","[{""page_index"":0,""viewing_time"":3326.2000000001863}]","3326.5999999996275","","","","","","","","","","","","","","","","","","","","","","","","","","",""
"","","","","","html-keyboard-response","281","2225743","0.0-270.0-0.0","A2683ZVNWI119A","2022-05-27T04:27:08.906Z","task_switching-rhyme-same_different-phon_sim","","null","rhyme","null","","<div style=""font-size:60px;"">+</div>","","","","","","","","","","","250","","","","","","","","","","","",""
"","","","","","html-keyboard-response","282","2226245","0.0-270.0-1.0","A2683ZVNWI119A","2022-05-27T04:27:08.906Z","task_switching-rhyme-same_different-phon_sim","","null","rhyme","null","","<img src=""square.png"" width=""306"" height=""306"" style=""position: fixed;left:14%;top:30%""><img src=""square.png"" width=""306"" height=""306"" style=""position: fixed;left:64%;top:30%"">","","","","","","","","","","","","","","","","","","","","","","",""
"","","","","","html-keyboard-response","283","2228187","0.0-270.0-2.0","A2683ZVNWI119A","2022-05-27T04:27:08.906Z","task_switching-rhyme-same_different-phon_sim","","1939.6000000005588","rhyme","arrowup","experiment","<div style=""border: 3px solid #000000; position: fixed;left:14%;top:30%""><img src=""visual/chair.png"" width=""300""></div><div style=""border: 3px solid #000000; position: fixed;left:64%;top:30%""><img src=""visual/pear.png"" width=""300""></div>","","","true","","","","","","","","","visual/chair.png","visual/pear.png","ArrowUp","non-ortho","","","","","","","",""
"","","","","","html-keyboard-response","284","2228443","0.0-270.0-0.1","A2683ZVNWI119A","2022-05-27T04:27:08.906Z","task_switching-rhyme-same_different-phon_sim","","null","rhyme","null","","<div style=""font-size:60px;"">+</div>","","","","","","","","","","","250","","","","","","","","","","","",""
"","","","","","html-keyboard-response","285","2228950","0.0-270.0-1.1","A2683ZVNWI119A","2022-05-27T04:27:08.906Z","task_switching-rhyme-same_different-phon_sim","","null","rhyme","null","","<img src=""square.png"" width=""306"" height=""306"" style=""position: fixed;left:14%;top:30%""><img src=""square.png"" width=""306"" height=""306"" style=""position: fixed;left:64%;top:30%"">","","","","","","","","","","","","","","","","","","","","","","",""
"","","","","","html-keyboard-response","286","2231214","0.0-270.0-2.1","A2683ZVNWI119A","2022-05-27T04:27:08.906Z","task_switching-rhyme-same_different-phon_sim","","2262.100000000559","rhyme","arrowdown","experiment","<div style=""border: 3px solid #000000; position: fixed;left:14%;top:30%""><img src=""visual/sock.png"" width=""300""></div><div style=""border: 3px solid #000000; position: fixed;left:64%;top:30%""><img src=""visual/clock.png"" width=""300""></div>","","","false","","","","","","","","","visual/sock.png","visual/clock.png","ArrowUp","ortho","","","","","","","",""
"","","","","","html-keyboard-response","287","2231466","0.0-270.0-0.2","A2683ZVNWI119A","2022-05-27T04:27:08.906Z","task_switching-rhyme-same_different-phon_sim","","null","rhyme","null","","<div style=""font-size:60px;"">+</div>","","","","","","","","","","","250","","","","","","","","","","","",""
"","","","","","html-keyboard-response","288","2231973","0.0-270.0-1.2","A2683ZVNWI119A","2022-05-27T04:27:08.906Z","task_switching-rhyme-same_different-phon_sim","","null","rhyme","null","","<img src=""square.png"" width=""306"" height=""306"" style=""position: fixed;left:14%;top:30%""><img src=""square.png"" width=""306"" height=""306"" style=""position: fixed;left:64%;top:30%"">","","","","","","","","","","","","","","","","","","","","","","",""
"","","","","","html-keyboard-response","289","2233658","0.0-270.0-2.2","A2683ZVNWI119A","2022-05-27T04:27:08.906Z","task_switching-rhyme-same_different-phon_sim","","1683.800000000745","rhyme","arrowup","experiment","<div style=""border: 3px solid #000000; position: fixed;left:14%;top:30%""><img src=""visual/bear.png"" width=""300""></div><div style=""border: 3px solid #000000; position: fixed;left:64%;top:30%""><img src=""visual/hair.png"" width=""300""></div>","","","true","","","","","","","","","visual/bear.png","visual/hair.png","ArrowUp","non-ortho","","","","","","","",""
