"success","timeout","failed_images","failed_audio","failed_video","trial_type","trial_index","time_elapsed","internal_node_id","worker_id","start_time","experiment_order","view_history","rt","experiment","stimulus","response","wait_time","correct","phase","image_1","image_2","cor_key","type","question_order","talk_out_loud","strategy_free_ans","word_1","word_2","word_3","word_4","word_5","original_word_set","response_1","response_2","response_3","response_4","response_5","condition","answer","operation","color_cue","trial_no","symbol_cue","judgment_type","stim_1","stim_2","inverted","true_pos","true_neg","false_neg","false_pos"
"true","false","[]","[]","[]","preload","0","4487","0.0-0.0","A15T9HDPHV3X7Q","2022-05-19T02:18:12.889Z","rhyme-phon_sim-task_switching-same_different","","","","","","","","","","","","","","","","","","","","","","","","","","","","","","","","","","","","","","","",""
"","","","","","instructions","1","6554","0.0-1.0","A15T9HDPHV3X7Q","2022-05-19T02:18:12.889Z","rhyme-phon_sim-task_switching-same_different","[{""page_index"":0,""viewing_time"":2066}]","2066.0999999046326","","","","","","","","","","","","","","","","","","","","","","","","","","","","","","","","","","","","","",""
"true","","","","","fullscreen","2","8866","0.0-2.0","A15T9HDPHV3X7Q","2022-05-19T02:18:12.889Z","rhyme-phon_sim-task_switching-same_different","","","","","","","","","","","","","","","","","","","","","","","","","","","","","","","","","","","","","","","",""
"","","","","","instructions","3","16921","0.0-3.0","A15T9HDPHV3X7Q","2022-05-19T02:18:12.889Z","rhyme-phon_sim-task_switching-same_different","[{""page_index"":0,""viewing_time"":8053.900000095367}]","8054.200000047684","rhyme","","","","","","","","","","","","","","","","","","","","","","","","","","","","","","","","","","","","",""
"","","","","","html-keyboard-response","4","17435","0.0-4.0-0.0","A15T9HDPHV3X7Q","2022-05-19T02:18:12.889Z","rhyme-phon_sim-task_switching-same_different","","null","rhyme","<div style=""font-size:60px;"">+</div>","null","500","","","","","","","","","","","","","","","","","","","","","","","","","","","","","","","","","",""
"","","","","","html-keyboard-response","5","17941","0.0-4.0-1.0","A15T9HDPHV3X7Q","2022-05-19T02:18:12.889Z","rhyme-phon_sim-task_switching-same_different","","null","rhyme","<img src=""square.png"" width=""306"" height=""306"" style=""position: fixed;left:14%;top:30%""><img src=""square.png"" width=""306"" height=""306"" style=""position: fixed;left:64%;top:30%"">","null","","","","","","","","","","","","","","","","","","","","","","","","","","","","","","","","","","",""
"","","","","","categorize-html","6","21387","0.0-4.0-2.0","A15T9HDPHV3X7Q","2022-05-19T02:18:12.889Z","rhyme-phon_sim-task_switching-same_different","","2430.2000000476837","rhyme","<div style=""border: 3px solid #000000; position: fixed;left:14%;top:30%""><img src=""visual/dress.png"" width=""300""></div><div style=""border: 3px solid #000000; position: fixed;left:64%;top:30%""><img src=""visual/chess.png"" width=""300""></div>","arrowup","","true","training","visual/dress.png","visual/chess.png","ArrowUp","NA","","","","","","","","","","","","","","","","","","","","","","","","","","","",""
"","","","","","html-keyboard-response","7","21645","0.0-4.0-0.1","A15T9HDPHV3X7Q","2022-05-19T02:18:12.889Z","rhyme-phon_sim-task_switching-same_different","","null","rhyme","<div style=""font-size:60px;"">+</div>","null","250","","","","","","","","","","","","","","","","","","","","","","","","","","","","","","","","","",""
"","","","","","html-keyboard-response","8","22149","0.0-4.0-1.1","A15T9HDPHV3X7Q","2022-05-19T02:18:12.889Z","rhyme-phon_sim-task_switching-same_different","","null","rhyme","<img src=""square.png"" width=""306"" height=""306"" style=""position: fixed;left:14%;top:30%""><img src=""square.png"" width=""306"" height=""306"" style=""position: fixed;left:64%;top:30%"">","null","","","","","","","","","","","","","","","","","","","","","","","","","","","","","","","","","","",""
"","","","","","categorize-html","9","26803","0.0-4.0-2.1","A15T9HDPHV3X7Q","2022-05-19T02:18:12.889Z","rhyme-phon_sim-task_switching-same_different","","3637","rhyme","<div style=""border: 3px solid #000000; position: fixed;left:14%;top:30%""><img src=""visual/house.png"" width=""300""></div><div style=""border: 3px solid #000000; position: fixed;left:64%;top:30%""><img src=""visual/mouse.png"" width=""300""></div>","arrowup","","true","training","visual/house.png","visual/mouse.png","ArrowUp","NA","","","","","","","","","","","","","","","","","","","","","","","","","","","",""
"","","","","","html-keyboard-response","10","27320","0.0-4.0-0.2","A15T9HDPHV3X7Q","2022-05-19T02:18:12.889Z","rhyme-phon_sim-task_switching-same_different","","null","rhyme","<div style=""font-size:60px;"">+</div>","null","500","","","","","","","","","","","","","","","","","","","","","","","","","","","","","","","","","",""
"","","","","","html-keyboard-response","11","27835","0.0-4.0-1.2","A15T9HDPHV3X7Q","2022-05-19T02:18:12.889Z","rhyme-phon_sim-task_switching-same_different","","null","rhyme","<img src=""square.png"" width=""306"" height=""306"" style=""position: fixed;left:14%;top:30%""><img src=""square.png"" width=""306"" height=""306"" style=""position: fixed;left:64%;top:30%"">","null","","","","","","","","","","","","","","","","","","","","","","","","","","","","","","","","","","",""
"","","","","","categorize-html","12","30368","0.0-4.0-2.2","A15T9HDPHV3X7Q","2022-05-19T02:18:12.889Z","rhyme-phon_sim-task_switching-same_different","","1518.2999999523163","rhyme","<div style=""border: 3px solid #000000; position: fixed;left:14%;top:30%""><img src=""visual/mouse.png"" width=""300""></div><div style=""border: 3px solid #000000; position: fixed;left:64%;top:30%""><img src=""visual/dress.png"" width=""300""></div>","arrowdown","","true","training","visual/mouse.png","visual/dress.png","ArrowDown","NA","","","","","","","","","","","","","","","","","","","","","","","","","","","",""
"","","","","","html-keyboard-response","13","31373","0.0-4.0-0.3","A15T9HDPHV3X7Q","2022-05-19T02:18:12.889Z","rhyme-phon_sim-task_switching-same_different","","null","rhyme","<div style=""font-size:60px;"">+</div>","null","1000","","","","","","","","","","","","","","","","","","","","","","","","","","","","","","","","","",""
"","","","","","html-keyboard-response","14","31875","0.0-4.0-1.3","A15T9HDPHV3X7Q","2022-05-19T02:18:12.889Z","rhyme-phon_sim-task_switching-same_different","","null","rhyme","<img src=""square.png"" width=""306"" height=""306"" style=""position: fixed;left:14%;top:30%""><img src=""square.png"" width=""306"" height=""306"" style=""position: fixed;left:64%;top:30%"">","null","","","","","","","","","","","","","","","","","","","","","","","","","","","","","","","","","","",""
"","","","","","categorize-html","15","34447","0.0-4.0-2.3","A15T9HDPHV3X7Q","2022-05-19T02:18:12.889Z","rhyme-phon_sim-task_switching-same_different","","1565.5","rhyme","<div style=""border: 3px solid #000000; position: fixed;left:14%;top:30%""><img src=""visual/chess.png"" width=""300""></div><div style=""border: 3px solid #000000; position: fixed;left:64%;top:30%""><img src=""visual/suit.png"" width=""300""></div>","arrowup","","false","training","visual/chess.png","visual/suit.png","ArrowDown","NA","","","","","","","","","","","","","","","","","","","","","","","","","","","",""
"","","","","","instructions","16","36705","0.0-5.0","A15T9HDPHV3X7Q","2022-05-19T02:18:12.889Z","rhyme-phon_sim-task_switching-same_different","[{""page_index"":0,""viewing_time"":2257.600000143051}]","2257.7000000476837","","","","","","","","","","","","","","","","","","","","","","","","","","","","","","","","","","","","","",""
"","","","","","html-keyboard-response","17","36960","0.0-6.0-0.0","A15T9HDPHV3X7Q","2022-05-19T02:18:12.889Z","rhyme-phon_sim-task_switching-same_different","","null","rhyme","<div style=""font-size:60px;"">+</div>","null","250","","","","","","","","","","","","","","","","","","","","","","","","","","","","","","","","","",""
"","","","","","html-keyboard-response","18","37478","0.0-6.0-1.0","A15T9HDPHV3X7Q","2022-05-19T02:18:12.889Z","rhyme-phon_sim-task_switching-same_different","","null","rhyme","<img src=""square.png"" width=""306"" height=""306"" style=""position: fixed;left:14%;top:30%""><img src=""square.png"" width=""306"" height=""306"" style=""position: fixed;left:64%;top:30%"">","null","","","","","","","","","","","","","","","","","","","","","","","","","","","","","","","","","","",""
"","","","","","html-keyboard-response","19","39963","0.0-6.0-2.0","A15T9HDPHV3X7Q","2022-05-19T02:18:12.889Z","rhyme-phon_sim-task_switching-same_different","","2483.5","rhyme","<div style=""border: 3px solid #000000; position: fixed;left:14%;top:30%""><img src=""visual/bin.png"" width=""300""></div><div style=""border: 3px solid #000000; position: fixed;left:64%;top:30%""><img src=""visual/chin.png"" width=""300""></div>","arrowdown","","false","experiment","visual/bin.png","visual/chin.png","ArrowUp","ortho","","","","","","","","","","","","","","","","","","","","","","","","","","","",""
"","","","","","html-keyboard-response","20","40470","0.0-6.0-0.1","A15T9HDPHV3X7Q","2022-05-19T02:18:12.889Z","rhyme-phon_sim-task_switching-same_different","","null","rhyme","<div style=""font-size:60px;"">+</div>","null","500","","","","","","","","","","","","","","","","","","","","","","","","","","","","","","","","","",""
"","","","","","html-keyboard-response","21","40972","0.0-6.0-1.1","A15T9HDPHV3X7Q","2022-05-19T02:18:12.889Z","rhyme-phon_sim-task_switching-same_different","","null","rhyme","<img src=""square.png"" width=""306"" height=""306"" style=""position: fixed;left:14%;top:30%""><img src=""square.png"" width=""306"" height=""306"" style=""position: fixed;left:64%;top:30%"">","null","","","","","","","","","","","","","","","","","","","","","","","","","","","","","","","","","","",""
"","","","","","html-keyboard-response","22","42512","0.0-6.0-2.1","A15T9HDPHV3X7Q","2022-05-19T02:18:12.889Z","rhyme-phon_sim-task_switching-same_different","","1538.5999999046326","rhyme","<div style=""border: 3px solid #000000; position: fixed;left:14%;top:30%""><img src=""visual/sock.png"" width=""300""></div><div style=""border: 3px solid #000000; position: fixed;left:64%;top:30%""><img src=""visual/clock.png"" width=""300""></div>","arrowup","","true","experiment","visual/sock.png","visual/clock.png","ArrowUp","ortho","","","","","","","","","","","","","","","","","","","","","","","","","","","",""
"","","","","","html-keyboard-response","23","43266","0.0-6.0-0.2","A15T9HDPHV3X7Q","2022-05-19T02:18:12.889Z","rhyme-phon_sim-task_switching-same_different","","null","rhyme","<div style=""font-size:60px;"">+</div>","null","750","","","","","","","","","","","","","","","","","","","","","","","","","","","","","","","","","",""
"","","","","","html-keyboard-response","24","43782","0.0-6.0-1.2","A15T9HDPHV3X7Q","2022-05-19T02:18:12.889Z","rhyme-phon_sim-task_switching-same_different","","null","rhyme","<img src=""square.png"" width=""306"" height=""306"" style=""position: fixed;left:14%;top:30%""><img src=""square.png"" width=""306"" height=""306"" style=""position: fixed;left:64%;top:30%"">","null","","","","","","","","","","","","","","","","","","","","","","","","","","","","","","","","","","",""
"","","","","","html-keyboard-response","25","46158","0.0-6.0-2.2","A15T9HDPHV3X7Q","2022-05-19T02:18:12.889Z","rhyme-phon_sim-task_switching-same_different","","2374.9000000953674","rhyme","<div style=""border: 3px solid #000000; position: fixed;left:14%;top:30%""><img src=""visual/cat.png"" width=""300""></div><div style=""border: 3px solid #000000; position: fixed;left:64%;top:30%""><img src=""visual/sock.png"" width=""300""></div>","arrowdown","","true","experiment","visual/cat.png","visual/sock.png","ArrowDown","NR","","","","","","","","","","","","","","","","","","","","","","","","","","","",""
"","","","","","html-keyboard-response","26","46664","0.0-6.0-0.3","A15T9HDPHV3X7Q","2022-05-19T02:18:12.889Z","rhyme-phon_sim-task_switching-same_different","","null","rhyme","<div style=""font-size:60px;"">+</div>","null","500","","","","","","","","","","","","","","","","","","","","","","","","","","","","","","","","","",""
"","","","","","html-keyboard-response","27","47179","0.0-6.0-1.3","A15T9HDPHV3X7Q","2022-05-19T02:18:12.889Z","rhyme-phon_sim-task_switching-same_different","","null","rhyme","<img src=""square.png"" width=""306"" height=""306"" style=""position: fixed;left:14%;top:30%""><img src=""square.png"" width=""306"" height=""306"" style=""position: fixed;left:64%;top:30%"">","null","","","","","","","","","","","","","","","","","","","","","","","","","","","","","","","","","","",""
"","","","","","html-keyboard-response","28","49012","0.0-6.0-2.3","A15T9HDPHV3X7Q","2022-05-19T02:18:12.889Z","rhyme-phon_sim-task_switching-same_different","","1832","rhyme","<div style=""border: 3px solid #000000; position: fixed;left:14%;top:30%""><img src=""visual/shark.png"" width=""300""></div><div style=""border: 3px solid #000000; position: fixed;left:64%;top:30%""><img src=""visual/moon.png"" width=""300""></div>","arrowdown","","true","experiment","visual/shark.png","visual/moon.png","ArrowDown","NR","","","","","","","","","","","","","","","","","","","","","","","","","","","",""
"","","","","","html-keyboard-response","29","49278","0.0-6.0-0.4","A15T9HDPHV3X7Q","2022-05-19T02:18:12.889Z","rhyme-phon_sim-task_switching-same_different","","null","rhyme","<div style=""font-size:60px;"">+</div>","null","250","","","","","","","","","","","","","","","","","","","","","","","","","","","","","","","","","",""
"","","","","","html-keyboard-response","30","49782","0.0-6.0-1.4","A15T9HDPHV3X7Q","2022-05-19T02:18:12.889Z","rhyme-phon_sim-task_switching-same_different","","null","rhyme","<img src=""square.png"" width=""306"" height=""306"" style=""position: fixed;left:14%;top:30%""><img src=""square.png"" width=""306"" height=""306"" style=""position: fixed;left:64%;top:30%"">","null","","","","","","","","","","","","","","","","","","","","","","","","","","","","","","","","","","",""
"","","","","","html-keyboard-response","31","52144","0.0-6.0-2.4","A15T9HDPHV3X7Q","2022-05-19T02:18:12.889Z","rhyme-phon_sim-task_switching-same_different","","2361.0999999046326","rhyme","<div style=""border: 3px solid #000000; position: fixed;left:14%;top:30%""><img src=""visual/nail.png"" width=""300""></div><div style=""border: 3px solid #000000; position: fixed;left:64%;top:30%""><img src=""visual/whale.png"" width=""300""></div>","arrowup","","true","experiment","visual/nail.png","visual/whale.png","ArrowUp","non-ortho","","","","","","","","","","","","","","","","","","","","","","","","","","","",""
"","","","","","html-keyboard-response","32","52901","0.0-6.0-0.5","A15T9HDPHV3X7Q","2022-05-19T02:18:12.889Z","rhyme-phon_sim-task_switching-same_different","","null","rhyme","<div style=""font-size:60px;"">+</div>","null","750","","","","","","","","","","","","","","","","","","","","","","","","","","","","","","","","","",""
"","","","","","html-keyboard-response","33","53407","0.0-6.0-1.5","A15T9HDPHV3X7Q","2022-05-19T02:18:12.889Z","rhyme-phon_sim-task_switching-same_different","","null","rhyme","<img src=""square.png"" width=""306"" height=""306"" style=""position: fixed;left:14%;top:30%""><img src=""square.png"" width=""306"" height=""306"" style=""position: fixed;left:64%;top:30%"">","null","","","","","","","","","","","","","","","","","","","","","","","","","","","","","","","","","","",""
"","","","","","html-keyboard-response","34","55214","0.0-6.0-2.5","A15T9HDPHV3X7Q","2022-05-19T02:18:12.889Z","rhyme-phon_sim-task_switching-same_different","","1805.0999999046326","rhyme","<div style=""border: 3px solid #000000; position: fixed;left:14%;top:30%""><img src=""visual/flag.png"" width=""300""></div><div style=""border: 3px solid #000000; position: fixed;left:64%;top:30%""><img src=""visual/bag.png"" width=""300""></div>","arrowup","","true","experiment","visual/flag.png","visual/bag.png","ArrowUp","ortho","","","","","","","","","","","","","","","","","","","","","","","","","","","",""
"","","","","","html-keyboard-response","35","55720","0.0-6.0-0.6","A15T9HDPHV3X7Q","2022-05-19T02:18:12.889Z","rhyme-phon_sim-task_switching-same_different","","null","rhyme","<div style=""font-size:60px;"">+</div>","null","500","","","","","","","","","","","","","","","","","","","","","","","","","","","","","","","","","",""
"","","","","","html-keyboard-response","36","56236","0.0-6.0-1.6","A15T9HDPHV3X7Q","2022-05-19T02:18:12.889Z","rhyme-phon_sim-task_switching-same_different","","null","rhyme","<img src=""square.png"" width=""306"" height=""306"" style=""position: fixed;left:14%;top:30%""><img src=""square.png"" width=""306"" height=""306"" style=""position: fixed;left:64%;top:30%"">","null","","","","","","","","","","","","","","","","","","","","","","","","","","","","","","","","","","",""
"","","","","","html-keyboard-response","37","57735","0.0-6.0-2.6","A15T9HDPHV3X7Q","2022-05-19T02:18:12.889Z","rhyme-phon_sim-task_switching-same_different","","1496.9000000953674","rhyme","<div style=""border: 3px solid #000000; position: fixed;left:14%;top:30%""><img src=""visual/spoon.png"" width=""300""></div><div style=""border: 3px solid #000000; position: fixed;left:64%;top:30%""><img src=""visual/crab.png"" width=""300""></div>","arrowdown","","true","experiment","visual/spoon.png","visual/crab.png","ArrowDown","NR","","","","","","","","","","","","","","","","","","","","","","","","","","","",""
"","","","","","html-keyboard-response","38","58496","0.0-6.0-0.7","A15T9HDPHV3X7Q","2022-05-19T02:18:12.889Z","rhyme-phon_sim-task_switching-same_different","","null","rhyme","<div style=""font-size:60px;"">+</div>","null","750","","","","","","","","","","","","","","","","","","","","","","","","","","","","","","","","","",""
"","","","","","html-keyboard-response","39","59012","0.0-6.0-1.7","A15T9HDPHV3X7Q","2022-05-19T02:18:12.889Z","rhyme-phon_sim-task_switching-same_different","","null","rhyme","<img src=""square.png"" width=""306"" height=""306"" style=""position: fixed;left:14%;top:30%""><img src=""square.png"" width=""306"" height=""306"" style=""position: fixed;left:64%;top:30%"">","null","","","","","","","","","","","","","","","","","","","","","","","","","","","","","","","","","","",""
"","","","","","html-keyboard-response","40","60592","0.0-6.0-2.7","A15T9HDPHV3X7Q","2022-05-19T02:18:12.889Z","rhyme-phon_sim-task_switching-same_different","","1578.2000000476837","rhyme","<div style=""border: 3px solid #000000; position: fixed;left:14%;top:30%""><img src=""visual/chair.png"" width=""300""></div><div style=""border: 3px solid #000000; position: fixed;left:64%;top:30%""><img src=""visual/pear.png"" width=""300""></div>","arrowup","","true","experiment","visual/chair.png","visual/pear.png","ArrowUp","non-ortho","","","","","","","","","","","","","","","","","","","","","","","","","","","",""
"","","","","","html-keyboard-response","41","61356","0.0-6.0-0.8","A15T9HDPHV3X7Q","2022-05-19T02:18:12.889Z","rhyme-phon_sim-task_switching-same_different","","null","rhyme","<div style=""font-size:60px;"">+</div>","null","750","","","","","","","","","","","","","","","","","","","","","","","","","","","","","","","","","",""
"","","","","","html-keyboard-response","42","61859","0.0-6.0-1.8","A15T9HDPHV3X7Q","2022-05-19T02:18:12.889Z","rhyme-phon_sim-task_switching-same_different","","null","rhyme","<img src=""square.png"" width=""306"" height=""306"" style=""position: fixed;left:14%;top:30%""><img src=""square.png"" width=""306"" height=""306"" style=""position: fixed;left:64%;top:30%"">","null","","","","","","","","","","","","","","","","","","","","","","","","","","","","","","","","","","",""
"","","","","","html-keyboard-response","43","64960","0.0-6.0-2.8","A15T9HDPHV3X7Q","2022-05-19T02:18:12.889Z","rhyme-phon_sim-task_switching-same_different","","3097","rhyme","<div style=""border: 3px solid #000000; position: fixed;left:14%;top:30%""><img src=""visual/fly.png"" width=""300""></div><div style=""border: 3px solid #000000; position: fixed;left:64%;top:30%""><img src=""visual/plane.png"" width=""300""></div>","arrowdown","","true","experiment","visual/fly.png","visual/plane.png","ArrowDown","NR","","","","","","","","","","","","","","","","","","","","","","","","","","","",""
"","","","","","html-keyboard-response","44","65966","0.0-6.0-0.9","A15T9HDPHV3X7Q","2022-05-19T02:18:12.889Z","rhyme-phon_sim-task_switching-same_different","","null","rhyme","<div style=""font-size:60px;"">+</div>","null","1000","","","","","","","","","","","","","","","","","","","","","","","","","","","","","","","","","",""
"","","","","","html-keyboard-response","45","66468","0.0-6.0-1.9","A15T9HDPHV3X7Q","2022-05-19T02:18:12.889Z","rhyme-phon_sim-task_switching-same_different","","null","rhyme","<img src=""square.png"" width=""306"" height=""306"" style=""position: fixed;left:14%;top:30%""><img src=""square.png"" width=""306"" height=""306"" style=""position: fixed;left:64%;top:30%"">","null","","","","","","","","","","","","","","","","","","","","","","","","","","","","","","","","","","",""
"","","","","","html-keyboard-response","46","68432","0.0-6.0-2.9","A15T9HDPHV3X7Q","2022-05-19T02:18:12.889Z","rhyme-phon_sim-task_switching-same_different","","1960.0999999046326","rhyme","<div style=""border: 3px solid #000000; position: fixed;left:14%;top:30%""><img src=""visual/socks.png"" width=""300""></div><div style=""border: 3px solid #000000; position: fixed;left:64%;top:30%""><img src=""visual/fox.png"" width=""300""></div>","arrowup","","true","experiment","visual/socks.png","visual/fox.png","ArrowUp","non-ortho","","","","","","","","","","","","","","","","","","","","","","","","","","","",""
"","","","","","html-keyboard-response","47","68943","0.0-6.0-0.10","A15T9HDPHV3X7Q","2022-05-19T02:18:12.889Z","rhyme-phon_sim-task_switching-same_different","","null","rhyme","<div style=""font-size:60px;"">+</div>","null","500","","","","","","","","","","","","","","","","","","","","","","","","","","","","","","","","","",""
"","","","","","html-keyboard-response","48","69456","0.0-6.0-1.10","A15T9HDPHV3X7Q","2022-05-19T02:18:12.889Z","rhyme-phon_sim-task_switching-same_different","","null","rhyme","<img src=""square.png"" width=""306"" height=""306"" style=""position: fixed;left:14%;top:30%""><img src=""square.png"" width=""306"" height=""306"" style=""position: fixed;left:64%;top:30%"">","null","","","","","","","","","","","","","","","","","","","","","","","","","","","","","","","","","","",""
"","","","","","html-keyboard-response","49","71664","0.0-6.0-2.10","A15T9HDPHV3X7Q","2022-05-19T02:18:12.889Z","rhyme-phon_sim-task_switching-same_different","","2204","rhyme","<div style=""border: 3px solid #000000; position: fixed;left:14%;top:30%""><img src=""visual/wheel.png"" width=""300""></div><div style=""border: 3px solid #000000; position: fixed;left:64%;top:30%""><img src=""visual/seal.png"" width=""300""></div>","arrowup","","true","experiment","visual/wheel.png","visual/seal.png","ArrowUp","non-ortho","","","","","","","","","","","","","","","","","","","","","","","","","","","",""
"","","","","","html-keyboard-response","50","72178","0.0-6.0-0.11","A15T9HDPHV3X7Q","2022-05-19T02:18:12.889Z","rhyme-phon_sim-task_switching-same_different","","null","rhyme","<div style=""font-size:60px;"">+</div>","null","500","","","","","","","","","","","","","","","","","","","","","","","","","","","","","","","","","",""
"","","","","","html-keyboard-response","51","72695","0.0-6.0-1.11","A15T9HDPHV3X7Q","2022-05-19T02:18:12.889Z","rhyme-phon_sim-task_switching-same_different","","null","rhyme","<img src=""square.png"" width=""306"" height=""306"" style=""position: fixed;left:14%;top:30%""><img src=""square.png"" width=""306"" height=""306"" style=""position: fixed;left:64%;top:30%"">","null","","","","","","","","","","","","","","","","","","","","","","","","","","","","","","","","","","",""
"","","","","","html-keyboard-response","52","74565","0.0-6.0-2.11","A15T9HDPHV3X7Q","2022-05-19T02:18:12.889Z","rhyme-phon_sim-task_switching-same_different","","1867.5","rhyme","<div style=""border: 3px solid #000000; position: fixed;left:14%;top:30%""><img src=""visual/egg.png"" width=""300""></div><div style=""border: 3px solid #000000; position: fixed;left:64%;top:30%""><img src=""visual/ring.png"" width=""300""></div>","arrowdown","","true","experiment","visual/egg.png","visual/ring.png","ArrowDown","NR","","","","","","","","","","","","","","","","","","","","","","","","","","","",""
"","","","","","html-keyboard-response","53","75078","0.0-6.0-0.12","A15T9HDPHV3X7Q","2022-05-19T02:18:12.889Z","rhyme-phon_sim-task_switching-same_different","","null","rhyme","<div style=""font-size:60px;"">+</div>","null","500","","","","","","","","","","","","","","","","","","","","","","","","","","","","","","","","","",""
"","","","","","html-keyboard-response","54","75579","0.0-6.0-1.12","A15T9HDPHV3X7Q","2022-05-19T02:18:12.889Z","rhyme-phon_sim-task_switching-same_different","","null","rhyme","<img src=""square.png"" width=""306"" height=""306"" style=""position: fixed;left:14%;top:30%""><img src=""square.png"" width=""306"" height=""306"" style=""position: fixed;left:64%;top:30%"">","null","","","","","","","","","","","","","","","","","","","","","","","","","","","","","","","","","","",""
"","","","","","html-keyboard-response","55","78752","0.0-6.0-2.12","A15T9HDPHV3X7Q","2022-05-19T02:18:12.889Z","rhyme-phon_sim-task_switching-same_different","","3171.9000000953674","rhyme","<div style=""border: 3px solid #000000; position: fixed;left:14%;top:30%""><img src=""visual/star.png"" width=""300""></div><div style=""border: 3px solid #000000; position: fixed;left:64%;top:30%""><img src=""visual/jar.png"" width=""300""></div>","arrowdown","","false","experiment","visual/star.png","visual/jar.png","ArrowUp","ortho","","","","","","","","","","","","","","","","","","","","","","","","","","","",""
"","","","","","html-keyboard-response","56","79263","0.0-6.0-0.13","A15T9HDPHV3X7Q","2022-05-19T02:18:12.889Z","rhyme-phon_sim-task_switching-same_different","","null","rhyme","<div style=""font-size:60px;"">+</div>","null","500","","","","","","","","","","","","","","","","","","","","","","","","","","","","","","","","","",""
"","","","","","html-keyboard-response","57","79764","0.0-6.0-1.13","A15T9HDPHV3X7Q","2022-05-19T02:18:12.889Z","rhyme-phon_sim-task_switching-same_different","","null","rhyme","<img src=""square.png"" width=""306"" height=""306"" style=""position: fixed;left:14%;top:30%""><img src=""square.png"" width=""306"" height=""306"" style=""position: fixed;left:64%;top:30%"">","null","","","","","","","","","","","","","","","","","","","","","","","","","","","","","","","","","","",""
"","","","","","html-keyboard-response","58","82614","0.0-6.0-2.13","A15T9HDPHV3X7Q","2022-05-19T02:18:12.889Z","rhyme-phon_sim-task_switching-same_different","","2846.7000000476837","rhyme","<div style=""border: 3px solid #000000; position: fixed;left:14%;top:30%""><img src=""visual/cake.png"" width=""300""></div><div style=""border: 3px solid #000000; position: fixed;left:64%;top:30%""><img src=""visual/rake.png"" width=""300""></div>","arrowdown","","false","experiment","visual/cake.png","visual/rake.png","ArrowUp","ortho","","","","","","","","","","","","","","","","","","","","","","","","","","","",""
"","","","","","html-keyboard-response","59","83368","0.0-6.0-0.14","A15T9HDPHV3X7Q","2022-05-19T02:18:12.889Z","rhyme-phon_sim-task_switching-same_different","","null","rhyme","<div style=""font-size:60px;"">+</div>","null","750","","","","","","","","","","","","","","","","","","","","","","","","","","","","","","","","","",""
"","","","","","html-keyboard-response","60","83873","0.0-6.0-1.14","A15T9HDPHV3X7Q","2022-05-19T02:18:12.889Z","rhyme-phon_sim-task_switching-same_different","","null","rhyme","<img src=""square.png"" width=""306"" height=""306"" style=""position: fixed;left:14%;top:30%""><img src=""square.png"" width=""306"" height=""306"" style=""position: fixed;left:64%;top:30%"">","null","","","","","","","","","","","","","","","","","","","","","","","","","","","","","","","","","","",""
"","","","","","html-keyboard-response","61","86120","0.0-6.0-2.14","A15T9HDPHV3X7Q","2022-05-19T02:18:12.889Z","rhyme-phon_sim-task_switching-same_different","","2245.0999999046326","rhyme","<div style=""border: 3px solid #000000; position: fixed;left:14%;top:30%""><img src=""visual/nose.png"" width=""300""></div><div style=""border: 3px solid #000000; position: fixed;left:64%;top:30%""><img src=""visual/bell.png"" width=""300""></div>","arrowdown","","true","experiment","visual/nose.png","visual/bell.png","ArrowDown","NR","","","","","","","","","","","","","","","","","","","","","","","","","","","",""
"","","","","","html-keyboard-response","62","86386","0.0-6.0-0.15","A15T9HDPHV3X7Q","2022-05-19T02:18:12.889Z","rhyme-phon_sim-task_switching-same_different","","null","rhyme","<div style=""font-size:60px;"">+</div>","null","250","","","","","","","","","","","","","","","","","","","","","","","","","","","","","","","","","",""
"","","","","","html-keyboard-response","63","86889","0.0-6.0-1.15","A15T9HDPHV3X7Q","2022-05-19T02:18:12.889Z","rhyme-phon_sim-task_switching-same_different","","null","rhyme","<img src=""square.png"" width=""306"" height=""306"" style=""position: fixed;left:14%;top:30%""><img src=""square.png"" width=""306"" height=""306"" style=""position: fixed;left:64%;top:30%"">","null","","","","","","","","","","","","","","","","","","","","","","","","","","","","","","","","","","",""
"","","","","","html-keyboard-response","64","90315","0.0-6.0-2.15","A15T9HDPHV3X7Q","2022-05-19T02:18:12.889Z","rhyme-phon_sim-task_switching-same_different","","3423.5999999046326","rhyme","<div style=""border: 3px solid #000000; position: fixed;left:14%;top:30%""><img src=""visual/train.png"" width=""300""></div><div style=""border: 3px solid #000000; position: fixed;left:64%;top:30%""><img src=""visual/screw.png"" width=""300""></div>","arrowdown","","true","experiment","visual/train.png","visual/screw.png","ArrowDown","NR","","","","","","","","","","","","","","","","","","","","","","","","","","","",""
"","","","","","html-keyboard-response","65","91320","0.0-6.0-0.16","A15T9HDPHV3X7Q","2022-05-19T02:18:12.889Z","rhyme-phon_sim-task_switching-same_different","","null","rhyme","<div style=""font-size:60px;"">+</div>","null","1000","","","","","","","","","","","","","","","","","","","","","","","","","","","","","","","","","",""
"","","","","","html-keyboard-response","66","91837","0.0-6.0-1.16","A15T9HDPHV3X7Q","2022-05-19T02:18:12.889Z","rhyme-phon_sim-task_switching-same_different","","null","rhyme","<img src=""square.png"" width=""306"" height=""306"" style=""position: fixed;left:14%;top:30%""><img src=""square.png"" width=""306"" height=""306"" style=""position: fixed;left:64%;top:30%"">","null","","","","","","","","","","","","","","","","","","","","","","","","","","","","","","","","","","",""
"","","","","","html-keyboard-response","67","93459","0.0-6.0-2.16","A15T9HDPHV3X7Q","2022-05-19T02:18:12.889Z","rhyme-phon_sim-task_switching-same_different","","1618","rhyme","<div style=""border: 3px solid #000000; position: fixed;left:14%;top:30%""><img src=""visual/snail.png"" width=""300""></div><div style=""border: 3px solid #000000; position: fixed;left:64%;top:30%""><img src=""visual/whale.png"" width=""300""></div>","arrowup","","true","experiment","visual/snail.png","visual/whale.png","ArrowUp","non-ortho","","","","","","","","","","","","","","","","","","","","","","","","","","","",""
"","","","","","html-keyboard-response","68","93971","0.0-6.0-0.17","A15T9HDPHV3X7Q","2022-05-19T02:18:12.889Z","rhyme-phon_sim-task_switching-same_different","","null","rhyme","<div style=""font-size:60px;"">+</div>","null","500","","","","","","","","","","","","","","","","","","","","","","","","","","","","","","","","","",""
"","","","","","html-keyboard-response","69","94476","0.0-6.0-1.17","A15T9HDPHV3X7Q","2022-05-19T02:18:12.889Z","rhyme-phon_sim-task_switching-same_different","","null","rhyme","<img src=""square.png"" width=""306"" height=""306"" style=""position: fixed;left:14%;top:30%""><img src=""square.png"" width=""306"" height=""306"" style=""position: fixed;left:64%;top:30%"">","null","","","","","","","","","","","","","","","","","","","","","","","","","","","","","","","","","","",""
"","","","","","html-keyboard-response","70","96291","0.0-6.0-2.17","A15T9HDPHV3X7Q","2022-05-19T02:18:12.889Z","rhyme-phon_sim-task_switching-same_different","","1812","rhyme","<div style=""border: 3px solid #000000; position: fixed;left:14%;top:30%""><img src=""visual/deer.png"" width=""300""></div><div style=""border: 3px solid #000000; position: fixed;left:64%;top:30%""><img src=""visual/beer.png"" width=""300""></div>","arrowup","","true","experiment","visual/deer.png","visual/beer.png","ArrowUp","ortho","","","","","","","","","","","","","","","","","","","","","","","","","","","",""
"","","","","","html-keyboard-response","71","96792","0.0-6.0-0.18","A15T9HDPHV3X7Q","2022-05-19T02:18:12.889Z","rhyme-phon_sim-task_switching-same_different","","null","rhyme","<div style=""font-size:60px;"">+</div>","null","500","","","","","","","","","","","","","","","","","","","","","","","","","","","","","","","","","",""
"","","","","","html-keyboard-response","72","97296","0.0-6.0-1.18","A15T9HDPHV3X7Q","2022-05-19T02:18:12.889Z","rhyme-phon_sim-task_switching-same_different","","null","rhyme","<img src=""square.png"" width=""306"" height=""306"" style=""position: fixed;left:14%;top:30%""><img src=""square.png"" width=""306"" height=""306"" style=""position: fixed;left:64%;top:30%"">","null","","","","","","","","","","","","","","","","","","","","","","","","","","","","","","","","","","",""
"","","","","","html-keyboard-response","73","99416","0.0-6.0-2.18","A15T9HDPHV3X7Q","2022-05-19T02:18:12.889Z","rhyme-phon_sim-task_switching-same_different","","2116.7000000476837","rhyme","<div style=""border: 3px solid #000000; position: fixed;left:14%;top:30%""><img src=""visual/tree.png"" width=""300""></div><div style=""border: 3px solid #000000; position: fixed;left:64%;top:30%""><img src=""visual/door.png"" width=""300""></div>","arrowdown","","true","experiment","visual/tree.png","visual/door.png","ArrowDown","NR","","","","","","","","","","","","","","","","","","","","","","","","","","","",""
"","","","","","html-keyboard-response","74","99681","0.0-6.0-0.19","A15T9HDPHV3X7Q","2022-05-19T02:18:12.889Z","rhyme-phon_sim-task_switching-same_different","","null","rhyme","<div style=""font-size:60px;"">+</div>","null","250","","","","","","","","","","","","","","","","","","","","","","","","","","","","","","","","","",""
"","","","","","html-keyboard-response","75","100196","0.0-6.0-1.19","A15T9HDPHV3X7Q","2022-05-19T02:18:12.889Z","rhyme-phon_sim-task_switching-same_different","","null","rhyme","<img src=""square.png"" width=""306"" height=""306"" style=""position: fixed;left:14%;top:30%""><img src=""square.png"" width=""306"" height=""306"" style=""position: fixed;left:64%;top:30%"">","null","","","","","","","","","","","","","","","","","","","","","","","","","","","","","","","","","","",""
"","","","","","html-keyboard-response","76","101564","0.0-6.0-2.19","A15T9HDPHV3X7Q","2022-05-19T02:18:12.889Z","rhyme-phon_sim-task_switching-same_different","","1365.5999999046326","rhyme","<div style=""border: 3px solid #000000; position: fixed;left:14%;top:30%""><img src=""visual/brain.png"" width=""300""></div><div style=""border: 3px solid #000000; position: fixed;left:64%;top:30%""><img src=""visual/clock.png"" width=""300""></div>","arrowdown","","true","experiment","visual/brain.png","visual/clock.png","ArrowDown","NR","","","","","","","","","","","","","","","","","","","","","","","","","","","",""
"","","","","","html-keyboard-response","77","102079","0.0-6.0-0.20","A15T9HDPHV3X7Q","2022-05-19T02:18:12.889Z","rhyme-phon_sim-task_switching-same_different","","null","rhyme","<div style=""font-size:60px;"">+</div>","null","500","","","","","","","","","","","","","","","","","","","","","","","","","","","","","","","","","",""
"","","","","","html-keyboard-response","78","102581","0.0-6.0-1.20","A15T9HDPHV3X7Q","2022-05-19T02:18:12.889Z","rhyme-phon_sim-task_switching-same_different","","null","rhyme","<img src=""square.png"" width=""306"" height=""306"" style=""position: fixed;left:14%;top:30%""><img src=""square.png"" width=""306"" height=""306"" style=""position: fixed;left:64%;top:30%"">","null","","","","","","","","","","","","","","","","","","","","","","","","","","","","","","","","","","",""
"","","","","","html-keyboard-response","79","104551","0.0-6.0-2.20","A15T9HDPHV3X7Q","2022-05-19T02:18:12.889Z","rhyme-phon_sim-task_switching-same_different","","1969.0999999046326","rhyme","<div style=""border: 3px solid #000000; position: fixed;left:14%;top:30%""><img src=""visual/egg.png"" width=""300""></div><div style=""border: 3px solid #000000; position: fixed;left:64%;top:30%""><img src=""visual/leg.png"" width=""300""></div>","arrowup","","true","experiment","visual/egg.png","visual/leg.png","ArrowUp","ortho","","","","","","","","","","","","","","","","","","","","","","","","","","","",""
"","","","","","html-keyboard-response","80","105555","0.0-6.0-0.21","A15T9HDPHV3X7Q","2022-05-19T02:18:12.889Z","rhyme-phon_sim-task_switching-same_different","","null","rhyme","<div style=""font-size:60px;"">+</div>","null","1000","","","","","","","","","","","","","","","","","","","","","","","","","","","","","","","","","",""
"","","","","","html-keyboard-response","81","106070","0.0-6.0-1.21","A15T9HDPHV3X7Q","2022-05-19T02:18:12.889Z","rhyme-phon_sim-task_switching-same_different","","null","rhyme","<img src=""square.png"" width=""306"" height=""306"" style=""position: fixed;left:14%;top:30%""><img src=""square.png"" width=""306"" height=""306"" style=""position: fixed;left:64%;top:30%"">","null","","","","","","","","","","","","","","","","","","","","","","","","","","","","","","","","","","",""
"","","","","","html-keyboard-response","82","108274","0.0-6.0-2.21","A15T9HDPHV3X7Q","2022-05-19T02:18:12.889Z","rhyme-phon_sim-task_switching-same_different","","2202.7000000476837","rhyme","<div style=""border: 3px solid #000000; position: fixed;left:14%;top:30%""><img src=""visual/king.png"" width=""300""></div><div style=""border: 3px solid #000000; position: fixed;left:64%;top:30%""><img src=""visual/ring.png"" width=""300""></div>","arrowup","","true","experiment","visual/king.png","visual/ring.png","ArrowUp","ortho","","","","","","","","","","","","","","","","","","","","","","","","","","","",""
"","","","","","html-keyboard-response","83","108539","0.0-6.0-0.22","A15T9HDPHV3X7Q","2022-05-19T02:18:12.889Z","rhyme-phon_sim-task_switching-same_different","","null","rhyme","<div style=""font-size:60px;"">+</div>","null","250","","","","","","","","","","","","","","","","","","","","","","","","","","","","","","","","","",""
"","","","","","html-keyboard-response","84","109055","0.0-6.0-1.22","A15T9HDPHV3X7Q","2022-05-19T02:18:12.889Z","rhyme-phon_sim-task_switching-same_different","","null","rhyme","<img src=""square.png"" width=""306"" height=""306"" style=""position: fixed;left:14%;top:30%""><img src=""square.png"" width=""306"" height=""306"" style=""position: fixed;left:64%;top:30%"">","null","","","","","","","","","","","","","","","","","","","","","","","","","","","","","","","","","","",""
"","","","","","html-keyboard-response","85","111457","0.0-6.0-2.22","A15T9HDPHV3X7Q","2022-05-19T02:18:12.889Z","rhyme-phon_sim-task_switching-same_different","","2401.199999809265","rhyme","<div style=""border: 3px solid #000000; position: fixed;left:14%;top:30%""><img src=""visual/bear.png"" width=""300""></div><div style=""border: 3px solid #000000; position: fixed;left:64%;top:30%""><img src=""visual/crane.png"" width=""300""></div>","arrowdown","","true","experiment","visual/bear.png","visual/crane.png","ArrowDown","NR","","","","","","","","","","","","","","","","","","","","","","","","","","","",""
"","","","","","html-keyboard-response","86","112470","0.0-6.0-0.23","A15T9HDPHV3X7Q","2022-05-19T02:18:12.889Z","rhyme-phon_sim-task_switching-same_different","","null","rhyme","<div style=""font-size:60px;"">+</div>","null","1000","","","","","","","","","","","","","","","","","","","","","","","","","","","","","","","","","",""
"","","","","","html-keyboard-response","87","112984","0.0-6.0-1.23","A15T9HDPHV3X7Q","2022-05-19T02:18:12.889Z","rhyme-phon_sim-task_switching-same_different","","null","rhyme","<img src=""square.png"" width=""306"" height=""306"" style=""position: fixed;left:14%;top:30%""><img src=""square.png"" width=""306"" height=""306"" style=""position: fixed;left:64%;top:30%"">","null","","","","","","","","","","","","","","","","","","","","","","","","","","","","","","","","","","",""
"","","","","","html-keyboard-response","88","116185","0.0-6.0-2.23","A15T9HDPHV3X7Q","2022-05-19T02:18:12.889Z","rhyme-phon_sim-task_switching-same_different","","3197.9000000953674","rhyme","<div style=""border: 3px solid #000000; position: fixed;left:14%;top:30%""><img src=""visual/soap.png"" width=""300""></div><div style=""border: 3px solid #000000; position: fixed;left:64%;top:30%""><img src=""visual/shoe.png"" width=""300""></div>","arrowdown","","true","experiment","visual/soap.png","visual/shoe.png","ArrowDown","NR","","","","","","","","","","","","","","","","","","","","","","","","","","","",""
"","","","","","html-keyboard-response","89","116448","0.0-6.0-0.24","A15T9HDPHV3X7Q","2022-05-19T02:18:12.889Z","rhyme-phon_sim-task_switching-same_different","","null","rhyme","<div style=""font-size:60px;"">+</div>","null","250","","","","","","","","","","","","","","","","","","","","","","","","","","","","","","","","","",""
"","","","","","html-keyboard-response","90","116964","0.0-6.0-1.24","A15T9HDPHV3X7Q","2022-05-19T02:18:12.889Z","rhyme-phon_sim-task_switching-same_different","","null","rhyme","<img src=""square.png"" width=""306"" height=""306"" style=""position: fixed;left:14%;top:30%""><img src=""square.png"" width=""306"" height=""306"" style=""position: fixed;left:64%;top:30%"">","null","","","","","","","","","","","","","","","","","","","","","","","","","","","","","","","","","","",""
"","","","","","html-keyboard-response","91","118855","0.0-6.0-2.24","A15T9HDPHV3X7Q","2022-05-19T02:18:12.889Z","rhyme-phon_sim-task_switching-same_different","","1889.1000001430511","rhyme","<div style=""border: 3px solid #000000; position: fixed;left:14%;top:30%""><img src=""visual/tie.png"" width=""300""></div><div style=""border: 3px solid #000000; position: fixed;left:64%;top:30%""><img src=""visual/fly.png"" width=""300""></div>","arrowup","","true","experiment","visual/tie.png","visual/fly.png","ArrowUp","non-ortho","","","","","","","","","","","","","","","","","","","","","","","","","","","",""
"","","","","","html-keyboard-response","92","119364","0.0-6.0-0.25","A15T9HDPHV3X7Q","2022-05-19T02:18:12.889Z","rhyme-phon_sim-task_switching-same_different","","null","rhyme","<div style=""font-size:60px;"">+</div>","null","500","","","","","","","","","","","","","","","","","","","","","","","","","","","","","","","","","",""
"","","","","","html-keyboard-response","93","119867","0.0-6.0-1.25","A15T9HDPHV3X7Q","2022-05-19T02:18:12.889Z","rhyme-phon_sim-task_switching-same_different","","null","rhyme","<img src=""square.png"" width=""306"" height=""306"" style=""position: fixed;left:14%;top:30%""><img src=""square.png"" width=""306"" height=""306"" style=""position: fixed;left:64%;top:30%"">","null","","","","","","","","","","","","","","","","","","","","","","","","","","","","","","","","","","",""
"","","","","","html-keyboard-response","94","122300","0.0-6.0-2.25","A15T9HDPHV3X7Q","2022-05-19T02:18:12.889Z","rhyme-phon_sim-task_switching-same_different","","2430","rhyme","<div style=""border: 3px solid #000000; position: fixed;left:14%;top:30%""><img src=""visual/well.png"" width=""300""></div><div style=""border: 3px solid #000000; position: fixed;left:64%;top:30%""><img src=""visual/bell.png"" width=""300""></div>","arrowup","","true","experiment","visual/well.png","visual/bell.png","ArrowUp","ortho","","","","","","","","","","","","","","","","","","","","","","","","","","","",""
"","","","","","html-keyboard-response","95","123067","0.0-6.0-0.26","A15T9HDPHV3X7Q","2022-05-19T02:18:12.889Z","rhyme-phon_sim-task_switching-same_different","","null","rhyme","<div style=""font-size:60px;"">+</div>","null","750","","","","","","","","","","","","","","","","","","","","","","","","","","","","","","","","","",""
"","","","","","html-keyboard-response","96","123569","0.0-6.0-1.26","A15T9HDPHV3X7Q","2022-05-19T02:18:12.889Z","rhyme-phon_sim-task_switching-same_different","","null","rhyme","<img src=""square.png"" width=""306"" height=""306"" style=""position: fixed;left:14%;top:30%""><img src=""square.png"" width=""306"" height=""306"" style=""position: fixed;left:64%;top:30%"">","null","","","","","","","","","","","","","","","","","","","","","","","","","","","","","","","","","","",""
"","","","","","html-keyboard-response","97","125061","0.0-6.0-2.26","A15T9HDPHV3X7Q","2022-05-19T02:18:12.889Z","rhyme-phon_sim-task_switching-same_different","","1491.3000001907349","rhyme","<div style=""border: 3px solid #000000; position: fixed;left:14%;top:30%""><img src=""visual/rose.png"" width=""300""></div><div style=""border: 3px solid #000000; position: fixed;left:64%;top:30%""><img src=""visual/nose.png"" width=""300""></div>","arrowup","","true","experiment","visual/rose.png","visual/nose.png","ArrowUp","ortho","","","","","","","","","","","","","","","","","","","","","","","","","","","",""
"","","","","","html-keyboard-response","98","125820","0.0-6.0-0.27","A15T9HDPHV3X7Q","2022-05-19T02:18:12.889Z","rhyme-phon_sim-task_switching-same_different","","null","rhyme","<div style=""font-size:60px;"">+</div>","null","750","","","","","","","","","","","","","","","","","","","","","","","","","","","","","","","","","",""
"","","","","","html-keyboard-response","99","126335","0.0-6.0-1.27","A15T9HDPHV3X7Q","2022-05-19T02:18:12.889Z","rhyme-phon_sim-task_switching-same_different","","null","rhyme","<img src=""square.png"" width=""306"" height=""306"" style=""position: fixed;left:14%;top:30%""><img src=""square.png"" width=""306"" height=""306"" style=""position: fixed;left:64%;top:30%"">","null","","","","","","","","","","","","","","","","","","","","","","","","","","","","","","","","","","",""
"","","","","","html-keyboard-response","100","128173","0.0-6.0-2.27","A15T9HDPHV3X7Q","2022-05-19T02:18:12.889Z","rhyme-phon_sim-task_switching-same_different","","1835.6000001430511","rhyme","<div style=""border: 3px solid #000000; position: fixed;left:14%;top:30%""><img src=""visual/bear.png"" width=""300""></div><div style=""border: 3px solid #000000; position: fixed;left:64%;top:30%""><img src=""visual/hair.png"" width=""300""></div>","arrowup","","true","experiment","visual/bear.png","visual/hair.png","ArrowUp","non-ortho","","","","","","","","","","","","","","","","","","","","","","","","","","","",""
"","","","","","html-keyboard-response","101","128436","0.0-6.0-0.28","A15T9HDPHV3X7Q","2022-05-19T02:18:12.889Z","rhyme-phon_sim-task_switching-same_different","","null","rhyme","<div style=""font-size:60px;"">+</div>","null","250","","","","","","","","","","","","","","","","","","","","","","","","","","","","","","","","","",""
"","","","","","html-keyboard-response","102","128950","0.0-6.0-1.28","A15T9HDPHV3X7Q","2022-05-19T02:18:12.889Z","rhyme-phon_sim-task_switching-same_different","","null","rhyme","<img src=""square.png"" width=""306"" height=""306"" style=""position: fixed;left:14%;top:30%""><img src=""square.png"" width=""306"" height=""306"" style=""position: fixed;left:64%;top:30%"">","null","","","","","","","","","","","","","","","","","","","","","","","","","","","","","","","","","","",""
"","","","","","html-keyboard-response","103","131876","0.0-6.0-2.28","A15T9HDPHV3X7Q","2022-05-19T02:18:12.889Z","rhyme-phon_sim-task_switching-same_different","","2924.5","rhyme","<div style=""border: 3px solid #000000; position: fixed;left:14%;top:30%""><img src=""visual/plane.png"" width=""300""></div><div style=""border: 3px solid #000000; position: fixed;left:64%;top:30%""><img src=""visual/chain.png"" width=""300""></div>","arrowup","","true","experiment","visual/plane.png","visual/chain.png","ArrowUp","non-ortho","","","","","","","","","","","","","","","","","","","","","","","","","","","",""
"","","","","","html-keyboard-response","104","132880","0.0-6.0-0.29","A15T9HDPHV3X7Q","2022-05-19T02:18:12.889Z","rhyme-phon_sim-task_switching-same_different","","null","rhyme","<div style=""font-size:60px;"">+</div>","null","1000","","","","","","","","","","","","","","","","","","","","","","","","","","","","","","","","","",""
"","","","","","html-keyboard-response","105","133386","0.0-6.0-1.29","A15T9HDPHV3X7Q","2022-05-19T02:18:12.889Z","rhyme-phon_sim-task_switching-same_different","","null","rhyme","<img src=""square.png"" width=""306"" height=""306"" style=""position: fixed;left:14%;top:30%""><img src=""square.png"" width=""306"" height=""306"" style=""position: fixed;left:64%;top:30%"">","null","","","","","","","","","","","","","","","","","","","","","","","","","","","","","","","","","","",""
"","","","","","html-keyboard-response","106","136141","0.0-6.0-2.29","A15T9HDPHV3X7Q","2022-05-19T02:18:12.889Z","rhyme-phon_sim-task_switching-same_different","","2753.7000000476837","rhyme","<div style=""border: 3px solid #000000; position: fixed;left:14%;top:30%""><img src=""visual/wave.png"" width=""300""></div><div style=""border: 3px solid #000000; position: fixed;left:64%;top:30%""><img src=""visual/cave.png"" width=""300""></div>","arrowdown","","false","experiment","visual/wave.png","visual/cave.png","ArrowUp","ortho","","","","","","","","","","","","","","","","","","","","","","","","","","","",""
"","","","","","html-keyboard-response","107","136403","0.0-6.0-0.30","A15T9HDPHV3X7Q","2022-05-19T02:18:12.889Z","rhyme-phon_sim-task_switching-same_different","","null","rhyme","<div style=""font-size:60px;"">+</div>","null","250","","","","","","","","","","","","","","","","","","","","","","","","","","","","","","","","","",""
"","","","","","html-keyboard-response","108","136920","0.0-6.0-1.30","A15T9HDPHV3X7Q","2022-05-19T02:18:12.889Z","rhyme-phon_sim-task_switching-same_different","","null","rhyme","<img src=""square.png"" width=""306"" height=""306"" style=""position: fixed;left:14%;top:30%""><img src=""square.png"" width=""306"" height=""306"" style=""position: fixed;left:64%;top:30%"">","null","","","","","","","","","","","","","","","","","","","","","","","","","","","","","","","","","","",""
"","","","","","html-keyboard-response","109","141929","0.0-6.0-2.30","A15T9HDPHV3X7Q","2022-05-19T02:18:12.889Z","rhyme-phon_sim-task_switching-same_different","","null","rhyme","<div style=""border: 3px solid #000000; position: fixed;left:14%;top:30%""><img src=""visual/drum.png"" width=""300""></div><div style=""border: 3px solid #000000; position: fixed;left:64%;top:30%""><img src=""visual/thumb.png"" width=""300""></div>","null","","false","experiment","visual/drum.png","visual/thumb.png","ArrowUp","non-ortho","","","","","","","","","","","","","","","","","","","","","","","","","","","",""
"","","","","","html-keyboard-response","110","142187","0.0-6.0-0.31","A15T9HDPHV3X7Q","2022-05-19T02:18:12.889Z","rhyme-phon_sim-task_switching-same_different","","null","rhyme","<div style=""font-size:60px;"">+</div>","null","250","","","","","","","","","","","","","","","","","","","","","","","","","","","","","","","","","",""
"","","","","","html-keyboard-response","111","142688","0.0-6.0-1.31","A15T9HDPHV3X7Q","2022-05-19T02:18:12.889Z","rhyme-phon_sim-task_switching-same_different","","null","rhyme","<img src=""square.png"" width=""306"" height=""306"" style=""position: fixed;left:14%;top:30%""><img src=""square.png"" width=""306"" height=""306"" style=""position: fixed;left:64%;top:30%"">","null","","","","","","","","","","","","","","","","","","","","","","","","","","","","","","","","","","",""
"","","","","","html-keyboard-response","112","146818","0.0-6.0-2.31","A15T9HDPHV3X7Q","2022-05-19T02:18:12.889Z","rhyme-phon_sim-task_switching-same_different","","4128.100000143051","rhyme","<div style=""border: 3px solid #000000; position: fixed;left:14%;top:30%""><img src=""visual/drawer.png"" width=""300""></div><div style=""border: 3px solid #000000; position: fixed;left:64%;top:30%""><img src=""visual/door.png"" width=""300""></div>","arrowdown","","false","experiment","visual/drawer.png","visual/door.png","ArrowUp","non-ortho","","","","","","","","","","","","","","","","","","","","","","","","","","","",""
"","","","","","html-keyboard-response","113","147081","0.0-6.0-0.32","A15T9HDPHV3X7Q","2022-05-19T02:18:12.889Z","rhyme-phon_sim-task_switching-same_different","","null","rhyme","<div style=""font-size:60px;"">+</div>","null","250","","","","","","","","","","","","","","","","","","","","","","","","","","","","","","","","","",""
"","","","","","html-keyboard-response","114","147596","0.0-6.0-1.32","A15T9HDPHV3X7Q","2022-05-19T02:18:12.889Z","rhyme-phon_sim-task_switching-same_different","","null","rhyme","<img src=""square.png"" width=""306"" height=""306"" style=""position: fixed;left:14%;top:30%""><img src=""square.png"" width=""306"" height=""306"" style=""position: fixed;left:64%;top:30%"">","null","","","","","","","","","","","","","","","","","","","","","","","","","","","","","","","","","","",""
"","","","","","html-keyboard-response","115","149362","0.0-6.0-2.32","A15T9HDPHV3X7Q","2022-05-19T02:18:12.889Z","rhyme-phon_sim-task_switching-same_different","","1764.7999999523163","rhyme","<div style=""border: 3px solid #000000; position: fixed;left:14%;top:30%""><img src=""visual/king.png"" width=""300""></div><div style=""border: 3px solid #000000; position: fixed;left:64%;top:30%""><img src=""visual/cab.png"" width=""300""></div>","arrowdown","","true","experiment","visual/king.png","visual/cab.png","ArrowDown","NR","","","","","","","","","","","","","","","","","","","","","","","","","","","",""
"","","","","","html-keyboard-response","116","150373","0.0-6.0-0.33","A15T9HDPHV3X7Q","2022-05-19T02:18:12.889Z","rhyme-phon_sim-task_switching-same_different","","null","rhyme","<div style=""font-size:60px;"">+</div>","null","1000","","","","","","","","","","","","","","","","","","","","","","","","","","","","","","","","","",""
"","","","","","html-keyboard-response","117","150887","0.0-6.0-1.33","A15T9HDPHV3X7Q","2022-05-19T02:18:12.889Z","rhyme-phon_sim-task_switching-same_different","","null","rhyme","<img src=""square.png"" width=""306"" height=""306"" style=""position: fixed;left:14%;top:30%""><img src=""square.png"" width=""306"" height=""306"" style=""position: fixed;left:64%;top:30%"">","null","","","","","","","","","","","","","","","","","","","","","","","","","","","","","","","","","","",""
"","","","","","html-keyboard-response","118","153222","0.0-6.0-2.33","A15T9HDPHV3X7Q","2022-05-19T02:18:12.889Z","rhyme-phon_sim-task_switching-same_different","","2333","rhyme","<div style=""border: 3px solid #000000; position: fixed;left:14%;top:30%""><img src=""visual/saw.png"" width=""300""></div><div style=""border: 3px solid #000000; position: fixed;left:64%;top:30%""><img src=""visual/claw.png"" width=""300""></div>","arrowup","","true","experiment","visual/saw.png","visual/claw.png","ArrowUp","ortho","","","","","","","","","","","","","","","","","","","","","","","","","","","",""
"","","","","","html-keyboard-response","119","153733","0.0-6.0-0.34","A15T9HDPHV3X7Q","2022-05-19T02:18:12.889Z","rhyme-phon_sim-task_switching-same_different","","null","rhyme","<div style=""font-size:60px;"">+</div>","null","500","","","","","","","","","","","","","","","","","","","","","","","","","","","","","","","","","",""
"","","","","","html-keyboard-response","120","154235","0.0-6.0-1.34","A15T9HDPHV3X7Q","2022-05-19T02:18:12.889Z","rhyme-phon_sim-task_switching-same_different","","null","rhyme","<img src=""square.png"" width=""306"" height=""306"" style=""position: fixed;left:14%;top:30%""><img src=""square.png"" width=""306"" height=""306"" style=""position: fixed;left:64%;top:30%"">","null","","","","","","","","","","","","","","","","","","","","","","","","","","","","","","","","","","",""
"","","","","","html-keyboard-response","121","158490","0.0-6.0-2.34","A15T9HDPHV3X7Q","2022-05-19T02:18:12.889Z","rhyme-phon_sim-task_switching-same_different","","4253.299999952316","rhyme","<div style=""border: 3px solid #000000; position: fixed;left:14%;top:30%""><img src=""visual/key.png"" width=""300""></div><div style=""border: 3px solid #000000; position: fixed;left:64%;top:30%""><img src=""visual/tree.png"" width=""300""></div>","arrowup","","true","experiment","visual/key.png","visual/tree.png","ArrowUp","non-ortho","","","","","","","","","","","","","","","","","","","","","","","","","","","",""
"","","","","","html-keyboard-response","122","159495","0.0-6.0-0.35","A15T9HDPHV3X7Q","2022-05-19T02:18:12.889Z","rhyme-phon_sim-task_switching-same_different","","null","rhyme","<div style=""font-size:60px;"">+</div>","null","1000","","","","","","","","","","","","","","","","","","","","","","","","","","","","","","","","","",""
"","","","","","html-keyboard-response","123","160011","0.0-6.0-1.35","A15T9HDPHV3X7Q","2022-05-19T02:18:12.889Z","rhyme-phon_sim-task_switching-same_different","","null","rhyme","<img src=""square.png"" width=""306"" height=""306"" style=""position: fixed;left:14%;top:30%""><img src=""square.png"" width=""306"" height=""306"" style=""position: fixed;left:64%;top:30%"">","null","","","","","","","","","","","","","","","","","","","","","","","","","","","","","","","","","","",""
"","","","","","html-keyboard-response","124","161176","0.0-6.0-2.35","A15T9HDPHV3X7Q","2022-05-19T02:18:12.889Z","rhyme-phon_sim-task_switching-same_different","","1161.7000000476837","rhyme","<div style=""border: 3px solid #000000; position: fixed;left:14%;top:30%""><img src=""visual/box.png"" width=""300""></div><div style=""border: 3px solid #000000; position: fixed;left:64%;top:30%""><img src=""visual/fox.png"" width=""300""></div>","arrowup","","true","experiment","visual/box.png","visual/fox.png","ArrowUp","ortho","","","","","","","","","","","","","","","","","","","","","","","","","","","",""
"","","","","","html-keyboard-response","125","161687","0.0-6.0-0.36","A15T9HDPHV3X7Q","2022-05-19T02:18:12.889Z","rhyme-phon_sim-task_switching-same_different","","null","rhyme","<div style=""font-size:60px;"">+</div>","null","500","","","","","","","","","","","","","","","","","","","","","","","","","","","","","","","","","",""
"","","","","","html-keyboard-response","126","162192","0.0-6.0-1.36","A15T9HDPHV3X7Q","2022-05-19T02:18:12.889Z","rhyme-phon_sim-task_switching-same_different","","null","rhyme","<img src=""square.png"" width=""306"" height=""306"" style=""position: fixed;left:14%;top:30%""><img src=""square.png"" width=""306"" height=""306"" style=""position: fixed;left:64%;top:30%"">","null","","","","","","","","","","","","","","","","","","","","","","","","","","","","","","","","","","",""
"","","","","","html-keyboard-response","127","165001","0.0-6.0-2.36","A15T9HDPHV3X7Q","2022-05-19T02:18:12.889Z","rhyme-phon_sim-task_switching-same_different","","2808.9000000953674","rhyme","<div style=""border: 3px solid #000000; position: fixed;left:14%;top:30%""><img src=""visual/pope.png"" width=""300""></div><div style=""border: 3px solid #000000; position: fixed;left:64%;top:30%""><img src=""visual/soap.png"" width=""300""></div>","arrowup","","true","experiment","visual/pope.png","visual/soap.png","ArrowUp","non-ortho","","","","","","","","","","","","","","","","","","","","","","","","","","","",""
"","","","","","html-keyboard-response","128","166014","0.0-6.0-0.37","A15T9HDPHV3X7Q","2022-05-19T02:18:12.889Z","rhyme-phon_sim-task_switching-same_different","","null","rhyme","<div style=""font-size:60px;"">+</div>","null","1000","","","","","","","","","","","","","","","","","","","","","","","","","","","","","","","","","",""
"","","","","","html-keyboard-response","129","166529","0.0-6.0-1.37","A15T9HDPHV3X7Q","2022-05-19T02:18:12.889Z","rhyme-phon_sim-task_switching-same_different","","null","rhyme","<img src=""square.png"" width=""306"" height=""306"" style=""position: fixed;left:14%;top:30%""><img src=""square.png"" width=""306"" height=""306"" style=""position: fixed;left:64%;top:30%"">","null","","","","","","","","","","","","","","","","","","","","","","","","","","","","","","","","","","",""
"","","","","","html-keyboard-response","130","168037","0.0-6.0-2.37","A15T9HDPHV3X7Q","2022-05-19T02:18:12.889Z","rhyme-phon_sim-task_switching-same_different","","1504","rhyme","<div style=""border: 3px solid #000000; position: fixed;left:14%;top:30%""><img src=""visual/spoon.png"" width=""300""></div><div style=""border: 3px solid #000000; position: fixed;left:64%;top:30%""><img src=""visual/moon.png"" width=""300""></div>","arrowup","","true","experiment","visual/spoon.png","visual/moon.png","ArrowUp","ortho","","","","","","","","","","","","","","","","","","","","","","","","","","","",""
"","","","","","html-keyboard-response","131","168548","0.0-6.0-0.38","A15T9HDPHV3X7Q","2022-05-19T02:18:12.889Z","rhyme-phon_sim-task_switching-same_different","","null","rhyme","<div style=""font-size:60px;"">+</div>","null","500","","","","","","","","","","","","","","","","","","","","","","","","","","","","","","","","","",""
"","","","","","html-keyboard-response","132","169052","0.0-6.0-1.38","A15T9HDPHV3X7Q","2022-05-19T02:18:12.889Z","rhyme-phon_sim-task_switching-same_different","","null","rhyme","<img src=""square.png"" width=""306"" height=""306"" style=""position: fixed;left:14%;top:30%""><img src=""square.png"" width=""306"" height=""306"" style=""position: fixed;left:64%;top:30%"">","null","","","","","","","","","","","","","","","","","","","","","","","","","","","","","","","","","","",""
"","","","","","html-keyboard-response","133","171589","0.0-6.0-2.38","A15T9HDPHV3X7Q","2022-05-19T02:18:12.889Z","rhyme-phon_sim-task_switching-same_different","","2535","rhyme","<div style=""border: 3px solid #000000; position: fixed;left:14%;top:30%""><img src=""visual/train.png"" width=""300""></div><div style=""border: 3px solid #000000; position: fixed;left:64%;top:30%""><img src=""visual/crane.png"" width=""300""></div>","arrowdown","","false","experiment","visual/train.png","visual/crane.png","ArrowUp","non-ortho","","","","","","","","","","","","","","","","","","","","","","","","","","","",""
"","","","","","html-keyboard-response","134","172598","0.0-6.0-0.39","A15T9HDPHV3X7Q","2022-05-19T02:18:12.889Z","rhyme-phon_sim-task_switching-same_different","","null","rhyme","<div style=""font-size:60px;"">+</div>","null","1000","","","","","","","","","","","","","","","","","","","","","","","","","","","","","","","","","",""
"","","","","","html-keyboard-response","135","173102","0.0-6.0-1.39","A15T9HDPHV3X7Q","2022-05-19T02:18:12.889Z","rhyme-phon_sim-task_switching-same_different","","null","rhyme","<img src=""square.png"" width=""306"" height=""306"" style=""position: fixed;left:14%;top:30%""><img src=""square.png"" width=""306"" height=""306"" style=""position: fixed;left:64%;top:30%"">","null","","","","","","","","","","","","","","","","","","","","","","","","","","","","","","","","","","",""
"","","","","","html-keyboard-response","136","175167","0.0-6.0-2.39","A15T9HDPHV3X7Q","2022-05-19T02:18:12.889Z","rhyme-phon_sim-task_switching-same_different","","2061.5","rhyme","<div style=""border: 3px solid #000000; position: fixed;left:14%;top:30%""><img src=""visual/shark.png"" width=""300""></div><div style=""border: 3px solid #000000; position: fixed;left:64%;top:30%""><img src=""visual/park.png"" width=""300""></div>","arrowdown","","false","experiment","visual/shark.png","visual/park.png","ArrowUp","ortho","","","","","","","","","","","","","","","","","","","","","","","","","","","",""
"","","","","","html-keyboard-response","137","175924","0.0-6.0-0.40","A15T9HDPHV3X7Q","2022-05-19T02:18:12.889Z","rhyme-phon_sim-task_switching-same_different","","null","rhyme","<div style=""font-size:60px;"">+</div>","null","750","","","","","","","","","","","","","","","","","","","","","","","","","","","","","","","","","",""
"","","","","","html-keyboard-response","138","176440","0.0-6.0-1.40","A15T9HDPHV3X7Q","2022-05-19T02:18:12.889Z","rhyme-phon_sim-task_switching-same_different","","null","rhyme","<img src=""square.png"" width=""306"" height=""306"" style=""position: fixed;left:14%;top:30%""><img src=""square.png"" width=""306"" height=""306"" style=""position: fixed;left:64%;top:30%"">","null","","","","","","","","","","","","","","","","","","","","","","","","","","","","","","","","","","",""
"","","","","","html-keyboard-response","139","178760","0.0-6.0-2.40","A15T9HDPHV3X7Q","2022-05-19T02:18:12.889Z","rhyme-phon_sim-task_switching-same_different","","2317.5","rhyme","<div style=""border: 3px solid #000000; position: fixed;left:14%;top:30%""><img src=""visual/rake.png"" width=""300""></div><div style=""border: 3px solid #000000; position: fixed;left:64%;top:30%""><img src=""visual/park.png"" width=""300""></div>","arrowdown","","true","experiment","visual/rake.png","visual/park.png","ArrowDown","NR","","","","","","","","","","","","","","","","","","","","","","","","","","","",""
"","","","","","html-keyboard-response","140","179511","0.0-6.0-0.41","A15T9HDPHV3X7Q","2022-05-19T02:18:12.889Z","rhyme-phon_sim-task_switching-same_different","","null","rhyme","<div style=""font-size:60px;"">+</div>","null","750","","","","","","","","","","","","","","","","","","","","","","","","","","","","","","","","","",""
"","","","","","html-keyboard-response","141","180014","0.0-6.0-1.41","A15T9HDPHV3X7Q","2022-05-19T02:18:12.889Z","rhyme-phon_sim-task_switching-same_different","","null","rhyme","<img src=""square.png"" width=""306"" height=""306"" style=""position: fixed;left:14%;top:30%""><img src=""square.png"" width=""306"" height=""306"" style=""position: fixed;left:64%;top:30%"">","null","","","","","","","","","","","","","","","","","","","","","","","","","","","","","","","","","","",""
"","","","","","html-keyboard-response","142","182476","0.0-6.0-2.41","A15T9HDPHV3X7Q","2022-05-19T02:18:12.889Z","rhyme-phon_sim-task_switching-same_different","","2459","rhyme","<div style=""border: 3px solid #000000; position: fixed;left:14%;top:30%""><img src=""visual/cab.png"" width=""300""></div><div style=""border: 3px solid #000000; position: fixed;left:64%;top:30%""><img src=""visual/crab.png"" width=""300""></div>","arrowdown","","false","experiment","visual/cab.png","visual/crab.png","ArrowUp","ortho","","","","","","","","","","","","","","","","","","","","","","","","","","","",""
"","","","","","html-keyboard-response","143","182742","0.0-6.0-0.42","A15T9HDPHV3X7Q","2022-05-19T02:18:12.889Z","rhyme-phon_sim-task_switching-same_different","","null","rhyme","<div style=""font-size:60px;"">+</div>","null","250","","","","","","","","","","","","","","","","","","","","","","","","","","","","","","","","","",""
"","","","","","html-keyboard-response","144","183256","0.0-6.0-1.42","A15T9HDPHV3X7Q","2022-05-19T02:18:12.889Z","rhyme-phon_sim-task_switching-same_different","","null","rhyme","<img src=""square.png"" width=""306"" height=""306"" style=""position: fixed;left:14%;top:30%""><img src=""square.png"" width=""306"" height=""306"" style=""position: fixed;left:64%;top:30%"">","null","","","","","","","","","","","","","","","","","","","","","","","","","","","","","","","","","","",""
"","","","","","html-keyboard-response","145","185547","0.0-6.0-2.42","A15T9HDPHV3X7Q","2022-05-19T02:18:12.889Z","rhyme-phon_sim-task_switching-same_different","","2288.0999999046326","rhyme","<div style=""border: 3px solid #000000; position: fixed;left:14%;top:30%""><img src=""visual/jar.png"" width=""300""></div><div style=""border: 3px solid #000000; position: fixed;left:64%;top:30%""><img src=""visual/whale.png"" width=""300""></div>","arrowdown","","true","experiment","visual/jar.png","visual/whale.png","ArrowDown","NR","","","","","","","","","","","","","","","","","","","","","","","","","","","",""
"","","","","","html-keyboard-response","146","185806","0.0-6.0-0.43","A15T9HDPHV3X7Q","2022-05-19T02:18:12.889Z","rhyme-phon_sim-task_switching-same_different","","null","rhyme","<div style=""font-size:60px;"">+</div>","null","250","","","","","","","","","","","","","","","","","","","","","","","","","","","","","","","","","",""
"","","","","","html-keyboard-response","147","186310","0.0-6.0-1.43","A15T9HDPHV3X7Q","2022-05-19T02:18:12.889Z","rhyme-phon_sim-task_switching-same_different","","null","rhyme","<img src=""square.png"" width=""306"" height=""306"" style=""position: fixed;left:14%;top:30%""><img src=""square.png"" width=""306"" height=""306"" style=""position: fixed;left:64%;top:30%"">","null","","","","","","","","","","","","","","","","","","","","","","","","","","","","","","","","","","",""
"","","","","","html-keyboard-response","148","188167","0.0-6.0-2.43","A15T9HDPHV3X7Q","2022-05-19T02:18:12.889Z","rhyme-phon_sim-task_switching-same_different","","1854.2999999523163","rhyme","<div style=""border: 3px solid #000000; position: fixed;left:14%;top:30%""><img src=""visual/key.png"" width=""300""></div><div style=""border: 3px solid #000000; position: fixed;left:64%;top:30%""><img src=""visual/snail.png"" width=""300""></div>","arrowdown","","true","experiment","visual/key.png","visual/snail.png","ArrowDown","NR","","","","","","","","","","","","","","","","","","","","","","","","","","","",""
"","","","","","html-keyboard-response","149","189170","0.0-6.0-0.44","A15T9HDPHV3X7Q","2022-05-19T02:18:12.889Z","rhyme-phon_sim-task_switching-same_different","","null","rhyme","<div style=""font-size:60px;"">+</div>","null","1000","","","","","","","","","","","","","","","","","","","","","","","","","","","","","","","","","",""
"","","","","","html-keyboard-response","150","189672","0.0-6.0-1.44","A15T9HDPHV3X7Q","2022-05-19T02:18:12.889Z","rhyme-phon_sim-task_switching-same_different","","null","rhyme","<img src=""square.png"" width=""306"" height=""306"" style=""position: fixed;left:14%;top:30%""><img src=""square.png"" width=""306"" height=""306"" style=""position: fixed;left:64%;top:30%"">","null","","","","","","","","","","","","","","","","","","","","","","","","","","","","","","","","","","",""
"","","","","","html-keyboard-response","151","191083","0.0-6.0-2.44","A15T9HDPHV3X7Q","2022-05-19T02:18:12.889Z","rhyme-phon_sim-task_switching-same_different","","1408.5","rhyme","<div style=""border: 3px solid #000000; position: fixed;left:14%;top:30%""><img src=""visual/cat.png"" width=""300""></div><div style=""border: 3px solid #000000; position: fixed;left:64%;top:30%""><img src=""visual/hat.png"" width=""300""></div>","arrowup","","true","experiment","visual/cat.png","visual/hat.png","ArrowUp","ortho","","","","","","","","","","","","","","","","","","","","","","","","","","","",""
"","","","","","html-keyboard-response","152","191597","0.0-6.0-0.45","A15T9HDPHV3X7Q","2022-05-19T02:18:12.889Z","rhyme-phon_sim-task_switching-same_different","","null","rhyme","<div style=""font-size:60px;"">+</div>","null","500","","","","","","","","","","","","","","","","","","","","","","","","","","","","","","","","","",""
"","","","","","html-keyboard-response","153","192100","0.0-6.0-1.45","A15T9HDPHV3X7Q","2022-05-19T02:18:12.889Z","rhyme-phon_sim-task_switching-same_different","","null","rhyme","<img src=""square.png"" width=""306"" height=""306"" style=""position: fixed;left:14%;top:30%""><img src=""square.png"" width=""306"" height=""306"" style=""position: fixed;left:64%;top:30%"">","null","","","","","","","","","","","","","","","","","","","","","","","","","","","","","","","","","","",""
"","","","","","html-keyboard-response","154","193980","0.0-6.0-2.45","A15T9HDPHV3X7Q","2022-05-19T02:18:12.889Z","rhyme-phon_sim-task_switching-same_different","","1876.7999999523163","rhyme","<div style=""border: 3px solid #000000; position: fixed;left:14%;top:30%""><img src=""visual/pear.png"" width=""300""></div><div style=""border: 3px solid #000000; position: fixed;left:64%;top:30%""><img src=""visual/rope.png"" width=""300""></div>","arrowdown","","true","experiment","visual/pear.png","visual/rope.png","ArrowDown","NR","","","","","","","","","","","","","","","","","","","","","","","","","","","",""
"","","","","","html-keyboard-response","155","194236","0.0-6.0-0.46","A15T9HDPHV3X7Q","2022-05-19T02:18:12.889Z","rhyme-phon_sim-task_switching-same_different","","null","rhyme","<div style=""font-size:60px;"">+</div>","null","250","","","","","","","","","","","","","","","","","","","","","","","","","","","","","","","","","",""
"","","","","","html-keyboard-response","156","194752","0.0-6.0-1.46","A15T9HDPHV3X7Q","2022-05-19T02:18:12.889Z","rhyme-phon_sim-task_switching-same_different","","null","rhyme","<img src=""square.png"" width=""306"" height=""306"" style=""position: fixed;left:14%;top:30%""><img src=""square.png"" width=""306"" height=""306"" style=""position: fixed;left:64%;top:30%"">","null","","","","","","","","","","","","","","","","","","","","","","","","","","","","","","","","","","",""
"","","","","","html-keyboard-response","157","196862","0.0-6.0-2.46","A15T9HDPHV3X7Q","2022-05-19T02:18:12.889Z","rhyme-phon_sim-task_switching-same_different","","2109.2000000476837","rhyme","<div style=""border: 3px solid #000000; position: fixed;left:14%;top:30%""><img src=""visual/dart.png"" width=""300""></div><div style=""border: 3px solid #000000; position: fixed;left:64%;top:30%""><img src=""visual/heart.png"" width=""300""></div>","arrowup","","true","experiment","visual/dart.png","visual/heart.png","ArrowUp","non-ortho","","","","","","","","","","","","","","","","","","","","","","","","","","","",""
"","","","","","html-keyboard-response","158","197875","0.0-6.0-0.47","A15T9HDPHV3X7Q","2022-05-19T02:18:12.889Z","rhyme-phon_sim-task_switching-same_different","","null","rhyme","<div style=""font-size:60px;"">+</div>","null","1000","","","","","","","","","","","","","","","","","","","","","","","","","","","","","","","","","",""
"","","","","","html-keyboard-response","159","198379","0.0-6.0-1.47","A15T9HDPHV3X7Q","2022-05-19T02:18:12.889Z","rhyme-phon_sim-task_switching-same_different","","null","rhyme","<img src=""square.png"" width=""306"" height=""306"" style=""position: fixed;left:14%;top:30%""><img src=""square.png"" width=""306"" height=""306"" style=""position: fixed;left:64%;top:30%"">","null","","","","","","","","","","","","","","","","","","","","","","","","","","","","","","","","","","",""
"","","","","","html-keyboard-response","160","200533","0.0-6.0-2.47","A15T9HDPHV3X7Q","2022-05-19T02:18:12.889Z","rhyme-phon_sim-task_switching-same_different","","2150.9000000953674","rhyme","<div style=""border: 3px solid #000000; position: fixed;left:14%;top:30%""><img src=""visual/claw.png"" width=""300""></div><div style=""border: 3px solid #000000; position: fixed;left:64%;top:30%""><img src=""visual/beer.png"" width=""300""></div>","arrowdown","","true","experiment","visual/claw.png","visual/beer.png","ArrowDown","NR","","","","","","","","","","","","","","","","","","","","","","","","","","","",""
"","","","","","html-keyboard-response","161","201284","0.0-6.0-0.48","A15T9HDPHV3X7Q","2022-05-19T02:18:12.889Z","rhyme-phon_sim-task_switching-same_different","","null","rhyme","<div style=""font-size:60px;"">+</div>","null","750","","","","","","","","","","","","","","","","","","","","","","","","","","","","","","","","","",""
"","","","","","html-keyboard-response","162","201798","0.0-6.0-1.48","A15T9HDPHV3X7Q","2022-05-19T02:18:12.889Z","rhyme-phon_sim-task_switching-same_different","","null","rhyme","<img src=""square.png"" width=""306"" height=""306"" style=""position: fixed;left:14%;top:30%""><img src=""square.png"" width=""306"" height=""306"" style=""position: fixed;left:64%;top:30%"">","null","","","","","","","","","","","","","","","","","","","","","","","","","","","","","","","","","","",""
"","","","","","html-keyboard-response","163","203221","0.0-6.0-2.48","A15T9HDPHV3X7Q","2022-05-19T02:18:12.889Z","rhyme-phon_sim-task_switching-same_different","","1421.6000001430511","rhyme","<div style=""border: 3px solid #000000; position: fixed;left:14%;top:30%""><img src=""visual/bed.png"" width=""300""></div><div style=""border: 3px solid #000000; position: fixed;left:64%;top:30%""><img src=""visual/bread.png"" width=""300""></div>","arrowup","","true","experiment","visual/bed.png","visual/bread.png","ArrowUp","non-ortho","","","","","","","","","","","","","","","","","","","","","","","","","","","",""
"","","","","","html-keyboard-response","164","204231","0.0-6.0-0.49","A15T9HDPHV3X7Q","2022-05-19T02:18:12.889Z","rhyme-phon_sim-task_switching-same_different","","null","rhyme","<div style=""font-size:60px;"">+</div>","null","1000","","","","","","","","","","","","","","","","","","","","","","","","","","","","","","","","","",""
"","","","","","html-keyboard-response","165","204748","0.0-6.0-1.49","A15T9HDPHV3X7Q","2022-05-19T02:18:12.889Z","rhyme-phon_sim-task_switching-same_different","","null","rhyme","<img src=""square.png"" width=""306"" height=""306"" style=""position: fixed;left:14%;top:30%""><img src=""square.png"" width=""306"" height=""306"" style=""position: fixed;left:64%;top:30%"">","null","","","","","","","","","","","","","","","","","","","","","","","","","","","","","","","","","","",""
"","","","","","html-keyboard-response","166","206685","0.0-6.0-2.49","A15T9HDPHV3X7Q","2022-05-19T02:18:12.889Z","rhyme-phon_sim-task_switching-same_different","","1934.3999998569489","rhyme","<div style=""border: 3px solid #000000; position: fixed;left:14%;top:30%""><img src=""visual/soap.png"" width=""300""></div><div style=""border: 3px solid #000000; position: fixed;left:64%;top:30%""><img src=""visual/rope.png"" width=""300""></div>","arrowup","","true","experiment","visual/soap.png","visual/rope.png","ArrowUp","non-ortho","","","","","","","","","","","","","","","","","","","","","","","","","","","",""
"","","","","","html-keyboard-response","167","206942","0.0-6.0-0.50","A15T9HDPHV3X7Q","2022-05-19T02:18:12.889Z","rhyme-phon_sim-task_switching-same_different","","null","rhyme","<div style=""font-size:60px;"">+</div>","null","250","","","","","","","","","","","","","","","","","","","","","","","","","","","","","","","","","",""
"","","","","","html-keyboard-response","168","207454","0.0-6.0-1.50","A15T9HDPHV3X7Q","2022-05-19T02:18:12.889Z","rhyme-phon_sim-task_switching-same_different","","null","rhyme","<img src=""square.png"" width=""306"" height=""306"" style=""position: fixed;left:14%;top:30%""><img src=""square.png"" width=""306"" height=""306"" style=""position: fixed;left:64%;top:30%"">","null","","","","","","","","","","","","","","","","","","","","","","","","","","","","","","","","","","",""
"","","","","","html-keyboard-response","169","209329","0.0-6.0-2.50","A15T9HDPHV3X7Q","2022-05-19T02:18:12.889Z","rhyme-phon_sim-task_switching-same_different","","1873.4000000953674","rhyme","<div style=""border: 3px solid #000000; position: fixed;left:14%;top:30%""><img src=""visual/dart.png"" width=""300""></div><div style=""border: 3px solid #000000; position: fixed;left:64%;top:30%""><img src=""visual/tie.png"" width=""300""></div>","arrowdown","","true","experiment","visual/dart.png","visual/tie.png","ArrowDown","NR","","","","","","","","","","","","","","","","","","","","","","","","","","","",""
"","","","","","html-keyboard-response","170","210082","0.0-6.0-0.51","A15T9HDPHV3X7Q","2022-05-19T02:18:12.889Z","rhyme-phon_sim-task_switching-same_different","","null","rhyme","<div style=""font-size:60px;"">+</div>","null","750","","","","","","","","","","","","","","","","","","","","","","","","","","","","","","","","","",""
"","","","","","html-keyboard-response","171","210599","0.0-6.0-1.51","A15T9HDPHV3X7Q","2022-05-19T02:18:12.889Z","rhyme-phon_sim-task_switching-same_different","","null","rhyme","<img src=""square.png"" width=""306"" height=""306"" style=""position: fixed;left:14%;top:30%""><img src=""square.png"" width=""306"" height=""306"" style=""position: fixed;left:64%;top:30%"">","null","","","","","","","","","","","","","","","","","","","","","","","","","","","","","","","","","","",""
"","","","","","html-keyboard-response","172","213952","0.0-6.0-2.51","A15T9HDPHV3X7Q","2022-05-19T02:18:12.889Z","rhyme-phon_sim-task_switching-same_different","","3350.4000000953674","rhyme","<div style=""border: 3px solid #000000; position: fixed;left:14%;top:30%""><img src=""visual/bone.png"" width=""300""></div><div style=""border: 3px solid #000000; position: fixed;left:64%;top:30%""><img src=""visual/cone.png"" width=""300""></div>","arrowdown","","false","experiment","visual/bone.png","visual/cone.png","ArrowUp","ortho","","","","","","","","","","","","","","","","","","","","","","","","","","","",""
"","","","","","html-keyboard-response","173","214455","0.0-6.0-0.52","A15T9HDPHV3X7Q","2022-05-19T02:18:12.889Z","rhyme-phon_sim-task_switching-same_different","","null","rhyme","<div style=""font-size:60px;"">+</div>","null","500","","","","","","","","","","","","","","","","","","","","","","","","","","","","","","","","","",""
"","","","","","html-keyboard-response","174","214960","0.0-6.0-1.52","A15T9HDPHV3X7Q","2022-05-19T02:18:12.889Z","rhyme-phon_sim-task_switching-same_different","","null","rhyme","<img src=""square.png"" width=""306"" height=""306"" style=""position: fixed;left:14%;top:30%""><img src=""square.png"" width=""306"" height=""306"" style=""position: fixed;left:64%;top:30%"">","null","","","","","","","","","","","","","","","","","","","","","","","","","","","","","","","","","","",""
"","","","","","html-keyboard-response","175","216768","0.0-6.0-2.52","A15T9HDPHV3X7Q","2022-05-19T02:18:12.889Z","rhyme-phon_sim-task_switching-same_different","","1804.4000000953674","rhyme","<div style=""border: 3px solid #000000; position: fixed;left:14%;top:30%""><img src=""visual/eye.png"" width=""300""></div><div style=""border: 3px solid #000000; position: fixed;left:64%;top:30%""><img src=""visual/tie.png"" width=""300""></div>","arrowup","","true","experiment","visual/eye.png","visual/tie.png","ArrowUp","non-ortho","","","","","","","","","","","","","","","","","","","","","","","","","","","",""
"","","","","","html-keyboard-response","176","217270","0.0-6.0-0.53","A15T9HDPHV3X7Q","2022-05-19T02:18:12.889Z","rhyme-phon_sim-task_switching-same_different","","null","rhyme","<div style=""font-size:60px;"">+</div>","null","500","","","","","","","","","","","","","","","","","","","","","","","","","","","","","","","","","",""
"","","","","","html-keyboard-response","177","217786","0.0-6.0-1.53","A15T9HDPHV3X7Q","2022-05-19T02:18:12.889Z","rhyme-phon_sim-task_switching-same_different","","null","rhyme","<img src=""square.png"" width=""306"" height=""306"" style=""position: fixed;left:14%;top:30%""><img src=""square.png"" width=""306"" height=""306"" style=""position: fixed;left:64%;top:30%"">","null","","","","","","","","","","","","","","","","","","","","","","","","","","","","","","","","","","",""
"","","","","","html-keyboard-response","178","219285","0.0-6.0-2.53","A15T9HDPHV3X7Q","2022-05-19T02:18:12.889Z","rhyme-phon_sim-task_switching-same_different","","1495.8000001907349","rhyme","<div style=""border: 3px solid #000000; position: fixed;left:14%;top:30%""><img src=""visual/screw.png"" width=""300""></div><div style=""border: 3px solid #000000; position: fixed;left:64%;top:30%""><img src=""visual/shoe.png"" width=""300""></div>","arrowdown","","false","experiment","visual/screw.png","visual/shoe.png","ArrowUp","non-ortho","","","","","","","","","","","","","","","","","","","","","","","","","","","",""
"","","","","","html-keyboard-response","179","220036","0.0-6.0-0.54","A15T9HDPHV3X7Q","2022-05-19T02:18:12.889Z","rhyme-phon_sim-task_switching-same_different","","null","rhyme","<div style=""font-size:60px;"">+</div>","null","750","","","","","","","","","","","","","","","","","","","","","","","","","","","","","","","","","",""
"","","","","","html-keyboard-response","180","220552","0.0-6.0-1.54","A15T9HDPHV3X7Q","2022-05-19T02:18:12.889Z","rhyme-phon_sim-task_switching-same_different","","null","rhyme","<img src=""square.png"" width=""306"" height=""306"" style=""position: fixed;left:14%;top:30%""><img src=""square.png"" width=""306"" height=""306"" style=""position: fixed;left:64%;top:30%"">","null","","","","","","","","","","","","","","","","","","","","","","","","","","","","","","","","","","",""
"","","","","","html-keyboard-response","181","222390","0.0-6.0-2.54","A15T9HDPHV3X7Q","2022-05-19T02:18:12.889Z","rhyme-phon_sim-task_switching-same_different","","1836.7000000476837","rhyme","<div style=""border: 3px solid #000000; position: fixed;left:14%;top:30%""><img src=""visual/plane.png"" width=""300""></div><div style=""border: 3px solid #000000; position: fixed;left:64%;top:30%""><img src=""visual/train.png"" width=""300""></div>","arrowup","","true","experiment","visual/plane.png","visual/train.png","ArrowUp","non-ortho","","","","","","","","","","","","","","","","","","","","","","","","","","","",""
"","","","","","html-keyboard-response","182","222653","0.0-6.0-0.55","A15T9HDPHV3X7Q","2022-05-19T02:18:12.889Z","rhyme-phon_sim-task_switching-same_different","","null","rhyme","<div style=""font-size:60px;"">+</div>","null","250","","","","","","","","","","","","","","","","","","","","","","","","","","","","","","","","","",""
"","","","","","html-keyboard-response","183","223158","0.0-6.0-1.55","A15T9HDPHV3X7Q","2022-05-19T02:18:12.889Z","rhyme-phon_sim-task_switching-same_different","","null","rhyme","<img src=""square.png"" width=""306"" height=""306"" style=""position: fixed;left:14%;top:30%""><img src=""square.png"" width=""306"" height=""306"" style=""position: fixed;left:64%;top:30%"">","null","","","","","","","","","","","","","","","","","","","","","","","","","","","","","","","","","","",""
"","","","","","html-keyboard-response","184","225992","0.0-6.0-2.55","A15T9HDPHV3X7Q","2022-05-19T02:18:12.889Z","rhyme-phon_sim-task_switching-same_different","","2830.2999999523163","rhyme","<div style=""border: 3px solid #000000; position: fixed;left:14%;top:30%""><img src=""visual/bear.png"" width=""300""></div><div style=""border: 3px solid #000000; position: fixed;left:64%;top:30%""><img src=""visual/square_rhyme.png"" width=""300""></div>","arrowdown","","false","experiment","visual/bear.png","visual/square_rhyme.png","ArrowUp","non-ortho","","","","","","","","","","","","","","","","","","","","","","","","","","","",""
"","","","","","html-keyboard-response","185","226507","0.0-6.0-0.56","A15T9HDPHV3X7Q","2022-05-19T02:18:12.889Z","rhyme-phon_sim-task_switching-same_different","","null","rhyme","<div style=""font-size:60px;"">+</div>","null","500","","","","","","","","","","","","","","","","","","","","","","","","","","","","","","","","","",""
"","","","","","html-keyboard-response","186","227011","0.0-6.0-1.56","A15T9HDPHV3X7Q","2022-05-19T02:18:12.889Z","rhyme-phon_sim-task_switching-same_different","","null","rhyme","<img src=""square.png"" width=""306"" height=""306"" style=""position: fixed;left:14%;top:30%""><img src=""square.png"" width=""306"" height=""306"" style=""position: fixed;left:64%;top:30%"">","null","","","","","","","","","","","","","","","","","","","","","","","","","","","","","","","","","","",""
"","","","","","html-keyboard-response","187","228997","0.0-6.0-2.56","A15T9HDPHV3X7Q","2022-05-19T02:18:12.889Z","rhyme-phon_sim-task_switching-same_different","","1983","rhyme","<div style=""border: 3px solid #000000; position: fixed;left:14%;top:30%""><img src=""visual/well.png"" width=""300""></div><div style=""border: 3px solid #000000; position: fixed;left:64%;top:30%""><img src=""visual/rose.png"" width=""300""></div>","arrowdown","","true","experiment","visual/well.png","visual/rose.png","ArrowDown","NR","","","","","","","","","","","","","","","","","","","","","","","","","","","",""
"","","","","","html-keyboard-response","188","229755","0.0-6.0-0.57","A15T9HDPHV3X7Q","2022-05-19T02:18:12.889Z","rhyme-phon_sim-task_switching-same_different","","null","rhyme","<div style=""font-size:60px;"">+</div>","null","750","","","","","","","","","","","","","","","","","","","","","","","","","","","","","","","","","",""
"","","","","","html-keyboard-response","189","230271","0.0-6.0-1.57","A15T9HDPHV3X7Q","2022-05-19T02:18:12.889Z","rhyme-phon_sim-task_switching-same_different","","null","rhyme","<img src=""square.png"" width=""306"" height=""306"" style=""position: fixed;left:14%;top:30%""><img src=""square.png"" width=""306"" height=""306"" style=""position: fixed;left:64%;top:30%"">","null","","","","","","","","","","","","","","","","","","","","","","","","","","","","","","","","","","",""
"","","","","","html-keyboard-response","190","231913","0.0-6.0-2.57","A15T9HDPHV3X7Q","2022-05-19T02:18:12.889Z","rhyme-phon_sim-task_switching-same_different","","1640.1000001430511","rhyme","<div style=""border: 3px solid #000000; position: fixed;left:14%;top:30%""><img src=""visual/drawer.png"" width=""300""></div><div style=""border: 3px solid #000000; position: fixed;left:64%;top:30%""><img src=""visual/chair.png"" width=""300""></div>","arrowdown","","true","experiment","visual/drawer.png","visual/chair.png","ArrowDown","NR","","","","","","","","","","","","","","","","","","","","","","","","","","","",""
"","","","","","html-keyboard-response","191","232421","0.0-6.0-0.58","A15T9HDPHV3X7Q","2022-05-19T02:18:12.889Z","rhyme-phon_sim-task_switching-same_different","","null","rhyme","<div style=""font-size:60px;"">+</div>","null","500","","","","","","","","","","","","","","","","","","","","","","","","","","","","","","","","","",""
"","","","","","html-keyboard-response","192","232938","0.0-6.0-1.58","A15T9HDPHV3X7Q","2022-05-19T02:18:12.889Z","rhyme-phon_sim-task_switching-same_different","","null","rhyme","<img src=""square.png"" width=""306"" height=""306"" style=""position: fixed;left:14%;top:30%""><img src=""square.png"" width=""306"" height=""306"" style=""position: fixed;left:64%;top:30%"">","null","","","","","","","","","","","","","","","","","","","","","","","","","","","","","","","","","","",""
"","","","","","html-keyboard-response","193","234550","0.0-6.0-2.58","A15T9HDPHV3X7Q","2022-05-19T02:18:12.889Z","rhyme-phon_sim-task_switching-same_different","","1610.7999999523163","rhyme","<div style=""border: 3px solid #000000; position: fixed;left:14%;top:30%""><img src=""visual/chain.png"" width=""300""></div><div style=""border: 3px solid #000000; position: fixed;left:64%;top:30%""><img src=""visual/brain.png"" width=""300""></div>","arrowup","","true","experiment","visual/chain.png","visual/brain.png","ArrowUp","ortho","","","","","","","","","","","","","","","","","","","","","","","","","","","",""
"","","","","","html-keyboard-response","194","235561","0.0-6.0-0.59","A15T9HDPHV3X7Q","2022-05-19T02:18:12.889Z","rhyme-phon_sim-task_switching-same_different","","null","rhyme","<div style=""font-size:60px;"">+</div>","null","1000","","","","","","","","","","","","","","","","","","","","","","","","","","","","","","","","","",""
"","","","","","html-keyboard-response","195","236079","0.0-6.0-1.59","A15T9HDPHV3X7Q","2022-05-19T02:18:12.889Z","rhyme-phon_sim-task_switching-same_different","","null","rhyme","<img src=""square.png"" width=""306"" height=""306"" style=""position: fixed;left:14%;top:30%""><img src=""square.png"" width=""306"" height=""306"" style=""position: fixed;left:64%;top:30%"">","null","","","","","","","","","","","","","","","","","","","","","","","","","","","","","","","","","","",""
"","","","","","html-keyboard-response","196","238233","0.0-6.0-2.59","A15T9HDPHV3X7Q","2022-05-19T02:18:12.889Z","rhyme-phon_sim-task_switching-same_different","","2151.300000190735","rhyme","<div style=""border: 3px solid #000000; position: fixed;left:14%;top:30%""><img src=""visual/fan.png"" width=""300""></div><div style=""border: 3px solid #000000; position: fixed;left:64%;top:30%""><img src=""visual/man.png"" width=""300""></div>","arrowdown","","false","experiment","visual/fan.png","visual/man.png","ArrowUp","ortho","","","","","","","","","","","","","","","","","","","","","","","","","","","",""
"","","","","","survey-multi-choice","197","242249","0.0-7.0","A15T9HDPHV3X7Q","2022-05-19T02:18:12.889Z","rhyme-phon_sim-task_switching-same_different","","4014.600000143051","rhyme","","{""Q0"":""Yes""}","","","","","","","","[0]","Yes","","","","","","","","","","","","","","","","","","","","","","","","","",""
"","","","","","survey-text","198","246361","0.0-8.0","A15T9HDPHV3X7Q","2022-05-19T02:18:12.889Z","rhyme-phon_sim-task_switching-same_different","","4110.399999856949","rhyme","","{""Q0"":""no""}","","","","","","","","","","no","","","","","","","","","","","","","","","","","","","","","","","","",""
"","","","","","instructions","199","247768","0.0-9.0","A15T9HDPHV3X7Q","2022-05-19T02:18:12.889Z","rhyme-phon_sim-task_switching-same_different","[{""page_index"":0,""viewing_time"":1406.5999999046326}]","1406.7999999523163","rhyme","","","","","","","","","","","","","","","","","","","","","","","","","","","","","","","","","","","","",""
"","","","","","instructions","200","253985","0.0-10.0","A15T9HDPHV3X7Q","2022-05-19T02:18:12.889Z","rhyme-phon_sim-task_switching-same_different","[{""page_index"":0,""viewing_time"":6215.700000047684}]","6215.900000095367","phon_sim","","","","","","","","","","","","","","","","","","","","","","","","","","","","","","","","","","","","",""
"","","","","","html-keyboard-response","201","266987","0.0-11.0-0.0","A15T9HDPHV3X7Q","2022-05-19T02:18:12.889Z","rhyme-phon_sim-task_switching-same_different","","null","phon_sim","<div style=""display:grid""><h1 id=""word_1"" style=""grid-column:1; grid-row:1"">pen</h1><h1 id=""word_2"" style=""visibility:hidden;grid-column:1; grid-row:1"">rig</h1><h1 id=""word_3"" style=""visibility:hidden;grid-column:1; grid-row:1"">day</h1><h1 id=""word_4"" style=""visibility:hidden;grid-column:1; grid-row:1"">bar</h1><h1 id=""word_5"" style=""visibility:hidden;grid-column:1; grid-row:1"">cow</h1></div>","null","","","training","","","","","","","","pen","rig","day","bar","cow","training","","","","","","","","","","","","","","","","","","",""
"","","","","","survey-text","202","274985","0.0-11.0-1.0","A15T9HDPHV3X7Q","2022-05-19T02:18:12.889Z","rhyme-phon_sim-task_switching-same_different","","7995.800000190735","phon_sim","","{""position_1"":""pen"",""position_2"":""rig"",""position_3"":""day"",""position_4"":""bar"",""position_5"":""cow""}","","","training","","","","","","","","","","","","","","pen","rig","day","bar","cow","","","","","","","","","","","","","",""
"","","","","","html-keyboard-response","203","279996","0.0-11.0-2.0","A15T9HDPHV3X7Q","2022-05-19T02:18:12.889Z","rhyme-phon_sim-task_switching-same_different","","null","phon_sim","<h1 id=""word_1"">pen</h1><h1 id=""word_2"">rig</h1><h1 id=""word_3"">day</h1><h1 id=""word_4"">bar</h1><h1 id=""word_5"">cow</h1>","null","","","","","","","","","","","","","","","","","","","","","","","","","","","","","","","","","","",""
"","","","","","html-keyboard-response","204","292998","0.0-11.0-0.1","A15T9HDPHV3X7Q","2022-05-19T02:18:12.889Z","rhyme-phon_sim-task_switching-same_different","","null","phon_sim","<div style=""display:grid""><h1 id=""word_1"" style=""grid-column:1; grid-row:1"">mad</h1><h1 id=""word_2"" style=""visibility:hidden;grid-column:1; grid-row:1"">man</h1><h1 id=""word_3"" style=""visibility:hidden;grid-column:1; grid-row:1"">map</h1><h1 id=""word_4"" style=""visibility:hidden;grid-column:1; grid-row:1"">mat</h1><h1 id=""word_5"" style=""visibility:hidden;grid-column:1; grid-row:1"">max</h1></div>","null","","","training","","","","","","","","mad","man","map","mat","max","training","","","","","","","","","","","","","","","","","","",""
"","","","","","survey-text","205","299649","0.0-11.0-1.1","A15T9HDPHV3X7Q","2022-05-19T02:18:12.889Z","rhyme-phon_sim-task_switching-same_different","","6648.899999856949","phon_sim","","{""position_1"":""mat"",""position_2"":""man"",""position_3"":""map"",""position_4"":"""",""position_5"":""""}","","","training","","","","","","","","","","","","","","mat","man","map","","","","","","","","","","","","","","","",""
"","","","","","html-keyboard-response","206","304651","0.0-11.0-2.1","A15T9HDPHV3X7Q","2022-05-19T02:18:12.889Z","rhyme-phon_sim-task_switching-same_different","","null","phon_sim","<h1 id=""word_1"">mad</h1><h1 id=""word_2"">man</h1><h1 id=""word_3"">map</h1><h1 id=""word_4"">mat</h1><h1 id=""word_5"">max</h1>","null","","","","","","","","","","","","","","","","","","","","","","","","","","","","","","","","","","",""
"","","","","","instructions","207","305936","0.0-12.0","A15T9HDPHV3X7Q","2022-05-19T02:18:12.889Z","rhyme-phon_sim-task_switching-same_different","[{""page_index"":0,""viewing_time"":1284.8000001907349}]","1285","","","","","","","","","","","","","","","","","","","","","","","","","","","","","","","","","","","","","",""
"","","","","","html-keyboard-response","208","318938","0.0-13.0-0.0","A15T9HDPHV3X7Q","2022-05-19T02:18:12.889Z","rhyme-phon_sim-task_switching-same_different","","null","phon_sim","<div style=""display:grid""><h1 id=""word_1"" style=""grid-column:1; grid-row:1"">board</h1><h1 id=""word_2"" style=""visibility:hidden;grid-column:1; grid-row:1"">plea</h1><h1 id=""word_3"" style=""visibility:hidden;grid-column:1; grid-row:1"">friend</h1><h1 id=""word_4"" style=""visibility:hidden;grid-column:1; grid-row:1"">row</h1><h1 id=""word_5"" style=""visibility:hidden;grid-column:1; grid-row:1"">sleigh</h1></div>","null","","","experiment","","","","","","","","board","plea","friend","row","sleigh","controlSet","","","","","","","","","","","","","","","","","","",""
"","","","","","survey-text","209","327513","0.0-13.0-1.0","A15T9HDPHV3X7Q","2022-05-19T02:18:12.889Z","rhyme-phon_sim-task_switching-same_different","","8571.599999904633","phon_sim","","{""position_1"":""board"",""position_2"":""plea"",""position_3"":""friend"",""position_4"":"""",""position_5"":""""}","","","experiment","","","","","","","","","","","","","","board","plea","friend","","","","","","","","","","","","","","","",""
