"success","timeout","failed_images","failed_audio","failed_video","trial_type","trial_index","time_elapsed","internal_node_id","worker_id","start_time","experiment_order","view_history","rt","experiment","stimulus","response","wait_time","correct","phase","image_1","image_2","cor_key","type","question_order","talk_out_loud","strategy_free_ans","judgment_type","stim_1","stim_2","inverted","answer","true_pos","true_neg","false_pos","false_neg","condition","operation","trial_no","symbol_cue","color_cue","word_1","word_2","word_3","word_4","word_5","original_word_set","response_1","response_2","response_3","response_4","response_5"
"true","false","[]","[]","[]","preload","0","5695","0.0-0.0","A1PUSSRD8P5HHH","2022-05-27T03:39:06.329Z","rhyme-same_different-task_switching-phon_sim","","","","","","","","","","","","","","","","","","","","","","","","","","","","","","","","","","","","","","","",""
"","","","","","instructions","1","55484","0.0-1.0","A1PUSSRD8P5HHH","2022-05-27T03:39:06.329Z","rhyme-same_different-task_switching-phon_sim","[{""page_index"":0,""viewing_time"":49788.5}]","49789.09999990463","","","","","","","","","","","","","","","","","","","","","","","","","","","","","","","","","","","","","",""
"true","","","","","fullscreen","2","61167","0.0-2.0","A1PUSSRD8P5HHH","2022-05-27T03:39:06.329Z","rhyme-same_different-task_switching-phon_sim","","","","","","","","","","","","","","","","","","","","","","","","","","","","","","","","","","","","","","","",""
"","","","","","instructions","3","127653","0.0-3.0","A1PUSSRD8P5HHH","2022-05-27T03:39:06.329Z","rhyme-same_different-task_switching-phon_sim","[{""page_index"":0,""viewing_time"":66486.59999990463}]","66487.2999997139","rhyme","","","","","","","","","","","","","","","","","","","","","","","","","","","","","","","","","","","","",""
"","","","","","html-keyboard-response","4","128419","0.0-4.0-0.0","A1PUSSRD8P5HHH","2022-05-27T03:39:06.329Z","rhyme-same_different-task_switching-phon_sim","","null","rhyme","<div style=""font-size:60px;"">+</div>","null","750","","","","","","","","","","","","","","","","","","","","","","","","","","","","","","","","","",""
"","","","","","html-keyboard-response","5","128924","0.0-4.0-1.0","A1PUSSRD8P5HHH","2022-05-27T03:39:06.329Z","rhyme-same_different-task_switching-phon_sim","","null","rhyme","<img src=""square.png"" width=""306"" height=""306"" style=""position: fixed;left:14%;top:30%""><img src=""square.png"" width=""306"" height=""306"" style=""position: fixed;left:64%;top:30%"">","null","","","","","","","","","","","","","","","","","","","","","","","","","","","","","","","","","","",""
"","","","","","categorize-html","6","134677","0.0-4.0-2.0","A1PUSSRD8P5HHH","2022-05-27T03:39:06.329Z","rhyme-same_different-task_switching-phon_sim","","4745.5","rhyme","<div style=""border: 3px solid #000000; position: fixed;left:14%;top:30%""><img src=""visual/chess.png"" width=""300""></div><div style=""border: 3px solid #000000; position: fixed;left:64%;top:30%""><img src=""visual/suit.png"" width=""300""></div>","arrowup","","false","training","visual/chess.png","visual/suit.png","ArrowDown","NA","","","","","","","","","","","","","","","","","","","","","","","","","","","",""
"","","","","","html-keyboard-response","7","134936","0.0-4.0-0.1","A1PUSSRD8P5HHH","2022-05-27T03:39:06.329Z","rhyme-same_different-task_switching-phon_sim","","null","rhyme","<div style=""font-size:60px;"">+</div>","null","250","","","","","","","","","","","","","","","","","","","","","","","","","","","","","","","","","",""
"","","","","","html-keyboard-response","8","135450","0.0-4.0-1.1","A1PUSSRD8P5HHH","2022-05-27T03:39:06.329Z","rhyme-same_different-task_switching-phon_sim","","null","rhyme","<img src=""square.png"" width=""306"" height=""306"" style=""position: fixed;left:14%;top:30%""><img src=""square.png"" width=""306"" height=""306"" style=""position: fixed;left:64%;top:30%"">","null","","","","","","","","","","","","","","","","","","","","","","","","","","","","","","","","","","",""
"","","","","","categorize-html","9","139105","0.0-4.0-2.1","A1PUSSRD8P5HHH","2022-05-27T03:39:06.329Z","rhyme-same_different-task_switching-phon_sim","","2644.5","rhyme","<div style=""border: 3px solid #000000; position: fixed;left:14%;top:30%""><img src=""visual/house.png"" width=""300""></div><div style=""border: 3px solid #000000; position: fixed;left:64%;top:30%""><img src=""visual/mouse.png"" width=""300""></div>","arrowdown","","false","training","visual/house.png","visual/mouse.png","ArrowUp","NA","","","","","","","","","","","","","","","","","","","","","","","","","","","",""
"","","","","","html-keyboard-response","10","139358","0.0-4.0-0.2","A1PUSSRD8P5HHH","2022-05-27T03:39:06.329Z","rhyme-same_different-task_switching-phon_sim","","null","rhyme","<div style=""font-size:60px;"">+</div>","null","250","","","","","","","","","","","","","","","","","","","","","","","","","","","","","","","","","",""
"","","","","","html-keyboard-response","11","139870","0.0-4.0-1.2","A1PUSSRD8P5HHH","2022-05-27T03:39:06.329Z","rhyme-same_different-task_switching-phon_sim","","null","rhyme","<img src=""square.png"" width=""306"" height=""306"" style=""position: fixed;left:14%;top:30%""><img src=""square.png"" width=""306"" height=""306"" style=""position: fixed;left:64%;top:30%"">","null","","","","","","","","","","","","","","","","","","","","","","","","","","","","","","","","","","",""
"","","","","","categorize-html","12","142449","0.0-4.0-2.2","A1PUSSRD8P5HHH","2022-05-27T03:39:06.329Z","rhyme-same_different-task_switching-phon_sim","","1569.3000001907349","rhyme","<div style=""border: 3px solid #000000; position: fixed;left:14%;top:30%""><img src=""visual/mouse.png"" width=""300""></div><div style=""border: 3px solid #000000; position: fixed;left:64%;top:30%""><img src=""visual/dress.png"" width=""300""></div>","arrowup","","false","training","visual/mouse.png","visual/dress.png","ArrowDown","NA","","","","","","","","","","","","","","","","","","","","","","","","","","","",""
"","","","","","html-keyboard-response","13","142957","0.0-4.0-0.3","A1PUSSRD8P5HHH","2022-05-27T03:39:06.329Z","rhyme-same_different-task_switching-phon_sim","","null","rhyme","<div style=""font-size:60px;"">+</div>","null","500","","","","","","","","","","","","","","","","","","","","","","","","","","","","","","","","","",""
"","","","","","html-keyboard-response","14","143472","0.0-4.0-1.3","A1PUSSRD8P5HHH","2022-05-27T03:39:06.329Z","rhyme-same_different-task_switching-phon_sim","","null","rhyme","<img src=""square.png"" width=""306"" height=""306"" style=""position: fixed;left:14%;top:30%""><img src=""square.png"" width=""306"" height=""306"" style=""position: fixed;left:64%;top:30%"">","null","","","","","","","","","","","","","","","","","","","","","","","","","","","","","","","","","","",""
"","","","","","categorize-html","15","146444","0.0-4.0-2.3","A1PUSSRD8P5HHH","2022-05-27T03:39:06.329Z","rhyme-same_different-task_switching-phon_sim","","1969.4000000953674","rhyme","<div style=""border: 3px solid #000000; position: fixed;left:14%;top:30%""><img src=""visual/dress.png"" width=""300""></div><div style=""border: 3px solid #000000; position: fixed;left:64%;top:30%""><img src=""visual/chess.png"" width=""300""></div>","arrowup","","true","training","visual/dress.png","visual/chess.png","ArrowUp","NA","","","","","","","","","","","","","","","","","","","","","","","","","","","",""
"","","","","","instructions","16","150755","0.0-5.0","A1PUSSRD8P5HHH","2022-05-27T03:39:06.329Z","rhyme-same_different-task_switching-phon_sim","[{""page_index"":0,""viewing_time"":4310.800000190735}]","4310.900000095367","","","","","","","","","","","","","","","","","","","","","","","","","","","","","","","","","","","","","",""
"","","","","","html-keyboard-response","17","151757","0.0-6.0-0.0","A1PUSSRD8P5HHH","2022-05-27T03:39:06.329Z","rhyme-same_different-task_switching-phon_sim","","null","rhyme","<div style=""font-size:60px;"">+</div>","null","1000","","","","","","","","","","","","","","","","","","","","","","","","","","","","","","","","","",""
"","","","","","html-keyboard-response","18","152260","0.0-6.0-1.0","A1PUSSRD8P5HHH","2022-05-27T03:39:06.329Z","rhyme-same_different-task_switching-phon_sim","","null","rhyme","<img src=""square.png"" width=""306"" height=""306"" style=""position: fixed;left:14%;top:30%""><img src=""square.png"" width=""306"" height=""306"" style=""position: fixed;left:64%;top:30%"">","null","","","","","","","","","","","","","","","","","","","","","","","","","","","","","","","","","","",""
"","","","","","html-keyboard-response","19","154587","0.0-6.0-2.0","A1PUSSRD8P5HHH","2022-05-27T03:39:06.329Z","rhyme-same_different-task_switching-phon_sim","","2323.699999809265","rhyme","<div style=""border: 3px solid #000000; position: fixed;left:14%;top:30%""><img src=""visual/king.png"" width=""300""></div><div style=""border: 3px solid #000000; position: fixed;left:64%;top:30%""><img src=""visual/ring.png"" width=""300""></div>","arrowup","","true","experiment","visual/king.png","visual/ring.png","ArrowUp","ortho","","","","","","","","","","","","","","","","","","","","","","","","","","","",""
"","","","","","html-keyboard-response","20","155348","0.0-6.0-0.1","A1PUSSRD8P5HHH","2022-05-27T03:39:06.329Z","rhyme-same_different-task_switching-phon_sim","","null","rhyme","<div style=""font-size:60px;"">+</div>","null","750","","","","","","","","","","","","","","","","","","","","","","","","","","","","","","","","","",""
"","","","","","html-keyboard-response","21","155860","0.0-6.0-1.1","A1PUSSRD8P5HHH","2022-05-27T03:39:06.329Z","rhyme-same_different-task_switching-phon_sim","","null","rhyme","<img src=""square.png"" width=""306"" height=""306"" style=""position: fixed;left:14%;top:30%""><img src=""square.png"" width=""306"" height=""306"" style=""position: fixed;left:64%;top:30%"">","null","","","","","","","","","","","","","","","","","","","","","","","","","","","","","","","","","","",""
"","","","","","html-keyboard-response","22","156887","0.0-6.0-2.1","A1PUSSRD8P5HHH","2022-05-27T03:39:06.329Z","rhyme-same_different-task_switching-phon_sim","","1025.2999997138977","rhyme","<div style=""border: 3px solid #000000; position: fixed;left:14%;top:30%""><img src=""visual/box.png"" width=""300""></div><div style=""border: 3px solid #000000; position: fixed;left:64%;top:30%""><img src=""visual/fox.png"" width=""300""></div>","arrowup","","true","experiment","visual/box.png","visual/fox.png","ArrowUp","ortho","","","","","","","","","","","","","","","","","","","","","","","","","","","",""
"","","","","","html-keyboard-response","23","157139","0.0-6.0-0.2","A1PUSSRD8P5HHH","2022-05-27T03:39:06.329Z","rhyme-same_different-task_switching-phon_sim","","null","rhyme","<div style=""font-size:60px;"">+</div>","null","250","","","","","","","","","","","","","","","","","","","","","","","","","","","","","","","","","",""
"","","","","","html-keyboard-response","24","157648","0.0-6.0-1.2","A1PUSSRD8P5HHH","2022-05-27T03:39:06.329Z","rhyme-same_different-task_switching-phon_sim","","null","rhyme","<img src=""square.png"" width=""306"" height=""306"" style=""position: fixed;left:14%;top:30%""><img src=""square.png"" width=""306"" height=""306"" style=""position: fixed;left:64%;top:30%"">","null","","","","","","","","","","","","","","","","","","","","","","","","","","","","","","","","","","",""
"","","","","","html-keyboard-response","25","158769","0.0-6.0-2.2","A1PUSSRD8P5HHH","2022-05-27T03:39:06.329Z","rhyme-same_different-task_switching-phon_sim","","1118.5999999046326","rhyme","<div style=""border: 3px solid #000000; position: fixed;left:14%;top:30%""><img src=""visual/shark.png"" width=""300""></div><div style=""border: 3px solid #000000; position: fixed;left:64%;top:30%""><img src=""visual/park.png"" width=""300""></div>","arrowup","","true","experiment","visual/shark.png","visual/park.png","ArrowUp","ortho","","","","","","","","","","","","","","","","","","","","","","","","","","","",""
"","","","","","html-keyboard-response","26","159035","0.0-6.0-0.3","A1PUSSRD8P5HHH","2022-05-27T03:39:06.329Z","rhyme-same_different-task_switching-phon_sim","","null","rhyme","<div style=""font-size:60px;"">+</div>","null","250","","","","","","","","","","","","","","","","","","","","","","","","","","","","","","","","","",""
"","","","","","html-keyboard-response","27","159551","0.0-6.0-1.3","A1PUSSRD8P5HHH","2022-05-27T03:39:06.329Z","rhyme-same_different-task_switching-phon_sim","","null","rhyme","<img src=""square.png"" width=""306"" height=""306"" style=""position: fixed;left:14%;top:30%""><img src=""square.png"" width=""306"" height=""306"" style=""position: fixed;left:64%;top:30%"">","null","","","","","","","","","","","","","","","","","","","","","","","","","","","","","","","","","","",""
"","","","","","html-keyboard-response","28","160572","0.0-6.0-2.3","A1PUSSRD8P5HHH","2022-05-27T03:39:06.329Z","rhyme-same_different-task_switching-phon_sim","","1019.4000000953674","rhyme","<div style=""border: 3px solid #000000; position: fixed;left:14%;top:30%""><img src=""visual/well.png"" width=""300""></div><div style=""border: 3px solid #000000; position: fixed;left:64%;top:30%""><img src=""visual/bell.png"" width=""300""></div>","arrowup","","true","experiment","visual/well.png","visual/bell.png","ArrowUp","ortho","","","","","","","","","","","","","","","","","","","","","","","","","","","",""
"","","","","","html-keyboard-response","29","160832","0.0-6.0-0.4","A1PUSSRD8P5HHH","2022-05-27T03:39:06.329Z","rhyme-same_different-task_switching-phon_sim","","null","rhyme","<div style=""font-size:60px;"">+</div>","null","250","","","","","","","","","","","","","","","","","","","","","","","","","","","","","","","","","",""
"","","","","","html-keyboard-response","30","161350","0.0-6.0-1.4","A1PUSSRD8P5HHH","2022-05-27T03:39:06.329Z","rhyme-same_different-task_switching-phon_sim","","null","rhyme","<img src=""square.png"" width=""306"" height=""306"" style=""position: fixed;left:14%;top:30%""><img src=""square.png"" width=""306"" height=""306"" style=""position: fixed;left:64%;top:30%"">","null","","","","","","","","","","","","","","","","","","","","","","","","","","","","","","","","","","",""
"","","","","","html-keyboard-response","31","162065","0.0-6.0-2.4","A1PUSSRD8P5HHH","2022-05-27T03:39:06.329Z","rhyme-same_different-task_switching-phon_sim","","713.7999997138977","rhyme","<div style=""border: 3px solid #000000; position: fixed;left:14%;top:30%""><img src=""visual/king.png"" width=""300""></div><div style=""border: 3px solid #000000; position: fixed;left:64%;top:30%""><img src=""visual/cab.png"" width=""300""></div>","arrowup","","false","experiment","visual/king.png","visual/cab.png","ArrowDown","NR","","","","","","","","","","","","","","","","","","","","","","","","","","","",""
"","","","","","html-keyboard-response","32","162326","0.0-6.0-0.5","A1PUSSRD8P5HHH","2022-05-27T03:39:06.329Z","rhyme-same_different-task_switching-phon_sim","","null","rhyme","<div style=""font-size:60px;"">+</div>","null","250","","","","","","","","","","","","","","","","","","","","","","","","","","","","","","","","","",""
"","","","","","html-keyboard-response","33","162829","0.0-6.0-1.5","A1PUSSRD8P5HHH","2022-05-27T03:39:06.329Z","rhyme-same_different-task_switching-phon_sim","","null","rhyme","<img src=""square.png"" width=""306"" height=""306"" style=""position: fixed;left:14%;top:30%""><img src=""square.png"" width=""306"" height=""306"" style=""position: fixed;left:64%;top:30%"">","null","","","","","","","","","","","","","","","","","","","","","","","","","","","","","","","","","","",""
"","","","","","html-keyboard-response","34","163725","0.0-6.0-2.5","A1PUSSRD8P5HHH","2022-05-27T03:39:06.329Z","rhyme-same_different-task_switching-phon_sim","","894.3000001907349","rhyme","<div style=""border: 3px solid #000000; position: fixed;left:14%;top:30%""><img src=""visual/jar.png"" width=""300""></div><div style=""border: 3px solid #000000; position: fixed;left:64%;top:30%""><img src=""visual/whale.png"" width=""300""></div>","arrowup","","false","experiment","visual/jar.png","visual/whale.png","ArrowDown","NR","","","","","","","","","","","","","","","","","","","","","","","","","","","",""
"","","","","","html-keyboard-response","35","164489","0.0-6.0-0.6","A1PUSSRD8P5HHH","2022-05-27T03:39:06.329Z","rhyme-same_different-task_switching-phon_sim","","null","rhyme","<div style=""font-size:60px;"">+</div>","null","750","","","","","","","","","","","","","","","","","","","","","","","","","","","","","","","","","",""
"","","","","","html-keyboard-response","36","164998","0.0-6.0-1.6","A1PUSSRD8P5HHH","2022-05-27T03:39:06.329Z","rhyme-same_different-task_switching-phon_sim","","null","rhyme","<img src=""square.png"" width=""306"" height=""306"" style=""position: fixed;left:14%;top:30%""><img src=""square.png"" width=""306"" height=""306"" style=""position: fixed;left:64%;top:30%"">","null","","","","","","","","","","","","","","","","","","","","","","","","","","","","","","","","","","",""
"","","","","","html-keyboard-response","37","165799","0.0-6.0-2.6","A1PUSSRD8P5HHH","2022-05-27T03:39:06.329Z","rhyme-same_different-task_switching-phon_sim","","796","rhyme","<div style=""border: 3px solid #000000; position: fixed;left:14%;top:30%""><img src=""visual/sock.png"" width=""300""></div><div style=""border: 3px solid #000000; position: fixed;left:64%;top:30%""><img src=""visual/clock.png"" width=""300""></div>","arrowup","","true","experiment","visual/sock.png","visual/clock.png","ArrowUp","ortho","","","","","","","","","","","","","","","","","","","","","","","","","","","",""
"","","","","","html-keyboard-response","38","166054","0.0-6.0-0.7","A1PUSSRD8P5HHH","2022-05-27T03:39:06.329Z","rhyme-same_different-task_switching-phon_sim","","null","rhyme","<div style=""font-size:60px;"">+</div>","null","250","","","","","","","","","","","","","","","","","","","","","","","","","","","","","","","","","",""
"","","","","","html-keyboard-response","39","166559","0.0-6.0-1.7","A1PUSSRD8P5HHH","2022-05-27T03:39:06.329Z","rhyme-same_different-task_switching-phon_sim","","null","rhyme","<img src=""square.png"" width=""306"" height=""306"" style=""position: fixed;left:14%;top:30%""><img src=""square.png"" width=""306"" height=""306"" style=""position: fixed;left:64%;top:30%"">","null","","","","","","","","","","","","","","","","","","","","","","","","","","","","","","","","","","",""
"","","","","","html-keyboard-response","40","167311","0.0-6.0-2.7","A1PUSSRD8P5HHH","2022-05-27T03:39:06.329Z","rhyme-same_different-task_switching-phon_sim","","751","rhyme","<div style=""border: 3px solid #000000; position: fixed;left:14%;top:30%""><img src=""visual/flag.png"" width=""300""></div><div style=""border: 3px solid #000000; position: fixed;left:64%;top:30%""><img src=""visual/bag.png"" width=""300""></div>","arrowup","","true","experiment","visual/flag.png","visual/bag.png","ArrowUp","ortho","","","","","","","","","","","","","","","","","","","","","","","","","","","",""
"","","","","","html-keyboard-response","41","168075","0.0-6.0-0.8","A1PUSSRD8P5HHH","2022-05-27T03:39:06.329Z","rhyme-same_different-task_switching-phon_sim","","null","rhyme","<div style=""font-size:60px;"">+</div>","null","750","","","","","","","","","","","","","","","","","","","","","","","","","","","","","","","","","",""
"","","","","","html-keyboard-response","42","168580","0.0-6.0-1.8","A1PUSSRD8P5HHH","2022-05-27T03:39:06.329Z","rhyme-same_different-task_switching-phon_sim","","null","rhyme","<img src=""square.png"" width=""306"" height=""306"" style=""position: fixed;left:14%;top:30%""><img src=""square.png"" width=""306"" height=""306"" style=""position: fixed;left:64%;top:30%"">","null","","","","","","","","","","","","","","","","","","","","","","","","","","","","","","","","","","",""
"","","","","","html-keyboard-response","43","169286","0.0-6.0-2.8","A1PUSSRD8P5HHH","2022-05-27T03:39:06.329Z","rhyme-same_different-task_switching-phon_sim","","704.5999999046326","rhyme","<div style=""border: 3px solid #000000; position: fixed;left:14%;top:30%""><img src=""visual/bear.png"" width=""300""></div><div style=""border: 3px solid #000000; position: fixed;left:64%;top:30%""><img src=""visual/hair.png"" width=""300""></div>","arrowup","","true","experiment","visual/bear.png","visual/hair.png","ArrowUp","non-ortho","","","","","","","","","","","","","","","","","","","","","","","","","","","",""
"","","","","","html-keyboard-response","44","170294","0.0-6.0-0.9","A1PUSSRD8P5HHH","2022-05-27T03:39:06.329Z","rhyme-same_different-task_switching-phon_sim","","null","rhyme","<div style=""font-size:60px;"">+</div>","null","1000","","","","","","","","","","","","","","","","","","","","","","","","","","","","","","","","","",""
"","","","","","html-keyboard-response","45","170801","0.0-6.0-1.9","A1PUSSRD8P5HHH","2022-05-27T03:39:06.329Z","rhyme-same_different-task_switching-phon_sim","","null","rhyme","<img src=""square.png"" width=""306"" height=""306"" style=""position: fixed;left:14%;top:30%""><img src=""square.png"" width=""306"" height=""306"" style=""position: fixed;left:64%;top:30%"">","null","","","","","","","","","","","","","","","","","","","","","","","","","","","","","","","","","","",""
"","","","","","html-keyboard-response","46","170965","0.0-6.0-2.9","A1PUSSRD8P5HHH","2022-05-27T03:39:06.329Z","rhyme-same_different-task_switching-phon_sim","","160.40000009536743","rhyme","<div style=""border: 3px solid #000000; position: fixed;left:14%;top:30%""><img src=""visual/cat.png"" width=""300""></div><div style=""border: 3px solid #000000; position: fixed;left:64%;top:30%""><img src=""visual/sock.png"" width=""300""></div>","arrowup","","false","experiment","visual/cat.png","visual/sock.png","ArrowDown","NR","","","","","","","","","","","","","","","","","","","","","","","","","","","",""
"","","","","","html-keyboard-response","47","171232","0.0-6.0-0.10","A1PUSSRD8P5HHH","2022-05-27T03:39:06.329Z","rhyme-same_different-task_switching-phon_sim","","null","rhyme","<div style=""font-size:60px;"">+</div>","null","250","","","","","","","","","","","","","","","","","","","","","","","","","","","","","","","","","",""
"","","","","","html-keyboard-response","48","171749","0.0-6.0-1.10","A1PUSSRD8P5HHH","2022-05-27T03:39:06.329Z","rhyme-same_different-task_switching-phon_sim","","null","rhyme","<img src=""square.png"" width=""306"" height=""306"" style=""position: fixed;left:14%;top:30%""><img src=""square.png"" width=""306"" height=""306"" style=""position: fixed;left:64%;top:30%"">","null","","","","","","","","","","","","","","","","","","","","","","","","","","","","","","","","","","",""
"","","","","","html-keyboard-response","49","172646","0.0-6.0-2.10","A1PUSSRD8P5HHH","2022-05-27T03:39:06.329Z","rhyme-same_different-task_switching-phon_sim","","893.9000000953674","rhyme","<div style=""border: 3px solid #000000; position: fixed;left:14%;top:30%""><img src=""visual/bin.png"" width=""300""></div><div style=""border: 3px solid #000000; position: fixed;left:64%;top:30%""><img src=""visual/chin.png"" width=""300""></div>","arrowup","","true","experiment","visual/bin.png","visual/chin.png","ArrowUp","ortho","","","","","","","","","","","","","","","","","","","","","","","","","","","",""
"","","","","","html-keyboard-response","50","172910","0.0-6.0-0.11","A1PUSSRD8P5HHH","2022-05-27T03:39:06.329Z","rhyme-same_different-task_switching-phon_sim","","null","rhyme","<div style=""font-size:60px;"">+</div>","null","250","","","","","","","","","","","","","","","","","","","","","","","","","","","","","","","","","",""
"","","","","","html-keyboard-response","51","173416","0.0-6.0-1.11","A1PUSSRD8P5HHH","2022-05-27T03:39:06.329Z","rhyme-same_different-task_switching-phon_sim","","null","rhyme","<img src=""square.png"" width=""306"" height=""306"" style=""position: fixed;left:14%;top:30%""><img src=""square.png"" width=""306"" height=""306"" style=""position: fixed;left:64%;top:30%"">","null","","","","","","","","","","","","","","","","","","","","","","","","","","","","","","","","","","",""
"","","","","","html-keyboard-response","52","174443","0.0-6.0-2.11","A1PUSSRD8P5HHH","2022-05-27T03:39:06.329Z","rhyme-same_different-task_switching-phon_sim","","1024.5999999046326","rhyme","<div style=""border: 3px solid #000000; position: fixed;left:14%;top:30%""><img src=""visual/plane.png"" width=""300""></div><div style=""border: 3px solid #000000; position: fixed;left:64%;top:30%""><img src=""visual/chain.png"" width=""300""></div>","arrowup","","true","experiment","visual/plane.png","visual/chain.png","ArrowUp","non-ortho","","","","","","","","","","","","","","","","","","","","","","","","","","","",""
"","","","","","html-keyboard-response","53","174697","0.0-6.0-0.12","A1PUSSRD8P5HHH","2022-05-27T03:39:06.329Z","rhyme-same_different-task_switching-phon_sim","","null","rhyme","<div style=""font-size:60px;"">+</div>","null","250","","","","","","","","","","","","","","","","","","","","","","","","","","","","","","","","","",""
"","","","","","html-keyboard-response","54","175210","0.0-6.0-1.12","A1PUSSRD8P5HHH","2022-05-27T03:39:06.329Z","rhyme-same_different-task_switching-phon_sim","","null","rhyme","<img src=""square.png"" width=""306"" height=""306"" style=""position: fixed;left:14%;top:30%""><img src=""square.png"" width=""306"" height=""306"" style=""position: fixed;left:64%;top:30%"">","null","","","","","","","","","","","","","","","","","","","","","","","","","","","","","","","","","","",""
"","","","","","html-keyboard-response","55","176277","0.0-6.0-2.12","A1PUSSRD8P5HHH","2022-05-27T03:39:06.329Z","rhyme-same_different-task_switching-phon_sim","","1064","rhyme","<div style=""border: 3px solid #000000; position: fixed;left:14%;top:30%""><img src=""visual/egg.png"" width=""300""></div><div style=""border: 3px solid #000000; position: fixed;left:64%;top:30%""><img src=""visual/leg.png"" width=""300""></div>","arrowup","","true","experiment","visual/egg.png","visual/leg.png","ArrowUp","ortho","","","","","","","","","","","","","","","","","","","","","","","","","","","",""
"","","","","","html-keyboard-response","56","176540","0.0-6.0-0.13","A1PUSSRD8P5HHH","2022-05-27T03:39:06.329Z","rhyme-same_different-task_switching-phon_sim","","null","rhyme","<div style=""font-size:60px;"">+</div>","null","250","","","","","","","","","","","","","","","","","","","","","","","","","","","","","","","","","",""
"","","","","","html-keyboard-response","57","177046","0.0-6.0-1.13","A1PUSSRD8P5HHH","2022-05-27T03:39:06.329Z","rhyme-same_different-task_switching-phon_sim","","null","rhyme","<img src=""square.png"" width=""306"" height=""306"" style=""position: fixed;left:14%;top:30%""><img src=""square.png"" width=""306"" height=""306"" style=""position: fixed;left:64%;top:30%"">","null","","","","","","","","","","","","","","","","","","","","","","","","","","","","","","","","","","",""
"","","","","","html-keyboard-response","58","177906","0.0-6.0-2.13","A1PUSSRD8P5HHH","2022-05-27T03:39:06.329Z","rhyme-same_different-task_switching-phon_sim","","857.6999998092651","rhyme","<div style=""border: 3px solid #000000; position: fixed;left:14%;top:30%""><img src=""visual/cake.png"" width=""300""></div><div style=""border: 3px solid #000000; position: fixed;left:64%;top:30%""><img src=""visual/rake.png"" width=""300""></div>","arrowup","","true","experiment","visual/cake.png","visual/rake.png","ArrowUp","ortho","","","","","","","","","","","","","","","","","","","","","","","","","","","",""
"","","","","","html-keyboard-response","59","178174","0.0-6.0-0.14","A1PUSSRD8P5HHH","2022-05-27T03:39:06.329Z","rhyme-same_different-task_switching-phon_sim","","null","rhyme","<div style=""font-size:60px;"">+</div>","null","250","","","","","","","","","","","","","","","","","","","","","","","","","","","","","","","","","",""
"","","","","","html-keyboard-response","60","178689","0.0-6.0-1.14","A1PUSSRD8P5HHH","2022-05-27T03:39:06.329Z","rhyme-same_different-task_switching-phon_sim","","null","rhyme","<img src=""square.png"" width=""306"" height=""306"" style=""position: fixed;left:14%;top:30%""><img src=""square.png"" width=""306"" height=""306"" style=""position: fixed;left:64%;top:30%"">","null","","","","","","","","","","","","","","","","","","","","","","","","","","","","","","","","","","",""
"","","","","","html-keyboard-response","61","179683","0.0-6.0-2.14","A1PUSSRD8P5HHH","2022-05-27T03:39:06.329Z","rhyme-same_different-task_switching-phon_sim","","991.8000001907349","rhyme","<div style=""border: 3px solid #000000; position: fixed;left:14%;top:30%""><img src=""visual/key.png"" width=""300""></div><div style=""border: 3px solid #000000; position: fixed;left:64%;top:30%""><img src=""visual/tree.png"" width=""300""></div>","arrowup","","true","experiment","visual/key.png","visual/tree.png","ArrowUp","non-ortho","","","","","","","","","","","","","","","","","","","","","","","","","","","",""
"","","","","","html-keyboard-response","62","180691","0.0-6.0-0.15","A1PUSSRD8P5HHH","2022-05-27T03:39:06.329Z","rhyme-same_different-task_switching-phon_sim","","null","rhyme","<div style=""font-size:60px;"">+</div>","null","1000","","","","","","","","","","","","","","","","","","","","","","","","","","","","","","","","","",""
"","","","","","html-keyboard-response","63","181207","0.0-6.0-1.15","A1PUSSRD8P5HHH","2022-05-27T03:39:06.329Z","rhyme-same_different-task_switching-phon_sim","","null","rhyme","<img src=""square.png"" width=""306"" height=""306"" style=""position: fixed;left:14%;top:30%""><img src=""square.png"" width=""306"" height=""306"" style=""position: fixed;left:64%;top:30%"">","null","","","","","","","","","","","","","","","","","","","","","","","","","","","","","","","","","","",""
"","","","","","html-keyboard-response","64","181369","0.0-6.0-2.15","A1PUSSRD8P5HHH","2022-05-27T03:39:06.329Z","rhyme-same_different-task_switching-phon_sim","","159.69999980926514","rhyme","<div style=""border: 3px solid #000000; position: fixed;left:14%;top:30%""><img src=""visual/snail.png"" width=""300""></div><div style=""border: 3px solid #000000; position: fixed;left:64%;top:30%""><img src=""visual/whale.png"" width=""300""></div>","arrowup","","true","experiment","visual/snail.png","visual/whale.png","ArrowUp","non-ortho","","","","","","","","","","","","","","","","","","","","","","","","","","","",""
"","","","","","html-keyboard-response","65","181621","0.0-6.0-0.16","A1PUSSRD8P5HHH","2022-05-27T03:39:06.329Z","rhyme-same_different-task_switching-phon_sim","","null","rhyme","<div style=""font-size:60px;"">+</div>","null","250","","","","","","","","","","","","","","","","","","","","","","","","","","","","","","","","","",""
"","","","","","html-keyboard-response","66","182137","0.0-6.0-1.16","A1PUSSRD8P5HHH","2022-05-27T03:39:06.329Z","rhyme-same_different-task_switching-phon_sim","","null","rhyme","<img src=""square.png"" width=""306"" height=""306"" style=""position: fixed;left:14%;top:30%""><img src=""square.png"" width=""306"" height=""306"" style=""position: fixed;left:64%;top:30%"">","null","","","","","","","","","","","","","","","","","","","","","","","","","","","","","","","","","","",""
"","","","","","html-keyboard-response","67","183135","0.0-6.0-2.16","A1PUSSRD8P5HHH","2022-05-27T03:39:06.329Z","rhyme-same_different-task_switching-phon_sim","","996.5","rhyme","<div style=""border: 3px solid #000000; position: fixed;left:14%;top:30%""><img src=""visual/chain.png"" width=""300""></div><div style=""border: 3px solid #000000; position: fixed;left:64%;top:30%""><img src=""visual/brain.png"" width=""300""></div>","arrowup","","true","experiment","visual/chain.png","visual/brain.png","ArrowUp","ortho","","","","","","","","","","","","","","","","","","","","","","","","","","","",""
"","","","","","html-keyboard-response","68","183393","0.0-6.0-0.17","A1PUSSRD8P5HHH","2022-05-27T03:39:06.329Z","rhyme-same_different-task_switching-phon_sim","","null","rhyme","<div style=""font-size:60px;"">+</div>","null","250","","","","","","","","","","","","","","","","","","","","","","","","","","","","","","","","","",""
"","","","","","html-keyboard-response","69","183903","0.0-6.0-1.17","A1PUSSRD8P5HHH","2022-05-27T03:39:06.329Z","rhyme-same_different-task_switching-phon_sim","","null","rhyme","<img src=""square.png"" width=""306"" height=""306"" style=""position: fixed;left:14%;top:30%""><img src=""square.png"" width=""306"" height=""306"" style=""position: fixed;left:64%;top:30%"">","null","","","","","","","","","","","","","","","","","","","","","","","","","","","","","","","","","","",""
"","","","","","html-keyboard-response","70","184725","0.0-6.0-2.17","A1PUSSRD8P5HHH","2022-05-27T03:39:06.329Z","rhyme-same_different-task_switching-phon_sim","","820.1999998092651","rhyme","<div style=""border: 3px solid #000000; position: fixed;left:14%;top:30%""><img src=""visual/drawer.png"" width=""300""></div><div style=""border: 3px solid #000000; position: fixed;left:64%;top:30%""><img src=""visual/door.png"" width=""300""></div>","arrowup","","true","experiment","visual/drawer.png","visual/door.png","ArrowUp","non-ortho","","","","","","","","","","","","","","","","","","","","","","","","","","","",""
"","","","","","html-keyboard-response","71","185227","0.0-6.0-0.18","A1PUSSRD8P5HHH","2022-05-27T03:39:06.329Z","rhyme-same_different-task_switching-phon_sim","","null","rhyme","<div style=""font-size:60px;"">+</div>","null","500","","","","","","","","","","","","","","","","","","","","","","","","","","","","","","","","","",""
"","","","","","html-keyboard-response","72","185732","0.0-6.0-1.18","A1PUSSRD8P5HHH","2022-05-27T03:39:06.329Z","rhyme-same_different-task_switching-phon_sim","","null","rhyme","<img src=""square.png"" width=""306"" height=""306"" style=""position: fixed;left:14%;top:30%""><img src=""square.png"" width=""306"" height=""306"" style=""position: fixed;left:64%;top:30%"">","null","","","","","","","","","","","","","","","","","","","","","","","","","","","","","","","","","","",""
"","","","","","html-keyboard-response","73","186400","0.0-6.0-2.18","A1PUSSRD8P5HHH","2022-05-27T03:39:06.329Z","rhyme-same_different-task_switching-phon_sim","","665.5999999046326","rhyme","<div style=""border: 3px solid #000000; position: fixed;left:14%;top:30%""><img src=""visual/chair.png"" width=""300""></div><div style=""border: 3px solid #000000; position: fixed;left:64%;top:30%""><img src=""visual/pear.png"" width=""300""></div>","arrowup","","true","experiment","visual/chair.png","visual/pear.png","ArrowUp","non-ortho","","","","","","","","","","","","","","","","","","","","","","","","","","","",""
"","","","","","html-keyboard-response","74","187164","0.0-6.0-0.19","A1PUSSRD8P5HHH","2022-05-27T03:39:06.329Z","rhyme-same_different-task_switching-phon_sim","","null","rhyme","<div style=""font-size:60px;"">+</div>","null","750","","","","","","","","","","","","","","","","","","","","","","","","","","","","","","","","","",""
"","","","","","html-keyboard-response","75","187677","0.0-6.0-1.19","A1PUSSRD8P5HHH","2022-05-27T03:39:06.329Z","rhyme-same_different-task_switching-phon_sim","","null","rhyme","<img src=""square.png"" width=""306"" height=""306"" style=""position: fixed;left:14%;top:30%""><img src=""square.png"" width=""306"" height=""306"" style=""position: fixed;left:64%;top:30%"">","null","","","","","","","","","","","","","","","","","","","","","","","","","","","","","","","","","","",""
"","","","","","html-keyboard-response","76","188331","0.0-6.0-2.19","A1PUSSRD8P5HHH","2022-05-27T03:39:06.329Z","rhyme-same_different-task_switching-phon_sim","","651.4000000953674","rhyme","<div style=""border: 3px solid #000000; position: fixed;left:14%;top:30%""><img src=""visual/spoon.png"" width=""300""></div><div style=""border: 3px solid #000000; position: fixed;left:64%;top:30%""><img src=""visual/moon.png"" width=""300""></div>","arrowup","","true","experiment","visual/spoon.png","visual/moon.png","ArrowUp","ortho","","","","","","","","","","","","","","","","","","","","","","","","","","","",""
"","","","","","html-keyboard-response","77","188584","0.0-6.0-0.20","A1PUSSRD8P5HHH","2022-05-27T03:39:06.329Z","rhyme-same_different-task_switching-phon_sim","","null","rhyme","<div style=""font-size:60px;"">+</div>","null","250","","","","","","","","","","","","","","","","","","","","","","","","","","","","","","","","","",""
"","","","","","html-keyboard-response","78","189091","0.0-6.0-1.20","A1PUSSRD8P5HHH","2022-05-27T03:39:06.329Z","rhyme-same_different-task_switching-phon_sim","","null","rhyme","<img src=""square.png"" width=""306"" height=""306"" style=""position: fixed;left:14%;top:30%""><img src=""square.png"" width=""306"" height=""306"" style=""position: fixed;left:64%;top:30%"">","null","","","","","","","","","","","","","","","","","","","","","","","","","","","","","","","","","","",""
"","","","","","html-keyboard-response","79","189971","0.0-6.0-2.20","A1PUSSRD8P5HHH","2022-05-27T03:39:06.329Z","rhyme-same_different-task_switching-phon_sim","","878.3000001907349","rhyme","<div style=""border: 3px solid #000000; position: fixed;left:14%;top:30%""><img src=""visual/tie.png"" width=""300""></div><div style=""border: 3px solid #000000; position: fixed;left:64%;top:30%""><img src=""visual/fly.png"" width=""300""></div>","arrowup","","true","experiment","visual/tie.png","visual/fly.png","ArrowUp","non-ortho","","","","","","","","","","","","","","","","","","","","","","","","","","","",""
"","","","","","html-keyboard-response","80","190987","0.0-6.0-0.21","A1PUSSRD8P5HHH","2022-05-27T03:39:06.329Z","rhyme-same_different-task_switching-phon_sim","","null","rhyme","<div style=""font-size:60px;"">+</div>","null","1000","","","","","","","","","","","","","","","","","","","","","","","","","","","","","","","","","",""
"","","","","","html-keyboard-response","81","191498","0.0-6.0-1.21","A1PUSSRD8P5HHH","2022-05-27T03:39:06.329Z","rhyme-same_different-task_switching-phon_sim","","null","rhyme","<img src=""square.png"" width=""306"" height=""306"" style=""position: fixed;left:14%;top:30%""><img src=""square.png"" width=""306"" height=""306"" style=""position: fixed;left:64%;top:30%"">","null","","","","","","","","","","","","","","","","","","","","","","","","","","","","","","","","","","",""
"","","","","","html-keyboard-response","82","191678","0.0-6.0-2.21","A1PUSSRD8P5HHH","2022-05-27T03:39:06.329Z","rhyme-same_different-task_switching-phon_sim","","177.30000019073486","rhyme","<div style=""border: 3px solid #000000; position: fixed;left:14%;top:30%""><img src=""visual/dart.png"" width=""300""></div><div style=""border: 3px solid #000000; position: fixed;left:64%;top:30%""><img src=""visual/heart.png"" width=""300""></div>","arrowup","","true","experiment","visual/dart.png","visual/heart.png","ArrowUp","non-ortho","","","","","","","","","","","","","","","","","","","","","","","","","","","",""
"","","","","","html-keyboard-response","83","192683","0.0-6.0-0.22","A1PUSSRD8P5HHH","2022-05-27T03:39:06.329Z","rhyme-same_different-task_switching-phon_sim","","null","rhyme","<div style=""font-size:60px;"">+</div>","null","1000","","","","","","","","","","","","","","","","","","","","","","","","","","","","","","","","","",""
"","","","","","html-keyboard-response","84","193189","0.0-6.0-1.22","A1PUSSRD8P5HHH","2022-05-27T03:39:06.329Z","rhyme-same_different-task_switching-phon_sim","","null","rhyme","<img src=""square.png"" width=""306"" height=""306"" style=""position: fixed;left:14%;top:30%""><img src=""square.png"" width=""306"" height=""306"" style=""position: fixed;left:64%;top:30%"">","null","","","","","","","","","","","","","","","","","","","","","","","","","","","","","","","","","","",""
"","","","","","html-keyboard-response","85","193865","0.0-6.0-2.22","A1PUSSRD8P5HHH","2022-05-27T03:39:06.329Z","rhyme-same_different-task_switching-phon_sim","","673.5999999046326","rhyme","<div style=""border: 3px solid #000000; position: fixed;left:14%;top:30%""><img src=""visual/train.png"" width=""300""></div><div style=""border: 3px solid #000000; position: fixed;left:64%;top:30%""><img src=""visual/screw.png"" width=""300""></div>","arrowup","","false","experiment","visual/train.png","visual/screw.png","ArrowDown","NR","","","","","","","","","","","","","","","","","","","","","","","","","","","",""
"","","","","","html-keyboard-response","86","194128","0.0-6.0-0.23","A1PUSSRD8P5HHH","2022-05-27T03:39:06.329Z","rhyme-same_different-task_switching-phon_sim","","null","rhyme","<div style=""font-size:60px;"">+</div>","null","250","","","","","","","","","","","","","","","","","","","","","","","","","","","","","","","","","",""
"","","","","","html-keyboard-response","87","194637","0.0-6.0-1.23","A1PUSSRD8P5HHH","2022-05-27T03:39:06.329Z","rhyme-same_different-task_switching-phon_sim","","null","rhyme","<img src=""square.png"" width=""306"" height=""306"" style=""position: fixed;left:14%;top:30%""><img src=""square.png"" width=""306"" height=""306"" style=""position: fixed;left:64%;top:30%"">","null","","","","","","","","","","","","","","","","","","","","","","","","","","","","","","","","","","",""
"","","","","","html-keyboard-response","88","195594","0.0-6.0-2.23","A1PUSSRD8P5HHH","2022-05-27T03:39:06.329Z","rhyme-same_different-task_switching-phon_sim","","954","rhyme","<div style=""border: 3px solid #000000; position: fixed;left:14%;top:30%""><img src=""visual/eye.png"" width=""300""></div><div style=""border: 3px solid #000000; position: fixed;left:64%;top:30%""><img src=""visual/tie.png"" width=""300""></div>","arrowup","","true","experiment","visual/eye.png","visual/tie.png","ArrowUp","non-ortho","","","","","","","","","","","","","","","","","","","","","","","","","","","",""
"","","","","","html-keyboard-response","89","196102","0.0-6.0-0.24","A1PUSSRD8P5HHH","2022-05-27T03:39:06.329Z","rhyme-same_different-task_switching-phon_sim","","null","rhyme","<div style=""font-size:60px;"">+</div>","null","500","","","","","","","","","","","","","","","","","","","","","","","","","","","","","","","","","",""
"","","","","","html-keyboard-response","90","196606","0.0-6.0-1.24","A1PUSSRD8P5HHH","2022-05-27T03:39:06.329Z","rhyme-same_different-task_switching-phon_sim","","null","rhyme","<img src=""square.png"" width=""306"" height=""306"" style=""position: fixed;left:14%;top:30%""><img src=""square.png"" width=""306"" height=""306"" style=""position: fixed;left:64%;top:30%"">","null","","","","","","","","","","","","","","","","","","","","","","","","","","","","","","","","","","",""
"","","","","","html-keyboard-response","91","197379","0.0-6.0-2.24","A1PUSSRD8P5HHH","2022-05-27T03:39:06.329Z","rhyme-same_different-task_switching-phon_sim","","769.2000002861023","rhyme","<div style=""border: 3px solid #000000; position: fixed;left:14%;top:30%""><img src=""visual/well.png"" width=""300""></div><div style=""border: 3px solid #000000; position: fixed;left:64%;top:30%""><img src=""visual/rose.png"" width=""300""></div>","arrowup","","false","experiment","visual/well.png","visual/rose.png","ArrowDown","NR","","","","","","","","","","","","","","","","","","","","","","","","","","","",""
"","","","","","html-keyboard-response","92","197883","0.0-6.0-0.25","A1PUSSRD8P5HHH","2022-05-27T03:39:06.329Z","rhyme-same_different-task_switching-phon_sim","","null","rhyme","<div style=""font-size:60px;"">+</div>","null","500","","","","","","","","","","","","","","","","","","","","","","","","","","","","","","","","","",""
"","","","","","html-keyboard-response","93","198389","0.0-6.0-1.25","A1PUSSRD8P5HHH","2022-05-27T03:39:06.329Z","rhyme-same_different-task_switching-phon_sim","","null","rhyme","<img src=""square.png"" width=""306"" height=""306"" style=""position: fixed;left:14%;top:30%""><img src=""square.png"" width=""306"" height=""306"" style=""position: fixed;left:64%;top:30%"">","null","","","","","","","","","","","","","","","","","","","","","","","","","","","","","","","","","","",""
"","","","","","html-keyboard-response","94","199364","0.0-6.0-2.25","A1PUSSRD8P5HHH","2022-05-27T03:39:06.329Z","rhyme-same_different-task_switching-phon_sim","","974.2000002861023","rhyme","<div style=""border: 3px solid #000000; position: fixed;left:14%;top:30%""><img src=""visual/nose.png"" width=""300""></div><div style=""border: 3px solid #000000; position: fixed;left:64%;top:30%""><img src=""visual/bell.png"" width=""300""></div>","arrowup","","false","experiment","visual/nose.png","visual/bell.png","ArrowDown","NR","","","","","","","","","","","","","","","","","","","","","","","","","","","",""
"","","","","","html-keyboard-response","95","200372","0.0-6.0-0.26","A1PUSSRD8P5HHH","2022-05-27T03:39:06.329Z","rhyme-same_different-task_switching-phon_sim","","null","rhyme","<div style=""font-size:60px;"">+</div>","null","1000","","","","","","","","","","","","","","","","","","","","","","","","","","","","","","","","","",""
"","","","","","html-keyboard-response","96","200883","0.0-6.0-1.26","A1PUSSRD8P5HHH","2022-05-27T03:39:06.329Z","rhyme-same_different-task_switching-phon_sim","","null","rhyme","<img src=""square.png"" width=""306"" height=""306"" style=""position: fixed;left:14%;top:30%""><img src=""square.png"" width=""306"" height=""306"" style=""position: fixed;left:64%;top:30%"">","null","","","","","","","","","","","","","","","","","","","","","","","","","","","","","","","","","","",""
"","","","","","html-keyboard-response","97","201523","0.0-6.0-2.26","A1PUSSRD8P5HHH","2022-05-27T03:39:06.329Z","rhyme-same_different-task_switching-phon_sim","","638.4000000953674","rhyme","<div style=""border: 3px solid #000000; position: fixed;left:14%;top:30%""><img src=""visual/wheel.png"" width=""300""></div><div style=""border: 3px solid #000000; position: fixed;left:64%;top:30%""><img src=""visual/seal.png"" width=""300""></div>","arrowup","","true","experiment","visual/wheel.png","visual/seal.png","ArrowUp","non-ortho","","","","","","","","","","","","","","","","","","","","","","","","","","","",""
"","","","","","html-keyboard-response","98","202028","0.0-6.0-0.27","A1PUSSRD8P5HHH","2022-05-27T03:39:06.329Z","rhyme-same_different-task_switching-phon_sim","","null","rhyme","<div style=""font-size:60px;"">+</div>","null","500","","","","","","","","","","","","","","","","","","","","","","","","","","","","","","","","","",""
"","","","","","html-keyboard-response","99","202540","0.0-6.0-1.27","A1PUSSRD8P5HHH","2022-05-27T03:39:06.329Z","rhyme-same_different-task_switching-phon_sim","","null","rhyme","<img src=""square.png"" width=""306"" height=""306"" style=""position: fixed;left:14%;top:30%""><img src=""square.png"" width=""306"" height=""306"" style=""position: fixed;left:64%;top:30%"">","null","","","","","","","","","","","","","","","","","","","","","","","","","","","","","","","","","","",""
"","","","","","html-keyboard-response","100","203323","0.0-6.0-2.27","A1PUSSRD8P5HHH","2022-05-27T03:39:06.329Z","rhyme-same_different-task_switching-phon_sim","","780.3999996185303","rhyme","<div style=""border: 3px solid #000000; position: fixed;left:14%;top:30%""><img src=""visual/train.png"" width=""300""></div><div style=""border: 3px solid #000000; position: fixed;left:64%;top:30%""><img src=""visual/crane.png"" width=""300""></div>","arrowup","","true","experiment","visual/train.png","visual/crane.png","ArrowUp","non-ortho","","","","","","","","","","","","","","","","","","","","","","","","","","","",""
"","","","","","html-keyboard-response","101","204334","0.0-6.0-0.28","A1PUSSRD8P5HHH","2022-05-27T03:39:06.329Z","rhyme-same_different-task_switching-phon_sim","","null","rhyme","<div style=""font-size:60px;"">+</div>","null","1000","","","","","","","","","","","","","","","","","","","","","","","","","","","","","","","","","",""
"","","","","","html-keyboard-response","102","204843","0.0-6.0-1.28","A1PUSSRD8P5HHH","2022-05-27T03:39:06.329Z","rhyme-same_different-task_switching-phon_sim","","null","rhyme","<img src=""square.png"" width=""306"" height=""306"" style=""position: fixed;left:14%;top:30%""><img src=""square.png"" width=""306"" height=""306"" style=""position: fixed;left:64%;top:30%"">","null","","","","","","","","","","","","","","","","","","","","","","","","","","","","","","","","","","",""
"","","","","","html-keyboard-response","103","205806","0.0-6.0-2.28","A1PUSSRD8P5HHH","2022-05-27T03:39:06.329Z","rhyme-same_different-task_switching-phon_sim","","960","rhyme","<div style=""border: 3px solid #000000; position: fixed;left:14%;top:30%""><img src=""visual/nail.png"" width=""300""></div><div style=""border: 3px solid #000000; position: fixed;left:64%;top:30%""><img src=""visual/whale.png"" width=""300""></div>","arrowup","","true","experiment","visual/nail.png","visual/whale.png","ArrowUp","non-ortho","","","","","","","","","","","","","","","","","","","","","","","","","","","",""
"","","","","","html-keyboard-response","104","206571","0.0-6.0-0.29","A1PUSSRD8P5HHH","2022-05-27T03:39:06.329Z","rhyme-same_different-task_switching-phon_sim","","null","rhyme","<div style=""font-size:60px;"">+</div>","null","750","","","","","","","","","","","","","","","","","","","","","","","","","","","","","","","","","",""
"","","","","","html-keyboard-response","105","207081","0.0-6.0-1.29","A1PUSSRD8P5HHH","2022-05-27T03:39:06.329Z","rhyme-same_different-task_switching-phon_sim","","null","rhyme","<img src=""square.png"" width=""306"" height=""306"" style=""position: fixed;left:14%;top:30%""><img src=""square.png"" width=""306"" height=""306"" style=""position: fixed;left:64%;top:30%"">","null","","","","","","","","","","","","","","","","","","","","","","","","","","","","","","","","","","",""
"","","","","","html-keyboard-response","106","207965","0.0-6.0-2.29","A1PUSSRD8P5HHH","2022-05-27T03:39:06.329Z","rhyme-same_different-task_switching-phon_sim","","881.4000000953674","rhyme","<div style=""border: 3px solid #000000; position: fixed;left:14%;top:30%""><img src=""visual/fan.png"" width=""300""></div><div style=""border: 3px solid #000000; position: fixed;left:64%;top:30%""><img src=""visual/man.png"" width=""300""></div>","arrowup","","true","experiment","visual/fan.png","visual/man.png","ArrowUp","ortho","","","","","","","","","","","","","","","","","","","","","","","","","","","",""
"","","","","","html-keyboard-response","107","208474","0.0-6.0-0.30","A1PUSSRD8P5HHH","2022-05-27T03:39:06.329Z","rhyme-same_different-task_switching-phon_sim","","null","rhyme","<div style=""font-size:60px;"">+</div>","null","500","","","","","","","","","","","","","","","","","","","","","","","","","","","","","","","","","",""
"","","","","","html-keyboard-response","108","208989","0.0-6.0-1.30","A1PUSSRD8P5HHH","2022-05-27T03:39:06.329Z","rhyme-same_different-task_switching-phon_sim","","null","rhyme","<img src=""square.png"" width=""306"" height=""306"" style=""position: fixed;left:14%;top:30%""><img src=""square.png"" width=""306"" height=""306"" style=""position: fixed;left:64%;top:30%"">","null","","","","","","","","","","","","","","","","","","","","","","","","","","","","","","","","","","",""
"","","","","","html-keyboard-response","109","210102","0.0-6.0-2.30","A1PUSSRD8P5HHH","2022-05-27T03:39:06.329Z","rhyme-same_different-task_switching-phon_sim","","1110.8999996185303","rhyme","<div style=""border: 3px solid #000000; position: fixed;left:14%;top:30%""><img src=""visual/bear.png"" width=""300""></div><div style=""border: 3px solid #000000; position: fixed;left:64%;top:30%""><img src=""visual/square_rhyme.png"" width=""300""></div>","arrowup","","true","experiment","visual/bear.png","visual/square_rhyme.png","ArrowUp","non-ortho","","","","","","","","","","","","","","","","","","","","","","","","","","","",""
"","","","","","html-keyboard-response","110","210609","0.0-6.0-0.31","A1PUSSRD8P5HHH","2022-05-27T03:39:06.329Z","rhyme-same_different-task_switching-phon_sim","","null","rhyme","<div style=""font-size:60px;"">+</div>","null","500","","","","","","","","","","","","","","","","","","","","","","","","","","","","","","","","","",""
"","","","","","html-keyboard-response","111","211116","0.0-6.0-1.31","A1PUSSRD8P5HHH","2022-05-27T03:39:06.329Z","rhyme-same_different-task_switching-phon_sim","","null","rhyme","<img src=""square.png"" width=""306"" height=""306"" style=""position: fixed;left:14%;top:30%""><img src=""square.png"" width=""306"" height=""306"" style=""position: fixed;left:64%;top:30%"">","null","","","","","","","","","","","","","","","","","","","","","","","","","","","","","","","","","","",""
"","","","","","html-keyboard-response","112","211980","0.0-6.0-2.31","A1PUSSRD8P5HHH","2022-05-27T03:39:06.329Z","rhyme-same_different-task_switching-phon_sim","","861.9000000953674","rhyme","<div style=""border: 3px solid #000000; position: fixed;left:14%;top:30%""><img src=""visual/egg.png"" width=""300""></div><div style=""border: 3px solid #000000; position: fixed;left:64%;top:30%""><img src=""visual/ring.png"" width=""300""></div>","arrowup","","false","experiment","visual/egg.png","visual/ring.png","ArrowDown","NR","","","","","","","","","","","","","","","","","","","","","","","","","","","",""
"","","","","","html-keyboard-response","113","212747","0.0-6.0-0.32","A1PUSSRD8P5HHH","2022-05-27T03:39:06.329Z","rhyme-same_different-task_switching-phon_sim","","null","rhyme","<div style=""font-size:60px;"">+</div>","null","750","","","","","","","","","","","","","","","","","","","","","","","","","","","","","","","","","",""
"","","","","","html-keyboard-response","114","213256","0.0-6.0-1.32","A1PUSSRD8P5HHH","2022-05-27T03:39:06.329Z","rhyme-same_different-task_switching-phon_sim","","null","rhyme","<img src=""square.png"" width=""306"" height=""306"" style=""position: fixed;left:14%;top:30%""><img src=""square.png"" width=""306"" height=""306"" style=""position: fixed;left:64%;top:30%"">","null","","","","","","","","","","","","","","","","","","","","","","","","","","","","","","","","","","",""
"","","","","","html-keyboard-response","115","214090","0.0-6.0-2.32","A1PUSSRD8P5HHH","2022-05-27T03:39:06.329Z","rhyme-same_different-task_switching-phon_sim","","831.7000002861023","rhyme","<div style=""border: 3px solid #000000; position: fixed;left:14%;top:30%""><img src=""visual/pope.png"" width=""300""></div><div style=""border: 3px solid #000000; position: fixed;left:64%;top:30%""><img src=""visual/soap.png"" width=""300""></div>","arrowup","","true","experiment","visual/pope.png","visual/soap.png","ArrowUp","non-ortho","","","","","","","","","","","","","","","","","","","","","","","","","","","",""
"","","","","","html-keyboard-response","116","214349","0.0-6.0-0.33","A1PUSSRD8P5HHH","2022-05-27T03:39:06.329Z","rhyme-same_different-task_switching-phon_sim","","null","rhyme","<div style=""font-size:60px;"">+</div>","null","250","","","","","","","","","","","","","","","","","","","","","","","","","","","","","","","","","",""
"","","","","","html-keyboard-response","117","214866","0.0-6.0-1.33","A1PUSSRD8P5HHH","2022-05-27T03:39:06.329Z","rhyme-same_different-task_switching-phon_sim","","null","rhyme","<img src=""square.png"" width=""306"" height=""306"" style=""position: fixed;left:14%;top:30%""><img src=""square.png"" width=""306"" height=""306"" style=""position: fixed;left:64%;top:30%"">","null","","","","","","","","","","","","","","","","","","","","","","","","","","","","","","","","","","",""
"","","","","","html-keyboard-response","118","215910","0.0-6.0-2.33","A1PUSSRD8P5HHH","2022-05-27T03:39:06.329Z","rhyme-same_different-task_switching-phon_sim","","1042.7999997138977","rhyme","<div style=""border: 3px solid #000000; position: fixed;left:14%;top:30%""><img src=""visual/cab.png"" width=""300""></div><div style=""border: 3px solid #000000; position: fixed;left:64%;top:30%""><img src=""visual/crab.png"" width=""300""></div>","arrowup","","true","experiment","visual/cab.png","visual/crab.png","ArrowUp","ortho","","","","","","","","","","","","","","","","","","","","","","","","","","","",""
"","","","","","html-keyboard-response","119","216915","0.0-6.0-0.34","A1PUSSRD8P5HHH","2022-05-27T03:39:06.329Z","rhyme-same_different-task_switching-phon_sim","","null","rhyme","<div style=""font-size:60px;"">+</div>","null","1000","","","","","","","","","","","","","","","","","","","","","","","","","","","","","","","","","",""
"","","","","","html-keyboard-response","120","217429","0.0-6.0-1.34","A1PUSSRD8P5HHH","2022-05-27T03:39:06.329Z","rhyme-same_different-task_switching-phon_sim","","null","rhyme","<img src=""square.png"" width=""306"" height=""306"" style=""position: fixed;left:14%;top:30%""><img src=""square.png"" width=""306"" height=""306"" style=""position: fixed;left:64%;top:30%"">","null","","","","","","","","","","","","","","","","","","","","","","","","","","","","","","","","","","",""
"","","","","","html-keyboard-response","121","218193","0.0-6.0-2.34","A1PUSSRD8P5HHH","2022-05-27T03:39:06.329Z","rhyme-same_different-task_switching-phon_sim","","762.5999999046326","rhyme","<div style=""border: 3px solid #000000; position: fixed;left:14%;top:30%""><img src=""visual/shark.png"" width=""300""></div><div style=""border: 3px solid #000000; position: fixed;left:64%;top:30%""><img src=""visual/moon.png"" width=""300""></div>","arrowup","","false","experiment","visual/shark.png","visual/moon.png","ArrowDown","NR","","","","","","","","","","","","","","","","","","","","","","","","","","","",""
"","","","","","html-keyboard-response","122","218958","0.0-6.0-0.35","A1PUSSRD8P5HHH","2022-05-27T03:39:06.329Z","rhyme-same_different-task_switching-phon_sim","","null","rhyme","<div style=""font-size:60px;"">+</div>","null","750","","","","","","","","","","","","","","","","","","","","","","","","","","","","","","","","","",""
"","","","","","html-keyboard-response","123","219468","0.0-6.0-1.35","A1PUSSRD8P5HHH","2022-05-27T03:39:06.329Z","rhyme-same_different-task_switching-phon_sim","","null","rhyme","<img src=""square.png"" width=""306"" height=""306"" style=""position: fixed;left:14%;top:30%""><img src=""square.png"" width=""306"" height=""306"" style=""position: fixed;left:64%;top:30%"">","null","","","","","","","","","","","","","","","","","","","","","","","","","","","","","","","","","","",""
"","","","","","html-keyboard-response","124","224485","0.0-6.0-2.35","A1PUSSRD8P5HHH","2022-05-27T03:39:06.329Z","rhyme-same_different-task_switching-phon_sim","","null","rhyme","<div style=""border: 3px solid #000000; position: fixed;left:14%;top:30%""><img src=""visual/dart.png"" width=""300""></div><div style=""border: 3px solid #000000; position: fixed;left:64%;top:30%""><img src=""visual/tie.png"" width=""300""></div>","null","","false","experiment","visual/dart.png","visual/tie.png","ArrowDown","NR","","","","","","","","","","","","","","","","","","","","","","","","","","","",""
"","","","","","html-keyboard-response","125","225492","0.0-6.0-0.36","A1PUSSRD8P5HHH","2022-05-27T03:39:06.329Z","rhyme-same_different-task_switching-phon_sim","","null","rhyme","<div style=""font-size:60px;"">+</div>","null","1000","","","","","","","","","","","","","","","","","","","","","","","","","","","","","","","","","",""
"","","","","","html-keyboard-response","126","226022","0.0-6.0-1.36","A1PUSSRD8P5HHH","2022-05-27T03:39:06.329Z","rhyme-same_different-task_switching-phon_sim","","null","rhyme","<img src=""square.png"" width=""306"" height=""306"" style=""position: fixed;left:14%;top:30%""><img src=""square.png"" width=""306"" height=""306"" style=""position: fixed;left:64%;top:30%"">","null","","","","","","","","","","","","","","","","","","","","","","","","","","","","","","","","","","",""
"","","","","","html-keyboard-response","127","227919","0.0-6.0-2.36","A1PUSSRD8P5HHH","2022-05-27T03:39:06.329Z","rhyme-same_different-task_switching-phon_sim","","1893.4000000953674","rhyme","<div style=""border: 3px solid #000000; position: fixed;left:14%;top:30%""><img src=""visual/pear.png"" width=""300""></div><div style=""border: 3px solid #000000; position: fixed;left:64%;top:30%""><img src=""visual/rope.png"" width=""300""></div>","arrowup","","false","experiment","visual/pear.png","visual/rope.png","ArrowDown","NR","","","","","","","","","","","","","","","","","","","","","","","","","","","",""
"","","","","","html-keyboard-response","128","228183","0.0-6.0-0.37","A1PUSSRD8P5HHH","2022-05-27T03:39:06.329Z","rhyme-same_different-task_switching-phon_sim","","null","rhyme","<div style=""font-size:60px;"">+</div>","null","250","","","","","","","","","","","","","","","","","","","","","","","","","","","","","","","","","",""
"","","","","","html-keyboard-response","129","228698","0.0-6.0-1.37","A1PUSSRD8P5HHH","2022-05-27T03:39:06.329Z","rhyme-same_different-task_switching-phon_sim","","null","rhyme","<img src=""square.png"" width=""306"" height=""306"" style=""position: fixed;left:14%;top:30%""><img src=""square.png"" width=""306"" height=""306"" style=""position: fixed;left:64%;top:30%"">","null","","","","","","","","","","","","","","","","","","","","","","","","","","","","","","","","","","",""
"","","","","","html-keyboard-response","130","231295","0.0-6.0-2.37","A1PUSSRD8P5HHH","2022-05-27T03:39:06.329Z","rhyme-same_different-task_switching-phon_sim","","2596.0999999046326","rhyme","<div style=""border: 3px solid #000000; position: fixed;left:14%;top:30%""><img src=""visual/deer.png"" width=""300""></div><div style=""border: 3px solid #000000; position: fixed;left:64%;top:30%""><img src=""visual/beer.png"" width=""300""></div>","arrowup","","true","experiment","visual/deer.png","visual/beer.png","ArrowUp","ortho","","","","","","","","","","","","","","","","","","","","","","","","","","","",""
"","","","","","html-keyboard-response","131","232309","0.0-6.0-0.38","A1PUSSRD8P5HHH","2022-05-27T03:39:06.329Z","rhyme-same_different-task_switching-phon_sim","","null","rhyme","<div style=""font-size:60px;"">+</div>","null","1000","","","","","","","","","","","","","","","","","","","","","","","","","","","","","","","","","",""
"","","","","","html-keyboard-response","132","232814","0.0-6.0-1.38","A1PUSSRD8P5HHH","2022-05-27T03:39:06.329Z","rhyme-same_different-task_switching-phon_sim","","null","rhyme","<img src=""square.png"" width=""306"" height=""306"" style=""position: fixed;left:14%;top:30%""><img src=""square.png"" width=""306"" height=""306"" style=""position: fixed;left:64%;top:30%"">","null","","","","","","","","","","","","","","","","","","","","","","","","","","","","","","","","","","",""
"","","","","","html-keyboard-response","133","236740","0.0-6.0-2.38","A1PUSSRD8P5HHH","2022-05-27T03:39:06.329Z","rhyme-same_different-task_switching-phon_sim","","3923.2999997138977","rhyme","<div style=""border: 3px solid #000000; position: fixed;left:14%;top:30%""><img src=""visual/saw.png"" width=""300""></div><div style=""border: 3px solid #000000; position: fixed;left:64%;top:30%""><img src=""visual/claw.png"" width=""300""></div>","arrowup","","true","experiment","visual/saw.png","visual/claw.png","ArrowUp","ortho","","","","","","","","","","","","","","","","","","","","","","","","","","","",""
"","","","","","html-keyboard-response","134","237746","0.0-6.0-0.39","A1PUSSRD8P5HHH","2022-05-27T03:39:06.329Z","rhyme-same_different-task_switching-phon_sim","","null","rhyme","<div style=""font-size:60px;"">+</div>","null","1000","","","","","","","","","","","","","","","","","","","","","","","","","","","","","","","","","",""
"","","","","","html-keyboard-response","135","238264","0.0-6.0-1.39","A1PUSSRD8P5HHH","2022-05-27T03:39:06.329Z","rhyme-same_different-task_switching-phon_sim","","null","rhyme","<img src=""square.png"" width=""306"" height=""306"" style=""position: fixed;left:14%;top:30%""><img src=""square.png"" width=""306"" height=""306"" style=""position: fixed;left:64%;top:30%"">","null","","","","","","","","","","","","","","","","","","","","","","","","","","","","","","","","","","",""
"","","","","","html-keyboard-response","136","240397","0.0-6.0-2.39","A1PUSSRD8P5HHH","2022-05-27T03:39:06.329Z","rhyme-same_different-task_switching-phon_sim","","2129.300000190735","rhyme","<div style=""border: 3px solid #000000; position: fixed;left:14%;top:30%""><img src=""visual/key.png"" width=""300""></div><div style=""border: 3px solid #000000; position: fixed;left:64%;top:30%""><img src=""visual/snail.png"" width=""300""></div>","arrowup","","false","experiment","visual/key.png","visual/snail.png","ArrowDown","NR","","","","","","","","","","","","","","","","","","","","","","","","","","","",""
"","","","","","html-keyboard-response","137","241398","0.0-6.0-0.40","A1PUSSRD8P5HHH","2022-05-27T03:39:06.329Z","rhyme-same_different-task_switching-phon_sim","","null","rhyme","<div style=""font-size:60px;"">+</div>","null","1000","","","","","","","","","","","","","","","","","","","","","","","","","","","","","","","","","",""
"","","","","","html-keyboard-response","138","241907","0.0-6.0-1.40","A1PUSSRD8P5HHH","2022-05-27T03:39:06.329Z","rhyme-same_different-task_switching-phon_sim","","null","rhyme","<img src=""square.png"" width=""306"" height=""306"" style=""position: fixed;left:14%;top:30%""><img src=""square.png"" width=""306"" height=""306"" style=""position: fixed;left:64%;top:30%"">","null","","","","","","","","","","","","","","","","","","","","","","","","","","","","","","","","","","",""
"","","","","","html-keyboard-response","139","243129","0.0-6.0-2.40","A1PUSSRD8P5HHH","2022-05-27T03:39:06.329Z","rhyme-same_different-task_switching-phon_sim","","1220.5","rhyme","<div style=""border: 3px solid #000000; position: fixed;left:14%;top:30%""><img src=""visual/plane.png"" width=""300""></div><div style=""border: 3px solid #000000; position: fixed;left:64%;top:30%""><img src=""visual/train.png"" width=""300""></div>","arrowup","","true","experiment","visual/plane.png","visual/train.png","ArrowUp","non-ortho","","","","","","","","","","","","","","","","","","","","","","","","","","","",""
"","","","","","html-keyboard-response","140","243644","0.0-6.0-0.41","A1PUSSRD8P5HHH","2022-05-27T03:39:06.329Z","rhyme-same_different-task_switching-phon_sim","","null","rhyme","<div style=""font-size:60px;"">+</div>","null","500","","","","","","","","","","","","","","","","","","","","","","","","","","","","","","","","","",""
"","","","","","html-keyboard-response","141","244152","0.0-6.0-1.41","A1PUSSRD8P5HHH","2022-05-27T03:39:06.329Z","rhyme-same_different-task_switching-phon_sim","","null","rhyme","<img src=""square.png"" width=""306"" height=""306"" style=""position: fixed;left:14%;top:30%""><img src=""square.png"" width=""306"" height=""306"" style=""position: fixed;left:64%;top:30%"">","null","","","","","","","","","","","","","","","","","","","","","","","","","","","","","","","","","","",""
"","","","","","html-keyboard-response","142","245760","0.0-6.0-2.41","A1PUSSRD8P5HHH","2022-05-27T03:39:06.329Z","rhyme-same_different-task_switching-phon_sim","","1605.2000002861023","rhyme","<div style=""border: 3px solid #000000; position: fixed;left:14%;top:30%""><img src=""visual/socks.png"" width=""300""></div><div style=""border: 3px solid #000000; position: fixed;left:64%;top:30%""><img src=""visual/fox.png"" width=""300""></div>","arrowdown","","false","experiment","visual/socks.png","visual/fox.png","ArrowUp","non-ortho","","","","","","","","","","","","","","","","","","","","","","","","","","","",""
"","","","","","html-keyboard-response","143","246775","0.0-6.0-0.42","A1PUSSRD8P5HHH","2022-05-27T03:39:06.329Z","rhyme-same_different-task_switching-phon_sim","","null","rhyme","<div style=""font-size:60px;"">+</div>","null","1000","","","","","","","","","","","","","","","","","","","","","","","","","","","","","","","","","",""
"","","","","","html-keyboard-response","144","247286","0.0-6.0-1.42","A1PUSSRD8P5HHH","2022-05-27T03:39:06.329Z","rhyme-same_different-task_switching-phon_sim","","null","rhyme","<img src=""square.png"" width=""306"" height=""306"" style=""position: fixed;left:14%;top:30%""><img src=""square.png"" width=""306"" height=""306"" style=""position: fixed;left:64%;top:30%"">","null","","","","","","","","","","","","","","","","","","","","","","","","","","","","","","","","","","",""
"","","","","","html-keyboard-response","145","248349","0.0-6.0-2.42","A1PUSSRD8P5HHH","2022-05-27T03:39:06.329Z","rhyme-same_different-task_switching-phon_sim","","1061.5","rhyme","<div style=""border: 3px solid #000000; position: fixed;left:14%;top:30%""><img src=""visual/soap.png"" width=""300""></div><div style=""border: 3px solid #000000; position: fixed;left:64%;top:30%""><img src=""visual/shoe.png"" width=""300""></div>","arrowdown","","true","experiment","visual/soap.png","visual/shoe.png","ArrowDown","NR","","","","","","","","","","","","","","","","","","","","","","","","","","","",""
"","","","","","html-keyboard-response","146","248855","0.0-6.0-0.43","A1PUSSRD8P5HHH","2022-05-27T03:39:06.329Z","rhyme-same_different-task_switching-phon_sim","","null","rhyme","<div style=""font-size:60px;"">+</div>","null","500","","","","","","","","","","","","","","","","","","","","","","","","","","","","","","","","","",""
"","","","","","html-keyboard-response","147","249367","0.0-6.0-1.43","A1PUSSRD8P5HHH","2022-05-27T03:39:06.329Z","rhyme-same_different-task_switching-phon_sim","","null","rhyme","<img src=""square.png"" width=""306"" height=""306"" style=""position: fixed;left:14%;top:30%""><img src=""square.png"" width=""306"" height=""306"" style=""position: fixed;left:64%;top:30%"">","null","","","","","","","","","","","","","","","","","","","","","","","","","","","","","","","","","","",""
"","","","","","html-keyboard-response","148","250445","0.0-6.0-2.43","A1PUSSRD8P5HHH","2022-05-27T03:39:06.329Z","rhyme-same_different-task_switching-phon_sim","","1076.1999998092651","rhyme","<div style=""border: 3px solid #000000; position: fixed;left:14%;top:30%""><img src=""visual/star.png"" width=""300""></div><div style=""border: 3px solid #000000; position: fixed;left:64%;top:30%""><img src=""visual/jar.png"" width=""300""></div>","arrowdown","","false","experiment","visual/star.png","visual/jar.png","ArrowUp","ortho","","","","","","","","","","","","","","","","","","","","","","","","","","","",""
"","","","","","html-keyboard-response","149","250697","0.0-6.0-0.44","A1PUSSRD8P5HHH","2022-05-27T03:39:06.329Z","rhyme-same_different-task_switching-phon_sim","","null","rhyme","<div style=""font-size:60px;"">+</div>","null","250","","","","","","","","","","","","","","","","","","","","","","","","","","","","","","","","","",""
"","","","","","html-keyboard-response","150","251199","0.0-6.0-1.44","A1PUSSRD8P5HHH","2022-05-27T03:39:06.329Z","rhyme-same_different-task_switching-phon_sim","","null","rhyme","<img src=""square.png"" width=""306"" height=""306"" style=""position: fixed;left:14%;top:30%""><img src=""square.png"" width=""306"" height=""306"" style=""position: fixed;left:64%;top:30%"">","null","","","","","","","","","","","","","","","","","","","","","","","","","","","","","","","","","","",""
"","","","","","html-keyboard-response","151","253564","0.0-6.0-2.44","A1PUSSRD8P5HHH","2022-05-27T03:39:06.329Z","rhyme-same_different-task_switching-phon_sim","","2363.7000002861023","rhyme","<div style=""border: 3px solid #000000; position: fixed;left:14%;top:30%""><img src=""visual/cat.png"" width=""300""></div><div style=""border: 3px solid #000000; position: fixed;left:64%;top:30%""><img src=""visual/hat.png"" width=""300""></div>","arrowup","","true","experiment","visual/cat.png","visual/hat.png","ArrowUp","ortho","","","","","","","","","","","","","","","","","","","","","","","","","","","",""
"","","","","","html-keyboard-response","152","254567","0.0-6.0-0.45","A1PUSSRD8P5HHH","2022-05-27T03:39:06.329Z","rhyme-same_different-task_switching-phon_sim","","null","rhyme","<div style=""font-size:60px;"">+</div>","null","1000","","","","","","","","","","","","","","","","","","","","","","","","","","","","","","","","","",""
"","","","","","html-keyboard-response","153","255081","0.0-6.0-1.45","A1PUSSRD8P5HHH","2022-05-27T03:39:06.329Z","rhyme-same_different-task_switching-phon_sim","","null","rhyme","<img src=""square.png"" width=""306"" height=""306"" style=""position: fixed;left:14%;top:30%""><img src=""square.png"" width=""306"" height=""306"" style=""position: fixed;left:64%;top:30%"">","null","","","","","","","","","","","","","","","","","","","","","","","","","","","","","","","","","","",""
"","","","","","html-keyboard-response","154","256044","0.0-6.0-2.45","A1PUSSRD8P5HHH","2022-05-27T03:39:06.329Z","rhyme-same_different-task_switching-phon_sim","","959.2000002861023","rhyme","<div style=""border: 3px solid #000000; position: fixed;left:14%;top:30%""><img src=""visual/soap.png"" width=""300""></div><div style=""border: 3px solid #000000; position: fixed;left:64%;top:30%""><img src=""visual/rope.png"" width=""300""></div>","arrowup","","true","experiment","visual/soap.png","visual/rope.png","ArrowUp","non-ortho","","","","","","","","","","","","","","","","","","","","","","","","","","","",""
"","","","","","html-keyboard-response","155","257049","0.0-6.0-0.46","A1PUSSRD8P5HHH","2022-05-27T03:39:06.329Z","rhyme-same_different-task_switching-phon_sim","","null","rhyme","<div style=""font-size:60px;"">+</div>","null","1000","","","","","","","","","","","","","","","","","","","","","","","","","","","","","","","","","",""
"","","","","","html-keyboard-response","156","257560","0.0-6.0-1.46","A1PUSSRD8P5HHH","2022-05-27T03:39:06.329Z","rhyme-same_different-task_switching-phon_sim","","null","rhyme","<img src=""square.png"" width=""306"" height=""306"" style=""position: fixed;left:14%;top:30%""><img src=""square.png"" width=""306"" height=""306"" style=""position: fixed;left:64%;top:30%"">","null","","","","","","","","","","","","","","","","","","","","","","","","","","","","","","","","","","",""
"","","","","","html-keyboard-response","157","258851","0.0-6.0-2.46","A1PUSSRD8P5HHH","2022-05-27T03:39:06.329Z","rhyme-same_different-task_switching-phon_sim","","1288.5","rhyme","<div style=""border: 3px solid #000000; position: fixed;left:14%;top:30%""><img src=""visual/screw.png"" width=""300""></div><div style=""border: 3px solid #000000; position: fixed;left:64%;top:30%""><img src=""visual/shoe.png"" width=""300""></div>","arrowdown","","false","experiment","visual/screw.png","visual/shoe.png","ArrowUp","non-ortho","","","","","","","","","","","","","","","","","","","","","","","","","","","",""
"","","","","","html-keyboard-response","158","259602","0.0-6.0-0.47","A1PUSSRD8P5HHH","2022-05-27T03:39:06.329Z","rhyme-same_different-task_switching-phon_sim","","null","rhyme","<div style=""font-size:60px;"">+</div>","null","750","","","","","","","","","","","","","","","","","","","","","","","","","","","","","","","","","",""
"","","","","","html-keyboard-response","159","260110","0.0-6.0-1.47","A1PUSSRD8P5HHH","2022-05-27T03:39:06.329Z","rhyme-same_different-task_switching-phon_sim","","null","rhyme","<img src=""square.png"" width=""306"" height=""306"" style=""position: fixed;left:14%;top:30%""><img src=""square.png"" width=""306"" height=""306"" style=""position: fixed;left:64%;top:30%"">","null","","","","","","","","","","","","","","","","","","","","","","","","","","","","","","","","","","",""
"","","","","","html-keyboard-response","160","261619","0.0-6.0-2.47","A1PUSSRD8P5HHH","2022-05-27T03:39:06.329Z","rhyme-same_different-task_switching-phon_sim","","1506.9000000953674","rhyme","<div style=""border: 3px solid #000000; position: fixed;left:14%;top:30%""><img src=""visual/rose.png"" width=""300""></div><div style=""border: 3px solid #000000; position: fixed;left:64%;top:30%""><img src=""visual/nose.png"" width=""300""></div>","arrowdown","","false","experiment","visual/rose.png","visual/nose.png","ArrowUp","ortho","","","","","","","","","","","","","","","","","","","","","","","","","","","",""
"","","","","","html-keyboard-response","161","262382","0.0-6.0-0.48","A1PUSSRD8P5HHH","2022-05-27T03:39:06.329Z","rhyme-same_different-task_switching-phon_sim","","null","rhyme","<div style=""font-size:60px;"">+</div>","null","750","","","","","","","","","","","","","","","","","","","","","","","","","","","","","","","","","",""
"","","","","","html-keyboard-response","162","262899","0.0-6.0-1.48","A1PUSSRD8P5HHH","2022-05-27T03:39:06.329Z","rhyme-same_different-task_switching-phon_sim","","null","rhyme","<img src=""square.png"" width=""306"" height=""306"" style=""position: fixed;left:14%;top:30%""><img src=""square.png"" width=""306"" height=""306"" style=""position: fixed;left:64%;top:30%"">","null","","","","","","","","","","","","","","","","","","","","","","","","","","","","","","","","","","",""
"","","","","","html-keyboard-response","163","264726","0.0-6.0-2.48","A1PUSSRD8P5HHH","2022-05-27T03:39:06.329Z","rhyme-same_different-task_switching-phon_sim","","1821.5","rhyme","<div style=""border: 3px solid #000000; position: fixed;left:14%;top:30%""><img src=""visual/claw.png"" width=""300""></div><div style=""border: 3px solid #000000; position: fixed;left:64%;top:30%""><img src=""visual/beer.png"" width=""300""></div>","arrowdown","","true","experiment","visual/claw.png","visual/beer.png","ArrowDown","NR","","","","","","","","","","","","","","","","","","","","","","","","","","","",""
"","","","","","html-keyboard-response","164","264982","0.0-6.0-0.49","A1PUSSRD8P5HHH","2022-05-27T03:39:06.329Z","rhyme-same_different-task_switching-phon_sim","","null","rhyme","<div style=""font-size:60px;"">+</div>","null","250","","","","","","","","","","","","","","","","","","","","","","","","","","","","","","","","","",""
"","","","","","html-keyboard-response","165","265496","0.0-6.0-1.49","A1PUSSRD8P5HHH","2022-05-27T03:39:06.329Z","rhyme-same_different-task_switching-phon_sim","","null","rhyme","<img src=""square.png"" width=""306"" height=""306"" style=""position: fixed;left:14%;top:30%""><img src=""square.png"" width=""306"" height=""306"" style=""position: fixed;left:64%;top:30%"">","null","","","","","","","","","","","","","","","","","","","","","","","","","","","","","","","","","","",""
"","","","","","html-keyboard-response","166","267654","0.0-6.0-2.49","A1PUSSRD8P5HHH","2022-05-27T03:39:06.329Z","rhyme-same_different-task_switching-phon_sim","","2154.800000190735","rhyme","<div style=""border: 3px solid #000000; position: fixed;left:14%;top:30%""><img src=""visual/bed.png"" width=""300""></div><div style=""border: 3px solid #000000; position: fixed;left:64%;top:30%""><img src=""visual/bread.png"" width=""300""></div>","arrowup","","true","experiment","visual/bed.png","visual/bread.png","ArrowUp","non-ortho","","","","","","","","","","","","","","","","","","","","","","","","","","","",""
"","","","","","html-keyboard-response","167","268405","0.0-6.0-0.50","A1PUSSRD8P5HHH","2022-05-27T03:39:06.329Z","rhyme-same_different-task_switching-phon_sim","","null","rhyme","<div style=""font-size:60px;"">+</div>","null","750","","","","","","","","","","","","","","","","","","","","","","","","","","","","","","","","","",""
"","","","","","html-keyboard-response","168","268920","0.0-6.0-1.50","A1PUSSRD8P5HHH","2022-05-27T03:39:06.329Z","rhyme-same_different-task_switching-phon_sim","","null","rhyme","<img src=""square.png"" width=""306"" height=""306"" style=""position: fixed;left:14%;top:30%""><img src=""square.png"" width=""306"" height=""306"" style=""position: fixed;left:64%;top:30%"">","null","","","","","","","","","","","","","","","","","","","","","","","","","","","","","","","","","","",""
"","","","","","html-keyboard-response","169","272329","0.0-6.0-2.50","A1PUSSRD8P5HHH","2022-05-27T03:39:06.329Z","rhyme-same_different-task_switching-phon_sim","","3406.7000002861023","rhyme","<div style=""border: 3px solid #000000; position: fixed;left:14%;top:30%""><img src=""visual/rake.png"" width=""300""></div><div style=""border: 3px solid #000000; position: fixed;left:64%;top:30%""><img src=""visual/park.png"" width=""300""></div>","arrowdown","","true","experiment","visual/rake.png","visual/park.png","ArrowDown","NR","","","","","","","","","","","","","","","","","","","","","","","","","","","",""
"","","","","","html-keyboard-response","170","272584","0.0-6.0-0.51","A1PUSSRD8P5HHH","2022-05-27T03:39:06.329Z","rhyme-same_different-task_switching-phon_sim","","null","rhyme","<div style=""font-size:60px;"">+</div>","null","250","","","","","","","","","","","","","","","","","","","","","","","","","","","","","","","","","",""
"","","","","","html-keyboard-response","171","273101","0.0-6.0-1.51","A1PUSSRD8P5HHH","2022-05-27T03:39:06.329Z","rhyme-same_different-task_switching-phon_sim","","null","rhyme","<img src=""square.png"" width=""306"" height=""306"" style=""position: fixed;left:14%;top:30%""><img src=""square.png"" width=""306"" height=""306"" style=""position: fixed;left:64%;top:30%"">","null","","","","","","","","","","","","","","","","","","","","","","","","","","","","","","","","","","",""
"","","","","","html-keyboard-response","172","275262","0.0-6.0-2.51","A1PUSSRD8P5HHH","2022-05-27T03:39:06.329Z","rhyme-same_different-task_switching-phon_sim","","2157.199999809265","rhyme","<div style=""border: 3px solid #000000; position: fixed;left:14%;top:30%""><img src=""visual/drum.png"" width=""300""></div><div style=""border: 3px solid #000000; position: fixed;left:64%;top:30%""><img src=""visual/thumb.png"" width=""300""></div>","arrowdown","","false","experiment","visual/drum.png","visual/thumb.png","ArrowUp","non-ortho","","","","","","","","","","","","","","","","","","","","","","","","","","","",""
"","","","","","html-keyboard-response","173","275515","0.0-6.0-0.52","A1PUSSRD8P5HHH","2022-05-27T03:39:06.329Z","rhyme-same_different-task_switching-phon_sim","","null","rhyme","<div style=""font-size:60px;"">+</div>","null","250","","","","","","","","","","","","","","","","","","","","","","","","","","","","","","","","","",""
"","","","","","html-keyboard-response","174","276022","0.0-6.0-1.52","A1PUSSRD8P5HHH","2022-05-27T03:39:06.329Z","rhyme-same_different-task_switching-phon_sim","","null","rhyme","<img src=""square.png"" width=""306"" height=""306"" style=""position: fixed;left:14%;top:30%""><img src=""square.png"" width=""306"" height=""306"" style=""position: fixed;left:64%;top:30%"">","null","","","","","","","","","","","","","","","","","","","","","","","","","","","","","","","","","","",""
"","","","","","html-keyboard-response","175","278265","0.0-6.0-2.52","A1PUSSRD8P5HHH","2022-05-27T03:39:06.329Z","rhyme-same_different-task_switching-phon_sim","","2240.5999999046326","rhyme","<div style=""border: 3px solid #000000; position: fixed;left:14%;top:30%""><img src=""visual/tree.png"" width=""300""></div><div style=""border: 3px solid #000000; position: fixed;left:64%;top:30%""><img src=""visual/door.png"" width=""300""></div>","arrowup","","false","experiment","visual/tree.png","visual/door.png","ArrowDown","NR","","","","","","","","","","","","","","","","","","","","","","","","","","","",""
"","","","","","html-keyboard-response","176","278766","0.0-6.0-0.53","A1PUSSRD8P5HHH","2022-05-27T03:39:06.329Z","rhyme-same_different-task_switching-phon_sim","","null","rhyme","<div style=""font-size:60px;"">+</div>","null","500","","","","","","","","","","","","","","","","","","","","","","","","","","","","","","","","","",""
"","","","","","html-keyboard-response","177","279282","0.0-6.0-1.53","A1PUSSRD8P5HHH","2022-05-27T03:39:06.329Z","rhyme-same_different-task_switching-phon_sim","","null","rhyme","<img src=""square.png"" width=""306"" height=""306"" style=""position: fixed;left:14%;top:30%""><img src=""square.png"" width=""306"" height=""306"" style=""position: fixed;left:64%;top:30%"">","null","","","","","","","","","","","","","","","","","","","","","","","","","","","","","","","","","","",""
"","","","","","html-keyboard-response","178","280930","0.0-6.0-2.53","A1PUSSRD8P5HHH","2022-05-27T03:39:06.329Z","rhyme-same_different-task_switching-phon_sim","","1645.3000001907349","rhyme","<div style=""border: 3px solid #000000; position: fixed;left:14%;top:30%""><img src=""visual/spoon.png"" width=""300""></div><div style=""border: 3px solid #000000; position: fixed;left:64%;top:30%""><img src=""visual/crab.png"" width=""300""></div>","arrowdown","","true","experiment","visual/spoon.png","visual/crab.png","ArrowDown","NR","","","","","","","","","","","","","","","","","","","","","","","","","","","",""
"","","","","","html-keyboard-response","179","281686","0.0-6.0-0.54","A1PUSSRD8P5HHH","2022-05-27T03:39:06.329Z","rhyme-same_different-task_switching-phon_sim","","null","rhyme","<div style=""font-size:60px;"">+</div>","null","750","","","","","","","","","","","","","","","","","","","","","","","","","","","","","","","","","",""
"","","","","","html-keyboard-response","180","282195","0.0-6.0-1.54","A1PUSSRD8P5HHH","2022-05-27T03:39:06.329Z","rhyme-same_different-task_switching-phon_sim","","null","rhyme","<img src=""square.png"" width=""306"" height=""306"" style=""position: fixed;left:14%;top:30%""><img src=""square.png"" width=""306"" height=""306"" style=""position: fixed;left:64%;top:30%"">","null","","","","","","","","","","","","","","","","","","","","","","","","","","","","","","","","","","",""
"","","","","","html-keyboard-response","181","283542","0.0-6.0-2.54","A1PUSSRD8P5HHH","2022-05-27T03:39:06.329Z","rhyme-same_different-task_switching-phon_sim","","1345.5","rhyme","<div style=""border: 3px solid #000000; position: fixed;left:14%;top:30%""><img src=""visual/wave.png"" width=""300""></div><div style=""border: 3px solid #000000; position: fixed;left:64%;top:30%""><img src=""visual/cave.png"" width=""300""></div>","arrowup","","true","experiment","visual/wave.png","visual/cave.png","ArrowUp","ortho","","","","","","","","","","","","","","","","","","","","","","","","","","","",""
"","","","","","html-keyboard-response","182","284546","0.0-6.0-0.55","A1PUSSRD8P5HHH","2022-05-27T03:39:06.329Z","rhyme-same_different-task_switching-phon_sim","","null","rhyme","<div style=""font-size:60px;"">+</div>","null","1000","","","","","","","","","","","","","","","","","","","","","","","","","","","","","","","","","",""
"","","","","","html-keyboard-response","183","285061","0.0-6.0-1.55","A1PUSSRD8P5HHH","2022-05-27T03:39:06.329Z","rhyme-same_different-task_switching-phon_sim","","null","rhyme","<img src=""square.png"" width=""306"" height=""306"" style=""position: fixed;left:14%;top:30%""><img src=""square.png"" width=""306"" height=""306"" style=""position: fixed;left:64%;top:30%"">","null","","","","","","","","","","","","","","","","","","","","","","","","","","","","","","","","","","",""
"","","","","","html-keyboard-response","184","286114","0.0-6.0-2.55","A1PUSSRD8P5HHH","2022-05-27T03:39:06.329Z","rhyme-same_different-task_switching-phon_sim","","1051.1000003814697","rhyme","<div style=""border: 3px solid #000000; position: fixed;left:14%;top:30%""><img src=""visual/brain.png"" width=""300""></div><div style=""border: 3px solid #000000; position: fixed;left:64%;top:30%""><img src=""visual/clock.png"" width=""300""></div>","arrowdown","","true","experiment","visual/brain.png","visual/clock.png","ArrowDown","NR","","","","","","","","","","","","","","","","","","","","","","","","","","","",""
"","","","","","html-keyboard-response","185","286629","0.0-6.0-0.56","A1PUSSRD8P5HHH","2022-05-27T03:39:06.329Z","rhyme-same_different-task_switching-phon_sim","","null","rhyme","<div style=""font-size:60px;"">+</div>","null","500","","","","","","","","","","","","","","","","","","","","","","","","","","","","","","","","","",""
"","","","","","html-keyboard-response","186","287134","0.0-6.0-1.56","A1PUSSRD8P5HHH","2022-05-27T03:39:06.329Z","rhyme-same_different-task_switching-phon_sim","","null","rhyme","<img src=""square.png"" width=""306"" height=""306"" style=""position: fixed;left:14%;top:30%""><img src=""square.png"" width=""306"" height=""306"" style=""position: fixed;left:64%;top:30%"">","null","","","","","","","","","","","","","","","","","","","","","","","","","","","","","","","","","","",""
"","","","","","html-keyboard-response","187","289161","0.0-6.0-2.56","A1PUSSRD8P5HHH","2022-05-27T03:39:06.329Z","rhyme-same_different-task_switching-phon_sim","","2024.7000002861023","rhyme","<div style=""border: 3px solid #000000; position: fixed;left:14%;top:30%""><img src=""visual/fly.png"" width=""300""></div><div style=""border: 3px solid #000000; position: fixed;left:64%;top:30%""><img src=""visual/plane.png"" width=""300""></div>","arrowdown","","true","experiment","visual/fly.png","visual/plane.png","ArrowDown","NR","","","","","","","","","","","","","","","","","","","","","","","","","","","",""
"","","","","","html-keyboard-response","188","290172","0.0-6.0-0.57","A1PUSSRD8P5HHH","2022-05-27T03:39:06.329Z","rhyme-same_different-task_switching-phon_sim","","null","rhyme","<div style=""font-size:60px;"">+</div>","null","1000","","","","","","","","","","","","","","","","","","","","","","","","","","","","","","","","","",""
"","","","","","html-keyboard-response","189","290679","0.0-6.0-1.57","A1PUSSRD8P5HHH","2022-05-27T03:39:06.329Z","rhyme-same_different-task_switching-phon_sim","","null","rhyme","<img src=""square.png"" width=""306"" height=""306"" style=""position: fixed;left:14%;top:30%""><img src=""square.png"" width=""306"" height=""306"" style=""position: fixed;left:64%;top:30%"">","null","","","","","","","","","","","","","","","","","","","","","","","","","","","","","","","","","","",""
"","","","","","html-keyboard-response","190","292093","0.0-6.0-2.57","A1PUSSRD8P5HHH","2022-05-27T03:39:06.329Z","rhyme-same_different-task_switching-phon_sim","","1414","rhyme","<div style=""border: 3px solid #000000; position: fixed;left:14%;top:30%""><img src=""visual/bone.png"" width=""300""></div><div style=""border: 3px solid #000000; position: fixed;left:64%;top:30%""><img src=""visual/cone.png"" width=""300""></div>","arrowdown","","false","experiment","visual/bone.png","visual/cone.png","ArrowUp","ortho","","","","","","","","","","","","","","","","","","","","","","","","","","","",""
"","","","","","html-keyboard-response","191","292600","0.0-6.0-0.58","A1PUSSRD8P5HHH","2022-05-27T03:39:06.329Z","rhyme-same_different-task_switching-phon_sim","","null","rhyme","<div style=""font-size:60px;"">+</div>","null","500","","","","","","","","","","","","","","","","","","","","","","","","","","","","","","","","","",""
"","","","","","html-keyboard-response","192","293111","0.0-6.0-1.58","A1PUSSRD8P5HHH","2022-05-27T03:39:06.329Z","rhyme-same_different-task_switching-phon_sim","","null","rhyme","<img src=""square.png"" width=""306"" height=""306"" style=""position: fixed;left:14%;top:30%""><img src=""square.png"" width=""306"" height=""306"" style=""position: fixed;left:64%;top:30%"">","null","","","","","","","","","","","","","","","","","","","","","","","","","","","","","","","","","","",""
"","","","","","html-keyboard-response","193","294938","0.0-6.0-2.58","A1PUSSRD8P5HHH","2022-05-27T03:39:06.329Z","rhyme-same_different-task_switching-phon_sim","","1823.9000000953674","rhyme","<div style=""border: 3px solid #000000; position: fixed;left:14%;top:30%""><img src=""visual/bear.png"" width=""300""></div><div style=""border: 3px solid #000000; position: fixed;left:64%;top:30%""><img src=""visual/crane.png"" width=""300""></div>","arrowup","","false","experiment","visual/bear.png","visual/crane.png","ArrowDown","NR","","","","","","","","","","","","","","","","","","","","","","","","","","","",""
"","","","","","html-keyboard-response","194","295194","0.0-6.0-0.59","A1PUSSRD8P5HHH","2022-05-27T03:39:06.329Z","rhyme-same_different-task_switching-phon_sim","","null","rhyme","<div style=""font-size:60px;"">+</div>","null","250","","","","","","","","","","","","","","","","","","","","","","","","","","","","","","","","","",""
"","","","","","html-keyboard-response","195","295704","0.0-6.0-1.59","A1PUSSRD8P5HHH","2022-05-27T03:39:06.329Z","rhyme-same_different-task_switching-phon_sim","","null","rhyme","<img src=""square.png"" width=""306"" height=""306"" style=""position: fixed;left:14%;top:30%""><img src=""square.png"" width=""306"" height=""306"" style=""position: fixed;left:64%;top:30%"">","null","","","","","","","","","","","","","","","","","","","","","","","","","","","","","","","","","","",""
"","","","","","html-keyboard-response","196","296961","0.0-6.0-2.59","A1PUSSRD8P5HHH","2022-05-27T03:39:06.329Z","rhyme-same_different-task_switching-phon_sim","","1254","rhyme","<div style=""border: 3px solid #000000; position: fixed;left:14%;top:30%""><img src=""visual/drawer.png"" width=""300""></div><div style=""border: 3px solid #000000; position: fixed;left:64%;top:30%""><img src=""visual/chair.png"" width=""300""></div>","arrowdown","","true","experiment","visual/drawer.png","visual/chair.png","ArrowDown","NR","","","","","","","","","","","","","","","","","","","","","","","","","","","",""
"","","","","","survey-multi-choice","197","306855","0.0-7.0","A1PUSSRD8P5HHH","2022-05-27T03:39:06.329Z","rhyme-same_different-task_switching-phon_sim","","9889.5","rhyme","","{""Q0"":""Yes""}","","","","","","","","[0]","Yes","","","","","","","","","","","","","","","","","","","","","","","","","",""
"","","","","","survey-text","198","313575","0.0-8.0","A1PUSSRD8P5HHH","2022-05-27T03:39:06.329Z","rhyme-same_different-task_switching-phon_sim","","6711.699999809265","rhyme","","{""Q0"":""no""}","","","","","","","","","","no","","","","","","","","","","","","","","","","","","","","","","","","",""
"","","","","","instructions","199","315854","0.0-9.0","A1PUSSRD8P5HHH","2022-05-27T03:39:06.329Z","rhyme-same_different-task_switching-phon_sim","[{""page_index"":0,""viewing_time"":2276.199999809265}]","2276.5","rhyme","","","","","","","","","","","","","","","","","","","","","","","","","","","","","","","","","","","","",""
"","","","","","instructions","200","348280","0.0-10.0","A1PUSSRD8P5HHH","2022-05-27T03:39:06.329Z","rhyme-same_different-task_switching-phon_sim","[{""page_index"":0,""viewing_time"":32425.199999809265}]","32425.599999904633","same_different","","","","","","","","","","","","","","","","","","","","","","","","","","","","","","","","","","","","",""
"","","","","","instructions","201","370768","0.0-11.0","A1PUSSRD8P5HHH","2022-05-27T03:39:06.329Z","rhyme-same_different-task_switching-phon_sim","[{""page_index"":0,""viewing_time"":22488.60000038147}]","22489.200000286102","","","","","","","","","","","","","","","","","","","","","","","","","","","","","","","","","","","","","",""
"","","","","","html-keyboard-response","202","371531","0.0-12.0-0.0","A1PUSSRD8P5HHH","2022-05-27T03:39:06.329Z","rhyme-same_different-task_switching-phon_sim","","null","same_different","<div style=""font-size:60px"">+</div>","null","","","","","","","","","","","","","","","","","","","","","","","","","","","","","","","","","","",""
"","","","","","html-keyboard-response","203","374217","0.0-12.0-1.0","A1PUSSRD8P5HHH","2022-05-27T03:39:06.329Z","rhyme-same_different-task_switching-phon_sim","","2679.2000002861023","same_different","[""<img src=\""square.png\"" width=\""100\"" height=\""100\"" style=\""position: fixed;left:39%;top:47%\""><img src=\""square.png\"" width=\""100\"" height=\""100\"" style=\""position: fixed;left:54%;top:47%\""><img src=\""square.png\"" width=\""100\"" height=\""100\"" style=\""position: fixed;left:46.5%;top:32%\""><img src=\""square.png\"" width=\""100\"" height=\""100\"" style=\""position: fixed;left:46.5%;top:61%\""><div style=\""font-size:60px; text-align: center;margin-top:45.5%\"">+</div><div id=\""first\"" style=\""position: fixed;visibility: hidden;left:48%;top:34%\""><img src=\""same_diff_imgs/D07.gif\""></div><div id=\""delayed\"" style=\""position: fixed;visibility: hidden;left:40%;top:48%\""><img src=\""same_diff_imgs/D07.gif\""></div>""]","arrowup","","true","","","","","","","","","identical_image","same_diff_imgs/D07.gif","same_diff_imgs/D07.gif","no","same","1","","","","","","","","","","","","","","","","","","",""
"","","","","","html-keyboard-response","204","374221","0.0-12.0-2.0","A1PUSSRD8P5HHH","2022-05-27T03:39:06.329Z","rhyme-same_different-task_switching-phon_sim","","null",""," ","null","","","","","","","","","","","","","","","","","","","","","","","","","","","","","","","","","","",""
"","","","","","html-keyboard-response","205","374525","0.0-12.0-3.0","A1PUSSRD8P5HHH","2022-05-27T03:39:06.329Z","rhyme-same_different-task_switching-phon_sim","","null","same_different"," ","null","","","","","","","","","","","","","","","","","","","","","","","","","","","","","","","","","","",""
"","","","","","html-keyboard-response","206","375287","0.0-12.0-0.1","A1PUSSRD8P5HHH","2022-05-27T03:39:06.329Z","rhyme-same_different-task_switching-phon_sim","","null","same_different","<div style=""font-size:60px"">+</div>","null","","","","","","","","","","","","","","","","","","","","","","","","","","","","","","","","","","",""
"","","","","","html-keyboard-response","207","377904","0.0-12.0-1.1","A1PUSSRD8P5HHH","2022-05-27T03:39:06.329Z","rhyme-same_different-task_switching-phon_sim","","2614.0999999046326","same_different","[""<img src=\""square.png\"" width=\""100\"" height=\""100\"" style=\""position: fixed;left:39%;top:47%\""><img src=\""square.png\"" width=\""100\"" height=\""100\"" style=\""position: fixed;left:54%;top:47%\""><img src=\""square.png\"" width=\""100\"" height=\""100\"" style=\""position: fixed;left:46.5%;top:32%\""><img src=\""square.png\"" width=\""100\"" height=\""100\"" style=\""position: fixed;left:46.5%;top:61%\""><div style=\""font-size:60px; text-align: center;margin-top:45.5%\"">+</div><div id=\""first\"" style=\""position: fixed;visibility: hidden;left:55%;top:49%\""><img src=\""same_diff_imgs/C14.gif\""></div><div id=\""delayed\"" style=\""position: fixed;visibility: hidden;left:48%;top:62%\""><img src=\""same_diff_imgs/C09.gif\""></div>""]","arrowdown","","true","","","","","","","","","identical_image","same_diff_imgs/C14.gif","same_diff_imgs/C09.gif","no","different","","1","","","","","","","","","","","","","","","","","",""
"","","","","","html-keyboard-response","208","377906","0.0-12.0-2.1","A1PUSSRD8P5HHH","2022-05-27T03:39:06.329Z","rhyme-same_different-task_switching-phon_sim","","null",""," ","null","","","","","","","","","","","","","","","","","","","","","","","","","","","","","","","","","","",""
"","","","","","html-keyboard-response","209","378218","0.0-12.0-3.1","A1PUSSRD8P5HHH","2022-05-27T03:39:06.329Z","rhyme-same_different-task_switching-phon_sim","","null","same_different"," ","null","","","","","","","","","","","","","","","","","","","","","","","","","","","","","","","","","","",""
