"success","timeout","failed_images","failed_audio","failed_video","trial_type","trial_index","time_elapsed","internal_node_id","worker_id","start_time","experiment_order","view_history","rt","experiment","stimulus","response","wait_time","correct","phase","image_1","image_2","cor_key","type","question_order","talk_out_loud","strategy_free_ans","condition","answer","operation","symbol_cue","trial_no","color_cue","judgment_type","stim_1","stim_2","inverted","true_pos","true_neg","false_neg","word_1","word_2","word_3","word_4","word_5","original_word_set","response_1","response_2","response_3","response_4","response_5"
"true","false","[]","[]","[]","preload","0","2787","0.0-0.0","A26BQ33MHKVYFB","2022-05-27T01:09:36.203Z","rhyme-task_switching-same_different-phon_sim","","","","","","","","","","","","","","","","","","","","","","","","","","","","","","","","","","","","","","",""
"","","","","","instructions","1","19813","0.0-1.0","A26BQ33MHKVYFB","2022-05-27T01:09:36.203Z","rhyme-task_switching-same_different-phon_sim","[{""page_index"":0,""viewing_time"":17024.5}]","17024.800000000047","","","","","","","","","","","","","","","","","","","","","","","","","","","","","","","","","","","","",""
"true","","","","","fullscreen","2","25149","0.0-2.0","A26BQ33MHKVYFB","2022-05-27T01:09:36.203Z","rhyme-task_switching-same_different-phon_sim","","","","","","","","","","","","","","","","","","","","","","","","","","","","","","","","","","","","","","",""
"","","","","","instructions","3","66622","0.0-3.0","A26BQ33MHKVYFB","2022-05-27T01:09:36.203Z","rhyme-task_switching-same_different-phon_sim","[{""page_index"":0,""viewing_time"":41472.60000000009}]","41472.80000000005","rhyme","","","","","","","","","","","","","","","","","","","","","","","","","","","","","","","","","","","",""
"","","","","","html-keyboard-response","4","67625","0.0-4.0-0.0","A26BQ33MHKVYFB","2022-05-27T01:09:36.203Z","rhyme-task_switching-same_different-phon_sim","","null","rhyme","<div style=""font-size:60px;"">+</div>","null","1000","","","","","","","","","","","","","","","","","","","","","","","","","","","","","","","","",""
"","","","","","html-keyboard-response","5","68137","0.0-4.0-1.0","A26BQ33MHKVYFB","2022-05-27T01:09:36.203Z","rhyme-task_switching-same_different-phon_sim","","null","rhyme","<img src=""square.png"" width=""306"" height=""306"" style=""position: fixed;left:14%;top:30%""><img src=""square.png"" width=""306"" height=""306"" style=""position: fixed;left:64%;top:30%"">","null","","","","","","","","","","","","","","","","","","","","","","","","","","","","","","","","","",""
"","","","","","categorize-html","6","74163","0.0-4.0-2.0","A26BQ33MHKVYFB","2022-05-27T01:09:36.203Z","rhyme-task_switching-same_different-phon_sim","","null","rhyme","<div style=""border: 3px solid #000000; position: fixed;left:14%;top:30%""><img src=""visual/mouse.png"" width=""300""></div><div style=""border: 3px solid #000000; position: fixed;left:64%;top:30%""><img src=""visual/dress.png"" width=""300""></div>","null","","false","training","visual/mouse.png","visual/dress.png","ArrowDown","NA","","","","","","","","","","","","","","","","","","","","","","","","","","",""
"","","","","","html-keyboard-response","7","74430","0.0-4.0-0.1","A26BQ33MHKVYFB","2022-05-27T01:09:36.203Z","rhyme-task_switching-same_different-phon_sim","","null","rhyme","<div style=""font-size:60px;"">+</div>","null","250","","","","","","","","","","","","","","","","","","","","","","","","","","","","","","","","",""
"","","","","","html-keyboard-response","8","74941","0.0-4.0-1.1","A26BQ33MHKVYFB","2022-05-27T01:09:36.203Z","rhyme-task_switching-same_different-phon_sim","","null","rhyme","<img src=""square.png"" width=""306"" height=""306"" style=""position: fixed;left:14%;top:30%""><img src=""square.png"" width=""306"" height=""306"" style=""position: fixed;left:64%;top:30%"">","null","","","","","","","","","","","","","","","","","","","","","","","","","","","","","","","","","",""
"","","","","","categorize-html","9","80963","0.0-4.0-2.1","A26BQ33MHKVYFB","2022-05-27T01:09:36.203Z","rhyme-task_switching-same_different-phon_sim","","null","rhyme","<div style=""border: 3px solid #000000; position: fixed;left:14%;top:30%""><img src=""visual/chess.png"" width=""300""></div><div style=""border: 3px solid #000000; position: fixed;left:64%;top:30%""><img src=""visual/suit.png"" width=""300""></div>","null","","false","training","visual/chess.png","visual/suit.png","ArrowDown","NA","","","","","","","","","","","","","","","","","","","","","","","","","","",""
"","","","","","html-keyboard-response","10","81724","0.0-4.0-0.2","A26BQ33MHKVYFB","2022-05-27T01:09:36.203Z","rhyme-task_switching-same_different-phon_sim","","null","rhyme","<div style=""font-size:60px;"">+</div>","null","750","","","","","","","","","","","","","","","","","","","","","","","","","","","","","","","","",""
"","","","","","html-keyboard-response","11","82226","0.0-4.0-1.2","A26BQ33MHKVYFB","2022-05-27T01:09:36.203Z","rhyme-task_switching-same_different-phon_sim","","null","rhyme","<img src=""square.png"" width=""306"" height=""306"" style=""position: fixed;left:14%;top:30%""><img src=""square.png"" width=""306"" height=""306"" style=""position: fixed;left:64%;top:30%"">","null","","","","","","","","","","","","","","","","","","","","","","","","","","","","","","","","","",""
"","","","","","categorize-html","12","88245","0.0-4.0-2.2","A26BQ33MHKVYFB","2022-05-27T01:09:36.203Z","rhyme-task_switching-same_different-phon_sim","","null","rhyme","<div style=""border: 3px solid #000000; position: fixed;left:14%;top:30%""><img src=""visual/house.png"" width=""300""></div><div style=""border: 3px solid #000000; position: fixed;left:64%;top:30%""><img src=""visual/mouse.png"" width=""300""></div>","null","","false","training","visual/house.png","visual/mouse.png","ArrowUp","NA","","","","","","","","","","","","","","","","","","","","","","","","","","",""
"","","","","","html-keyboard-response","13","88501","0.0-4.0-0.3","A26BQ33MHKVYFB","2022-05-27T01:09:36.203Z","rhyme-task_switching-same_different-phon_sim","","null","rhyme","<div style=""font-size:60px;"">+</div>","null","250","","","","","","","","","","","","","","","","","","","","","","","","","","","","","","","","",""
"","","","","","html-keyboard-response","14","89016","0.0-4.0-1.3","A26BQ33MHKVYFB","2022-05-27T01:09:36.203Z","rhyme-task_switching-same_different-phon_sim","","null","rhyme","<img src=""square.png"" width=""306"" height=""306"" style=""position: fixed;left:14%;top:30%""><img src=""square.png"" width=""306"" height=""306"" style=""position: fixed;left:64%;top:30%"">","null","","","","","","","","","","","","","","","","","","","","","","","","","","","","","","","","","",""
"","","","","","categorize-html","15","95024","0.0-4.0-2.3","A26BQ33MHKVYFB","2022-05-27T01:09:36.203Z","rhyme-task_switching-same_different-phon_sim","","null","rhyme","<div style=""border: 3px solid #000000; position: fixed;left:14%;top:30%""><img src=""visual/dress.png"" width=""300""></div><div style=""border: 3px solid #000000; position: fixed;left:64%;top:30%""><img src=""visual/chess.png"" width=""300""></div>","null","","false","training","visual/dress.png","visual/chess.png","ArrowUp","NA","","","","","","","","","","","","","","","","","","","","","","","","","","",""
"","","","","","instructions","16","97830","0.0-5.0","A26BQ33MHKVYFB","2022-05-27T01:09:36.203Z","rhyme-task_switching-same_different-phon_sim","[{""page_index"":0,""viewing_time"":2805.2999999998137}]","2805.5999999998603","","","","","","","","","","","","","","","","","","","","","","","","","","","","","","","","","","","","",""
"","","","","","html-keyboard-response","17","98832","0.0-6.0-0.0","A26BQ33MHKVYFB","2022-05-27T01:09:36.203Z","rhyme-task_switching-same_different-phon_sim","","null","rhyme","<div style=""font-size:60px;"">+</div>","null","1000","","","","","","","","","","","","","","","","","","","","","","","","","","","","","","","","",""
"","","","","","html-keyboard-response","18","99335","0.0-6.0-1.0","A26BQ33MHKVYFB","2022-05-27T01:09:36.203Z","rhyme-task_switching-same_different-phon_sim","","null","rhyme","<img src=""square.png"" width=""306"" height=""306"" style=""position: fixed;left:14%;top:30%""><img src=""square.png"" width=""306"" height=""306"" style=""position: fixed;left:64%;top:30%"">","null","","","","","","","","","","","","","","","","","","","","","","","","","","","","","","","","","",""
"","","","","","html-keyboard-response","19","104352","0.0-6.0-2.0","A26BQ33MHKVYFB","2022-05-27T01:09:36.203Z","rhyme-task_switching-same_different-phon_sim","","null","rhyme","<div style=""border: 3px solid #000000; position: fixed;left:14%;top:30%""><img src=""visual/wave.png"" width=""300""></div><div style=""border: 3px solid #000000; position: fixed;left:64%;top:30%""><img src=""visual/cave.png"" width=""300""></div>","null","","false","experiment","visual/wave.png","visual/cave.png","ArrowUp","ortho","","","","","","","","","","","","","","","","","","","","","","","","","","",""
"","","","","","html-keyboard-response","20","104858","0.0-6.0-0.1","A26BQ33MHKVYFB","2022-05-27T01:09:36.203Z","rhyme-task_switching-same_different-phon_sim","","null","rhyme","<div style=""font-size:60px;"">+</div>","null","500","","","","","","","","","","","","","","","","","","","","","","","","","","","","","","","","",""
"","","","","","html-keyboard-response","21","105366","0.0-6.0-1.1","A26BQ33MHKVYFB","2022-05-27T01:09:36.203Z","rhyme-task_switching-same_different-phon_sim","","null","rhyme","<img src=""square.png"" width=""306"" height=""306"" style=""position: fixed;left:14%;top:30%""><img src=""square.png"" width=""306"" height=""306"" style=""position: fixed;left:64%;top:30%"">","null","","","","","","","","","","","","","","","","","","","","","","","","","","","","","","","","","",""
"","","","","","html-keyboard-response","22","110384","0.0-6.0-2.1","A26BQ33MHKVYFB","2022-05-27T01:09:36.203Z","rhyme-task_switching-same_different-phon_sim","","null","rhyme","<div style=""border: 3px solid #000000; position: fixed;left:14%;top:30%""><img src=""visual/wheel.png"" width=""300""></div><div style=""border: 3px solid #000000; position: fixed;left:64%;top:30%""><img src=""visual/seal.png"" width=""300""></div>","null","","false","experiment","visual/wheel.png","visual/seal.png","ArrowUp","non-ortho","","","","","","","","","","","","","","","","","","","","","","","","","","",""
"","","","","","html-keyboard-response","23","111401","0.0-6.0-0.2","A26BQ33MHKVYFB","2022-05-27T01:09:36.203Z","rhyme-task_switching-same_different-phon_sim","","null","rhyme","<div style=""font-size:60px;"">+</div>","null","1000","","","","","","","","","","","","","","","","","","","","","","","","","","","","","","","","",""
"","","","","","html-keyboard-response","24","111910","0.0-6.0-1.2","A26BQ33MHKVYFB","2022-05-27T01:09:36.203Z","rhyme-task_switching-same_different-phon_sim","","null","rhyme","<img src=""square.png"" width=""306"" height=""306"" style=""position: fixed;left:14%;top:30%""><img src=""square.png"" width=""306"" height=""306"" style=""position: fixed;left:64%;top:30%"">","null","","","","","","","","","","","","","","","","","","","","","","","","","","","","","","","","","",""
"","","","","","html-keyboard-response","25","116928","0.0-6.0-2.2","A26BQ33MHKVYFB","2022-05-27T01:09:36.203Z","rhyme-task_switching-same_different-phon_sim","","null","rhyme","<div style=""border: 3px solid #000000; position: fixed;left:14%;top:30%""><img src=""visual/jar.png"" width=""300""></div><div style=""border: 3px solid #000000; position: fixed;left:64%;top:30%""><img src=""visual/whale.png"" width=""300""></div>","null","","false","experiment","visual/jar.png","visual/whale.png","ArrowDown","NR","","","","","","","","","","","","","","","","","","","","","","","","","","",""
"","","","","","html-keyboard-response","26","117439","0.0-6.0-0.3","A26BQ33MHKVYFB","2022-05-27T01:09:36.203Z","rhyme-task_switching-same_different-phon_sim","","null","rhyme","<div style=""font-size:60px;"">+</div>","null","500","","","","","","","","","","","","","","","","","","","","","","","","","","","","","","","","",""
"","","","","","html-keyboard-response","27","117956","0.0-6.0-1.3","A26BQ33MHKVYFB","2022-05-27T01:09:36.203Z","rhyme-task_switching-same_different-phon_sim","","null","rhyme","<img src=""square.png"" width=""306"" height=""306"" style=""position: fixed;left:14%;top:30%""><img src=""square.png"" width=""306"" height=""306"" style=""position: fixed;left:64%;top:30%"">","null","","","","","","","","","","","","","","","","","","","","","","","","","","","","","","","","","",""
"","","","","","html-keyboard-response","28","122978","0.0-6.0-2.3","A26BQ33MHKVYFB","2022-05-27T01:09:36.203Z","rhyme-task_switching-same_different-phon_sim","","null","rhyme","<div style=""border: 3px solid #000000; position: fixed;left:14%;top:30%""><img src=""visual/drum.png"" width=""300""></div><div style=""border: 3px solid #000000; position: fixed;left:64%;top:30%""><img src=""visual/thumb.png"" width=""300""></div>","null","","false","experiment","visual/drum.png","visual/thumb.png","ArrowUp","non-ortho","","","","","","","","","","","","","","","","","","","","","","","","","","",""
"","","","","","html-keyboard-response","29","123233","0.0-6.0-0.4","A26BQ33MHKVYFB","2022-05-27T01:09:36.203Z","rhyme-task_switching-same_different-phon_sim","","null","rhyme","<div style=""font-size:60px;"">+</div>","null","250","","","","","","","","","","","","","","","","","","","","","","","","","","","","","","","","",""
"","","","","","html-keyboard-response","30","123750","0.0-6.0-1.4","A26BQ33MHKVYFB","2022-05-27T01:09:36.203Z","rhyme-task_switching-same_different-phon_sim","","null","rhyme","<img src=""square.png"" width=""306"" height=""306"" style=""position: fixed;left:14%;top:30%""><img src=""square.png"" width=""306"" height=""306"" style=""position: fixed;left:64%;top:30%"">","null","","","","","","","","","","","","","","","","","","","","","","","","","","","","","","","","","",""
"","","","","","html-keyboard-response","31","128761","0.0-6.0-2.4","A26BQ33MHKVYFB","2022-05-27T01:09:36.203Z","rhyme-task_switching-same_different-phon_sim","","null","rhyme","<div style=""border: 3px solid #000000; position: fixed;left:14%;top:30%""><img src=""visual/socks.png"" width=""300""></div><div style=""border: 3px solid #000000; position: fixed;left:64%;top:30%""><img src=""visual/fox.png"" width=""300""></div>","null","","false","experiment","visual/socks.png","visual/fox.png","ArrowUp","non-ortho","","","","","","","","","","","","","","","","","","","","","","","","","","",""
"","","","","","html-keyboard-response","32","129263","0.0-6.0-0.5","A26BQ33MHKVYFB","2022-05-27T01:09:36.203Z","rhyme-task_switching-same_different-phon_sim","","null","rhyme","<div style=""font-size:60px;"">+</div>","null","500","","","","","","","","","","","","","","","","","","","","","","","","","","","","","","","","",""
"","","","","","html-keyboard-response","33","129777","0.0-6.0-1.5","A26BQ33MHKVYFB","2022-05-27T01:09:36.203Z","rhyme-task_switching-same_different-phon_sim","","null","rhyme","<img src=""square.png"" width=""306"" height=""306"" style=""position: fixed;left:14%;top:30%""><img src=""square.png"" width=""306"" height=""306"" style=""position: fixed;left:64%;top:30%"">","null","","","","","","","","","","","","","","","","","","","","","","","","","","","","","","","","","",""
"","","","","","html-keyboard-response","34","134801","0.0-6.0-2.5","A26BQ33MHKVYFB","2022-05-27T01:09:36.203Z","rhyme-task_switching-same_different-phon_sim","","null","rhyme","<div style=""border: 3px solid #000000; position: fixed;left:14%;top:30%""><img src=""visual/spoon.png"" width=""300""></div><div style=""border: 3px solid #000000; position: fixed;left:64%;top:30%""><img src=""visual/crab.png"" width=""300""></div>","null","","false","experiment","visual/spoon.png","visual/crab.png","ArrowDown","NR","","","","","","","","","","","","","","","","","","","","","","","","","","",""
"","","","","","html-keyboard-response","35","135056","0.0-6.0-0.6","A26BQ33MHKVYFB","2022-05-27T01:09:36.203Z","rhyme-task_switching-same_different-phon_sim","","null","rhyme","<div style=""font-size:60px;"">+</div>","null","250","","","","","","","","","","","","","","","","","","","","","","","","","","","","","","","","",""
"","","","","","html-keyboard-response","36","135567","0.0-6.0-1.6","A26BQ33MHKVYFB","2022-05-27T01:09:36.203Z","rhyme-task_switching-same_different-phon_sim","","null","rhyme","<img src=""square.png"" width=""306"" height=""306"" style=""position: fixed;left:14%;top:30%""><img src=""square.png"" width=""306"" height=""306"" style=""position: fixed;left:64%;top:30%"">","null","","","","","","","","","","","","","","","","","","","","","","","","","","","","","","","","","",""
"","","","","","html-keyboard-response","37","140583","0.0-6.0-2.6","A26BQ33MHKVYFB","2022-05-27T01:09:36.203Z","rhyme-task_switching-same_different-phon_sim","","null","rhyme","<div style=""border: 3px solid #000000; position: fixed;left:14%;top:30%""><img src=""visual/drawer.png"" width=""300""></div><div style=""border: 3px solid #000000; position: fixed;left:64%;top:30%""><img src=""visual/chair.png"" width=""300""></div>","null","","false","experiment","visual/drawer.png","visual/chair.png","ArrowDown","NR","","","","","","","","","","","","","","","","","","","","","","","","","","",""
"","","","","","html-keyboard-response","38","141340","0.0-6.0-0.7","A26BQ33MHKVYFB","2022-05-27T01:09:36.203Z","rhyme-task_switching-same_different-phon_sim","","null","rhyme","<div style=""font-size:60px;"">+</div>","null","750","","","","","","","","","","","","","","","","","","","","","","","","","","","","","","","","",""
"","","","","","html-keyboard-response","39","141848","0.0-6.0-1.7","A26BQ33MHKVYFB","2022-05-27T01:09:36.203Z","rhyme-task_switching-same_different-phon_sim","","null","rhyme","<img src=""square.png"" width=""306"" height=""306"" style=""position: fixed;left:14%;top:30%""><img src=""square.png"" width=""306"" height=""306"" style=""position: fixed;left:64%;top:30%"">","null","","","","","","","","","","","","","","","","","","","","","","","","","","","","","","","","","",""
"","","","","","html-keyboard-response","40","146857","0.0-6.0-2.7","A26BQ33MHKVYFB","2022-05-27T01:09:36.203Z","rhyme-task_switching-same_different-phon_sim","","null","rhyme","<div style=""border: 3px solid #000000; position: fixed;left:14%;top:30%""><img src=""visual/box.png"" width=""300""></div><div style=""border: 3px solid #000000; position: fixed;left:64%;top:30%""><img src=""visual/fox.png"" width=""300""></div>","null","","false","experiment","visual/box.png","visual/fox.png","ArrowUp","ortho","","","","","","","","","","","","","","","","","","","","","","","","","","",""
"","","","","","html-keyboard-response","41","147362","0.0-6.0-0.8","A26BQ33MHKVYFB","2022-05-27T01:09:36.203Z","rhyme-task_switching-same_different-phon_sim","","null","rhyme","<div style=""font-size:60px;"">+</div>","null","500","","","","","","","","","","","","","","","","","","","","","","","","","","","","","","","","",""
"","","","","","html-keyboard-response","42","147876","0.0-6.0-1.8","A26BQ33MHKVYFB","2022-05-27T01:09:36.203Z","rhyme-task_switching-same_different-phon_sim","","null","rhyme","<img src=""square.png"" width=""306"" height=""306"" style=""position: fixed;left:14%;top:30%""><img src=""square.png"" width=""306"" height=""306"" style=""position: fixed;left:64%;top:30%"">","null","","","","","","","","","","","","","","","","","","","","","","","","","","","","","","","","","",""
"","","","","","html-keyboard-response","43","152900","0.0-6.0-2.8","A26BQ33MHKVYFB","2022-05-27T01:09:36.203Z","rhyme-task_switching-same_different-phon_sim","","null","rhyme","<div style=""border: 3px solid #000000; position: fixed;left:14%;top:30%""><img src=""visual/bin.png"" width=""300""></div><div style=""border: 3px solid #000000; position: fixed;left:64%;top:30%""><img src=""visual/chin.png"" width=""300""></div>","null","","false","experiment","visual/bin.png","visual/chin.png","ArrowUp","ortho","","","","","","","","","","","","","","","","","","","","","","","","","","",""
"","","","","","html-keyboard-response","44","153157","0.0-6.0-0.9","A26BQ33MHKVYFB","2022-05-27T01:09:36.203Z","rhyme-task_switching-same_different-phon_sim","","null","rhyme","<div style=""font-size:60px;"">+</div>","null","250","","","","","","","","","","","","","","","","","","","","","","","","","","","","","","","","",""
"","","","","","html-keyboard-response","45","153670","0.0-6.0-1.9","A26BQ33MHKVYFB","2022-05-27T01:09:36.203Z","rhyme-task_switching-same_different-phon_sim","","null","rhyme","<img src=""square.png"" width=""306"" height=""306"" style=""position: fixed;left:14%;top:30%""><img src=""square.png"" width=""306"" height=""306"" style=""position: fixed;left:64%;top:30%"">","null","","","","","","","","","","","","","","","","","","","","","","","","","","","","","","","","","",""
"","","","","","html-keyboard-response","46","158678","0.0-6.0-2.9","A26BQ33MHKVYFB","2022-05-27T01:09:36.203Z","rhyme-task_switching-same_different-phon_sim","","null","rhyme","<div style=""border: 3px solid #000000; position: fixed;left:14%;top:30%""><img src=""visual/fly.png"" width=""300""></div><div style=""border: 3px solid #000000; position: fixed;left:64%;top:30%""><img src=""visual/plane.png"" width=""300""></div>","null","","false","experiment","visual/fly.png","visual/plane.png","ArrowDown","NR","","","","","","","","","","","","","","","","","","","","","","","","","","",""
"","","","","","html-keyboard-response","47","158933","0.0-6.0-0.10","A26BQ33MHKVYFB","2022-05-27T01:09:36.203Z","rhyme-task_switching-same_different-phon_sim","","null","rhyme","<div style=""font-size:60px;"">+</div>","null","250","","","","","","","","","","","","","","","","","","","","","","","","","","","","","","","","",""
"","","","","","html-keyboard-response","48","159448","0.0-6.0-1.10","A26BQ33MHKVYFB","2022-05-27T01:09:36.203Z","rhyme-task_switching-same_different-phon_sim","","null","rhyme","<img src=""square.png"" width=""306"" height=""306"" style=""position: fixed;left:14%;top:30%""><img src=""square.png"" width=""306"" height=""306"" style=""position: fixed;left:64%;top:30%"">","null","","","","","","","","","","","","","","","","","","","","","","","","","","","","","","","","","",""
"","","","","","html-keyboard-response","49","164458","0.0-6.0-2.10","A26BQ33MHKVYFB","2022-05-27T01:09:36.203Z","rhyme-task_switching-same_different-phon_sim","","null","rhyme","<div style=""border: 3px solid #000000; position: fixed;left:14%;top:30%""><img src=""visual/egg.png"" width=""300""></div><div style=""border: 3px solid #000000; position: fixed;left:64%;top:30%""><img src=""visual/ring.png"" width=""300""></div>","null","","false","experiment","visual/egg.png","visual/ring.png","ArrowDown","NR","","","","","","","","","","","","","","","","","","","","","","","","","","",""
"","","","","","html-keyboard-response","50","165465","0.0-6.0-0.11","A26BQ33MHKVYFB","2022-05-27T01:09:36.203Z","rhyme-task_switching-same_different-phon_sim","","null","rhyme","<div style=""font-size:60px;"">+</div>","null","1000","","","","","","","","","","","","","","","","","","","","","","","","","","","","","","","","",""
"","","","","","html-keyboard-response","51","165970","0.0-6.0-1.11","A26BQ33MHKVYFB","2022-05-27T01:09:36.203Z","rhyme-task_switching-same_different-phon_sim","","null","rhyme","<img src=""square.png"" width=""306"" height=""306"" style=""position: fixed;left:14%;top:30%""><img src=""square.png"" width=""306"" height=""306"" style=""position: fixed;left:64%;top:30%"">","null","","","","","","","","","","","","","","","","","","","","","","","","","","","","","","","","","",""
"","","","","","html-keyboard-response","52","170973","0.0-6.0-2.11","A26BQ33MHKVYFB","2022-05-27T01:09:36.203Z","rhyme-task_switching-same_different-phon_sim","","null","rhyme","<div style=""border: 3px solid #000000; position: fixed;left:14%;top:30%""><img src=""visual/cat.png"" width=""300""></div><div style=""border: 3px solid #000000; position: fixed;left:64%;top:30%""><img src=""visual/hat.png"" width=""300""></div>","null","","false","experiment","visual/cat.png","visual/hat.png","ArrowUp","ortho","","","","","","","","","","","","","","","","","","","","","","","","","","",""
"","","","","","html-keyboard-response","53","171481","0.0-6.0-0.12","A26BQ33MHKVYFB","2022-05-27T01:09:36.203Z","rhyme-task_switching-same_different-phon_sim","","null","rhyme","<div style=""font-size:60px;"">+</div>","null","500","","","","","","","","","","","","","","","","","","","","","","","","","","","","","","","","",""
"","","","","","html-keyboard-response","54","171988","0.0-6.0-1.12","A26BQ33MHKVYFB","2022-05-27T01:09:36.203Z","rhyme-task_switching-same_different-phon_sim","","null","rhyme","<img src=""square.png"" width=""306"" height=""306"" style=""position: fixed;left:14%;top:30%""><img src=""square.png"" width=""306"" height=""306"" style=""position: fixed;left:64%;top:30%"">","null","","","","","","","","","","","","","","","","","","","","","","","","","","","","","","","","","",""
"","","","","","html-keyboard-response","55","177003","0.0-6.0-2.12","A26BQ33MHKVYFB","2022-05-27T01:09:36.203Z","rhyme-task_switching-same_different-phon_sim","","null","rhyme","<div style=""border: 3px solid #000000; position: fixed;left:14%;top:30%""><img src=""visual/screw.png"" width=""300""></div><div style=""border: 3px solid #000000; position: fixed;left:64%;top:30%""><img src=""visual/shoe.png"" width=""300""></div>","null","","false","experiment","visual/screw.png","visual/shoe.png","ArrowUp","non-ortho","","","","","","","","","","","","","","","","","","","","","","","","","","",""
"","","","","","html-keyboard-response","56","177763","0.0-6.0-0.13","A26BQ33MHKVYFB","2022-05-27T01:09:36.203Z","rhyme-task_switching-same_different-phon_sim","","null","rhyme","<div style=""font-size:60px;"">+</div>","null","750","","","","","","","","","","","","","","","","","","","","","","","","","","","","","","","","",""
"","","","","","html-keyboard-response","57","178280","0.0-6.0-1.13","A26BQ33MHKVYFB","2022-05-27T01:09:36.203Z","rhyme-task_switching-same_different-phon_sim","","null","rhyme","<img src=""square.png"" width=""306"" height=""306"" style=""position: fixed;left:14%;top:30%""><img src=""square.png"" width=""306"" height=""306"" style=""position: fixed;left:64%;top:30%"">","null","","","","","","","","","","","","","","","","","","","","","","","","","","","","","","","","","",""
"","","","","","html-keyboard-response","58","183293","0.0-6.0-2.13","A26BQ33MHKVYFB","2022-05-27T01:09:36.203Z","rhyme-task_switching-same_different-phon_sim","","null","rhyme","<div style=""border: 3px solid #000000; position: fixed;left:14%;top:30%""><img src=""visual/well.png"" width=""300""></div><div style=""border: 3px solid #000000; position: fixed;left:64%;top:30%""><img src=""visual/rose.png"" width=""300""></div>","null","","false","experiment","visual/well.png","visual/rose.png","ArrowDown","NR","","","","","","","","","","","","","","","","","","","","","","","","","","",""
"","","","","","html-keyboard-response","59","184310","0.0-6.0-0.14","A26BQ33MHKVYFB","2022-05-27T01:09:36.203Z","rhyme-task_switching-same_different-phon_sim","","null","rhyme","<div style=""font-size:60px;"">+</div>","null","1000","","","","","","","","","","","","","","","","","","","","","","","","","","","","","","","","",""
"","","","","","html-keyboard-response","60","184820","0.0-6.0-1.14","A26BQ33MHKVYFB","2022-05-27T01:09:36.203Z","rhyme-task_switching-same_different-phon_sim","","null","rhyme","<img src=""square.png"" width=""306"" height=""306"" style=""position: fixed;left:14%;top:30%""><img src=""square.png"" width=""306"" height=""306"" style=""position: fixed;left:64%;top:30%"">","null","","","","","","","","","","","","","","","","","","","","","","","","","","","","","","","","","",""
"","","","","","html-keyboard-response","61","189830","0.0-6.0-2.14","A26BQ33MHKVYFB","2022-05-27T01:09:36.203Z","rhyme-task_switching-same_different-phon_sim","","null","rhyme","<div style=""border: 3px solid #000000; position: fixed;left:14%;top:30%""><img src=""visual/chair.png"" width=""300""></div><div style=""border: 3px solid #000000; position: fixed;left:64%;top:30%""><img src=""visual/pear.png"" width=""300""></div>","null","","false","experiment","visual/chair.png","visual/pear.png","ArrowUp","non-ortho","","","","","","","","","","","","","","","","","","","","","","","","","","",""
"","","","","","html-keyboard-response","62","190586","0.0-6.0-0.15","A26BQ33MHKVYFB","2022-05-27T01:09:36.203Z","rhyme-task_switching-same_different-phon_sim","","null","rhyme","<div style=""font-size:60px;"">+</div>","null","750","","","","","","","","","","","","","","","","","","","","","","","","","","","","","","","","",""
"","","","","","html-keyboard-response","63","191097","0.0-6.0-1.15","A26BQ33MHKVYFB","2022-05-27T01:09:36.203Z","rhyme-task_switching-same_different-phon_sim","","null","rhyme","<img src=""square.png"" width=""306"" height=""306"" style=""position: fixed;left:14%;top:30%""><img src=""square.png"" width=""306"" height=""306"" style=""position: fixed;left:64%;top:30%"">","null","","","","","","","","","","","","","","","","","","","","","","","","","","","","","","","","","",""
"","","","","","html-keyboard-response","64","193683","0.0-6.0-2.15","A26BQ33MHKVYFB","2022-05-27T01:09:36.203Z","rhyme-task_switching-same_different-phon_sim","","2584.100000000093","rhyme","<div style=""border: 3px solid #000000; position: fixed;left:14%;top:30%""><img src=""visual/train.png"" width=""300""></div><div style=""border: 3px solid #000000; position: fixed;left:64%;top:30%""><img src=""visual/crane.png"" width=""300""></div>","arrowup","","true","experiment","visual/train.png","visual/crane.png","ArrowUp","non-ortho","","","","","","","","","","","","","","","","","","","","","","","","","","",""
"","","","","","html-keyboard-response","65","194189","0.0-6.0-0.16","A26BQ33MHKVYFB","2022-05-27T01:09:36.203Z","rhyme-task_switching-same_different-phon_sim","","null","rhyme","<div style=""font-size:60px;"">+</div>","null","500","","","","","","","","","","","","","","","","","","","","","","","","","","","","","","","","",""
"","","","","","html-keyboard-response","66","194697","0.0-6.0-1.16","A26BQ33MHKVYFB","2022-05-27T01:09:36.203Z","rhyme-task_switching-same_different-phon_sim","","null","rhyme","<img src=""square.png"" width=""306"" height=""306"" style=""position: fixed;left:14%;top:30%""><img src=""square.png"" width=""306"" height=""306"" style=""position: fixed;left:64%;top:30%"">","null","","","","","","","","","","","","","","","","","","","","","","","","","","","","","","","","","",""
"","","","","","html-keyboard-response","67","198595","0.0-6.0-2.16","A26BQ33MHKVYFB","2022-05-27T01:09:36.203Z","rhyme-task_switching-same_different-phon_sim","","3896.100000000093","rhyme","<div style=""border: 3px solid #000000; position: fixed;left:14%;top:30%""><img src=""visual/drawer.png"" width=""300""></div><div style=""border: 3px solid #000000; position: fixed;left:64%;top:30%""><img src=""visual/door.png"" width=""300""></div>","arrowdown","","false","experiment","visual/drawer.png","visual/door.png","ArrowUp","non-ortho","","","","","","","","","","","","","","","","","","","","","","","","","","",""
"","","","","","html-keyboard-response","68","199350","0.0-6.0-0.17","A26BQ33MHKVYFB","2022-05-27T01:09:36.203Z","rhyme-task_switching-same_different-phon_sim","","null","rhyme","<div style=""font-size:60px;"">+</div>","null","750","","","","","","","","","","","","","","","","","","","","","","","","","","","","","","","","",""
"","","","","","html-keyboard-response","69","199859","0.0-6.0-1.17","A26BQ33MHKVYFB","2022-05-27T01:09:36.203Z","rhyme-task_switching-same_different-phon_sim","","null","rhyme","<img src=""square.png"" width=""306"" height=""306"" style=""position: fixed;left:14%;top:30%""><img src=""square.png"" width=""306"" height=""306"" style=""position: fixed;left:64%;top:30%"">","null","","","","","","","","","","","","","","","","","","","","","","","","","","","","","","","","","",""
"","","","","","html-keyboard-response","70","202582","0.0-6.0-2.17","A26BQ33MHKVYFB","2022-05-27T01:09:36.203Z","rhyme-task_switching-same_different-phon_sim","","2720.899999999907","rhyme","<div style=""border: 3px solid #000000; position: fixed;left:14%;top:30%""><img src=""visual/key.png"" width=""300""></div><div style=""border: 3px solid #000000; position: fixed;left:64%;top:30%""><img src=""visual/snail.png"" width=""300""></div>","arrowdown","","true","experiment","visual/key.png","visual/snail.png","ArrowDown","NR","","","","","","","","","","","","","","","","","","","","","","","","","","",""
"","","","","","html-keyboard-response","71","203334","0.0-6.0-0.18","A26BQ33MHKVYFB","2022-05-27T01:09:36.203Z","rhyme-task_switching-same_different-phon_sim","","null","rhyme","<div style=""font-size:60px;"">+</div>","null","750","","","","","","","","","","","","","","","","","","","","","","","","","","","","","","","","",""
"","","","","","html-keyboard-response","72","203851","0.0-6.0-1.18","A26BQ33MHKVYFB","2022-05-27T01:09:36.203Z","rhyme-task_switching-same_different-phon_sim","","null","rhyme","<img src=""square.png"" width=""306"" height=""306"" style=""position: fixed;left:14%;top:30%""><img src=""square.png"" width=""306"" height=""306"" style=""position: fixed;left:64%;top:30%"">","null","","","","","","","","","","","","","","","","","","","","","","","","","","","","","","","","","",""
"","","","","","html-keyboard-response","73","207192","0.0-6.0-2.18","A26BQ33MHKVYFB","2022-05-27T01:09:36.203Z","rhyme-task_switching-same_different-phon_sim","","3339.399999999907","rhyme","<div style=""border: 3px solid #000000; position: fixed;left:14%;top:30%""><img src=""visual/tie.png"" width=""300""></div><div style=""border: 3px solid #000000; position: fixed;left:64%;top:30%""><img src=""visual/fly.png"" width=""300""></div>","arrowup","","true","experiment","visual/tie.png","visual/fly.png","ArrowUp","non-ortho","","","","","","","","","","","","","","","","","","","","","","","","","","",""
"","","","","","html-keyboard-response","74","207947","0.0-6.0-0.19","A26BQ33MHKVYFB","2022-05-27T01:09:36.203Z","rhyme-task_switching-same_different-phon_sim","","null","rhyme","<div style=""font-size:60px;"">+</div>","null","750","","","","","","","","","","","","","","","","","","","","","","","","","","","","","","","","",""
"","","","","","html-keyboard-response","75","208452","0.0-6.0-1.19","A26BQ33MHKVYFB","2022-05-27T01:09:36.203Z","rhyme-task_switching-same_different-phon_sim","","null","rhyme","<img src=""square.png"" width=""306"" height=""306"" style=""position: fixed;left:14%;top:30%""><img src=""square.png"" width=""306"" height=""306"" style=""position: fixed;left:64%;top:30%"">","null","","","","","","","","","","","","","","","","","","","","","","","","","","","","","","","","","",""
"","","","","","html-keyboard-response","76","210959","0.0-6.0-2.19","A26BQ33MHKVYFB","2022-05-27T01:09:36.203Z","rhyme-task_switching-same_different-phon_sim","","2504.7999999998137","rhyme","<div style=""border: 3px solid #000000; position: fixed;left:14%;top:30%""><img src=""visual/soap.png"" width=""300""></div><div style=""border: 3px solid #000000; position: fixed;left:64%;top:30%""><img src=""visual/rope.png"" width=""300""></div>","arrowdown","","false","experiment","visual/soap.png","visual/rope.png","ArrowUp","non-ortho","","","","","","","","","","","","","","","","","","","","","","","","","","",""
"","","","","","html-keyboard-response","77","211216","0.0-6.0-0.20","A26BQ33MHKVYFB","2022-05-27T01:09:36.203Z","rhyme-task_switching-same_different-phon_sim","","null","rhyme","<div style=""font-size:60px;"">+</div>","null","250","","","","","","","","","","","","","","","","","","","","","","","","","","","","","","","","",""
"","","","","","html-keyboard-response","78","211726","0.0-6.0-1.20","A26BQ33MHKVYFB","2022-05-27T01:09:36.203Z","rhyme-task_switching-same_different-phon_sim","","null","rhyme","<img src=""square.png"" width=""306"" height=""306"" style=""position: fixed;left:14%;top:30%""><img src=""square.png"" width=""306"" height=""306"" style=""position: fixed;left:64%;top:30%"">","null","","","","","","","","","","","","","","","","","","","","","","","","","","","","","","","","","",""
"","","","","","html-keyboard-response","79","214728","0.0-6.0-2.20","A26BQ33MHKVYFB","2022-05-27T01:09:36.203Z","rhyme-task_switching-same_different-phon_sim","","2999.600000000093","rhyme","<div style=""border: 3px solid #000000; position: fixed;left:14%;top:30%""><img src=""visual/bed.png"" width=""300""></div><div style=""border: 3px solid #000000; position: fixed;left:64%;top:30%""><img src=""visual/bread.png"" width=""300""></div>","arrowup","","true","experiment","visual/bed.png","visual/bread.png","ArrowUp","non-ortho","","","","","","","","","","","","","","","","","","","","","","","","","","",""
"","","","","","html-keyboard-response","80","215493","0.0-6.0-0.21","A26BQ33MHKVYFB","2022-05-27T01:09:36.203Z","rhyme-task_switching-same_different-phon_sim","","null","rhyme","<div style=""font-size:60px;"">+</div>","null","750","","","","","","","","","","","","","","","","","","","","","","","","","","","","","","","","",""
"","","","","","html-keyboard-response","81","216010","0.0-6.0-1.21","A26BQ33MHKVYFB","2022-05-27T01:09:36.203Z","rhyme-task_switching-same_different-phon_sim","","null","rhyme","<img src=""square.png"" width=""306"" height=""306"" style=""position: fixed;left:14%;top:30%""><img src=""square.png"" width=""306"" height=""306"" style=""position: fixed;left:64%;top:30%"">","null","","","","","","","","","","","","","","","","","","","","","","","","","","","","","","","","","",""
"","","","","","html-keyboard-response","82","218076","0.0-6.0-2.21","A26BQ33MHKVYFB","2022-05-27T01:09:36.203Z","rhyme-task_switching-same_different-phon_sim","","2063.2000000001863","rhyme","<div style=""border: 3px solid #000000; position: fixed;left:14%;top:30%""><img src=""visual/saw.png"" width=""300""></div><div style=""border: 3px solid #000000; position: fixed;left:64%;top:30%""><img src=""visual/claw.png"" width=""300""></div>","arrowup","","true","experiment","visual/saw.png","visual/claw.png","ArrowUp","ortho","","","","","","","","","","","","","","","","","","","","","","","","","","",""
"","","","","","html-keyboard-response","83","218590","0.0-6.0-0.22","A26BQ33MHKVYFB","2022-05-27T01:09:36.203Z","rhyme-task_switching-same_different-phon_sim","","null","rhyme","<div style=""font-size:60px;"">+</div>","null","500","","","","","","","","","","","","","","","","","","","","","","","","","","","","","","","","",""
"","","","","","html-keyboard-response","84","219106","0.0-6.0-1.22","A26BQ33MHKVYFB","2022-05-27T01:09:36.203Z","rhyme-task_switching-same_different-phon_sim","","null","rhyme","<img src=""square.png"" width=""306"" height=""306"" style=""position: fixed;left:14%;top:30%""><img src=""square.png"" width=""306"" height=""306"" style=""position: fixed;left:64%;top:30%"">","null","","","","","","","","","","","","","","","","","","","","","","","","","","","","","","","","","",""
"","","","","","html-keyboard-response","85","221956","0.0-6.0-2.22","A26BQ33MHKVYFB","2022-05-27T01:09:36.203Z","rhyme-task_switching-same_different-phon_sim","","2848","rhyme","<div style=""border: 3px solid #000000; position: fixed;left:14%;top:30%""><img src=""visual/tree.png"" width=""300""></div><div style=""border: 3px solid #000000; position: fixed;left:64%;top:30%""><img src=""visual/door.png"" width=""300""></div>","arrowdown","","true","experiment","visual/tree.png","visual/door.png","ArrowDown","NR","","","","","","","","","","","","","","","","","","","","","","","","","","",""
"","","","","","html-keyboard-response","86","222221","0.0-6.0-0.23","A26BQ33MHKVYFB","2022-05-27T01:09:36.203Z","rhyme-task_switching-same_different-phon_sim","","null","rhyme","<div style=""font-size:60px;"">+</div>","null","250","","","","","","","","","","","","","","","","","","","","","","","","","","","","","","","","",""
"","","","","","html-keyboard-response","87","222736","0.0-6.0-1.23","A26BQ33MHKVYFB","2022-05-27T01:09:36.203Z","rhyme-task_switching-same_different-phon_sim","","null","rhyme","<img src=""square.png"" width=""306"" height=""306"" style=""position: fixed;left:14%;top:30%""><img src=""square.png"" width=""306"" height=""306"" style=""position: fixed;left:64%;top:30%"">","null","","","","","","","","","","","","","","","","","","","","","","","","","","","","","","","","","",""
"","","","","","html-keyboard-response","88","225790","0.0-6.0-2.23","A26BQ33MHKVYFB","2022-05-27T01:09:36.203Z","rhyme-task_switching-same_different-phon_sim","","3051.899999999907","rhyme","<div style=""border: 3px solid #000000; position: fixed;left:14%;top:30%""><img src=""visual/cab.png"" width=""300""></div><div style=""border: 3px solid #000000; position: fixed;left:64%;top:30%""><img src=""visual/crab.png"" width=""300""></div>","arrowup","","true","experiment","visual/cab.png","visual/crab.png","ArrowUp","ortho","","","","","","","","","","","","","","","","","","","","","","","","","","",""
"","","","","","html-keyboard-response","89","226795","0.0-6.0-0.24","A26BQ33MHKVYFB","2022-05-27T01:09:36.203Z","rhyme-task_switching-same_different-phon_sim","","null","rhyme","<div style=""font-size:60px;"">+</div>","null","1000","","","","","","","","","","","","","","","","","","","","","","","","","","","","","","","","",""
"","","","","","html-keyboard-response","90","227301","0.0-6.0-1.24","A26BQ33MHKVYFB","2022-05-27T01:09:36.203Z","rhyme-task_switching-same_different-phon_sim","","null","rhyme","<img src=""square.png"" width=""306"" height=""306"" style=""position: fixed;left:14%;top:30%""><img src=""square.png"" width=""306"" height=""306"" style=""position: fixed;left:64%;top:30%"">","null","","","","","","","","","","","","","","","","","","","","","","","","","","","","","","","","","",""
"","","","","","html-keyboard-response","91","229687","0.0-6.0-2.24","A26BQ33MHKVYFB","2022-05-27T01:09:36.203Z","rhyme-task_switching-same_different-phon_sim","","2383.9000000001397","rhyme","<div style=""border: 3px solid #000000; position: fixed;left:14%;top:30%""><img src=""visual/plane.png"" width=""300""></div><div style=""border: 3px solid #000000; position: fixed;left:64%;top:30%""><img src=""visual/train.png"" width=""300""></div>","arrowup","","true","experiment","visual/plane.png","visual/train.png","ArrowUp","non-ortho","","","","","","","","","","","","","","","","","","","","","","","","","","",""
"","","","","","html-keyboard-response","92","230697","0.0-6.0-0.25","A26BQ33MHKVYFB","2022-05-27T01:09:36.203Z","rhyme-task_switching-same_different-phon_sim","","null","rhyme","<div style=""font-size:60px;"">+</div>","null","1000","","","","","","","","","","","","","","","","","","","","","","","","","","","","","","","","",""
"","","","","","html-keyboard-response","93","231213","0.0-6.0-1.25","A26BQ33MHKVYFB","2022-05-27T01:09:36.203Z","rhyme-task_switching-same_different-phon_sim","","null","rhyme","<img src=""square.png"" width=""306"" height=""306"" style=""position: fixed;left:14%;top:30%""><img src=""square.png"" width=""306"" height=""306"" style=""position: fixed;left:64%;top:30%"">","null","","","","","","","","","","","","","","","","","","","","","","","","","","","","","","","","","",""
"","","","","","html-keyboard-response","94","233248","0.0-6.0-2.25","A26BQ33MHKVYFB","2022-05-27T01:09:36.203Z","rhyme-task_switching-same_different-phon_sim","","2035.8999999999069","rhyme","<div style=""border: 3px solid #000000; position: fixed;left:14%;top:30%""><img src=""visual/shark.png"" width=""300""></div><div style=""border: 3px solid #000000; position: fixed;left:64%;top:30%""><img src=""visual/moon.png"" width=""300""></div>","arrowdown","","true","experiment","visual/shark.png","visual/moon.png","ArrowDown","NR","","","","","","","","","","","","","","","","","","","","","","","","","","",""
"","","","","","html-keyboard-response","95","233758","0.0-6.0-0.26","A26BQ33MHKVYFB","2022-05-27T01:09:36.203Z","rhyme-task_switching-same_different-phon_sim","","null","rhyme","<div style=""font-size:60px;"">+</div>","null","500","","","","","","","","","","","","","","","","","","","","","","","","","","","","","","","","",""
"","","","","","html-keyboard-response","96","234274","0.0-6.0-1.26","A26BQ33MHKVYFB","2022-05-27T01:09:36.203Z","rhyme-task_switching-same_different-phon_sim","","null","rhyme","<img src=""square.png"" width=""306"" height=""306"" style=""position: fixed;left:14%;top:30%""><img src=""square.png"" width=""306"" height=""306"" style=""position: fixed;left:64%;top:30%"">","null","","","","","","","","","","","","","","","","","","","","","","","","","","","","","","","","","",""
"","","","","","html-keyboard-response","97","236362","0.0-6.0-2.26","A26BQ33MHKVYFB","2022-05-27T01:09:36.203Z","rhyme-task_switching-same_different-phon_sim","","2086.3000000000466","rhyme","<div style=""border: 3px solid #000000; position: fixed;left:14%;top:30%""><img src=""visual/eye.png"" width=""300""></div><div style=""border: 3px solid #000000; position: fixed;left:64%;top:30%""><img src=""visual/tie.png"" width=""300""></div>","arrowup","","true","experiment","visual/eye.png","visual/tie.png","ArrowUp","non-ortho","","","","","","","","","","","","","","","","","","","","","","","","","","",""
"","","","","","html-keyboard-response","98","236875","0.0-6.0-0.27","A26BQ33MHKVYFB","2022-05-27T01:09:36.203Z","rhyme-task_switching-same_different-phon_sim","","null","rhyme","<div style=""font-size:60px;"">+</div>","null","500","","","","","","","","","","","","","","","","","","","","","","","","","","","","","","","","",""
"","","","","","html-keyboard-response","99","237388","0.0-6.0-1.27","A26BQ33MHKVYFB","2022-05-27T01:09:36.203Z","rhyme-task_switching-same_different-phon_sim","","null","rhyme","<img src=""square.png"" width=""306"" height=""306"" style=""position: fixed;left:14%;top:30%""><img src=""square.png"" width=""306"" height=""306"" style=""position: fixed;left:64%;top:30%"">","null","","","","","","","","","","","","","","","","","","","","","","","","","","","","","","","","","",""
"","","","","","html-keyboard-response","100","239513","0.0-6.0-2.27","A26BQ33MHKVYFB","2022-05-27T01:09:36.203Z","rhyme-task_switching-same_different-phon_sim","","2122.6999999999534","rhyme","<div style=""border: 3px solid #000000; position: fixed;left:14%;top:30%""><img src=""visual/dart.png"" width=""300""></div><div style=""border: 3px solid #000000; position: fixed;left:64%;top:30%""><img src=""visual/tie.png"" width=""300""></div>","arrowdown","","true","experiment","visual/dart.png","visual/tie.png","ArrowDown","NR","","","","","","","","","","","","","","","","","","","","","","","","","","",""
"","","","","","html-keyboard-response","101","240279","0.0-6.0-0.28","A26BQ33MHKVYFB","2022-05-27T01:09:36.203Z","rhyme-task_switching-same_different-phon_sim","","null","rhyme","<div style=""font-size:60px;"">+</div>","null","750","","","","","","","","","","","","","","","","","","","","","","","","","","","","","","","","",""
"","","","","","html-keyboard-response","102","240795","0.0-6.0-1.28","A26BQ33MHKVYFB","2022-05-27T01:09:36.203Z","rhyme-task_switching-same_different-phon_sim","","null","rhyme","<img src=""square.png"" width=""306"" height=""306"" style=""position: fixed;left:14%;top:30%""><img src=""square.png"" width=""306"" height=""306"" style=""position: fixed;left:64%;top:30%"">","null","","","","","","","","","","","","","","","","","","","","","","","","","","","","","","","","","",""
"","","","","","html-keyboard-response","103","243699","0.0-6.0-2.28","A26BQ33MHKVYFB","2022-05-27T01:09:36.203Z","rhyme-task_switching-same_different-phon_sim","","2903","rhyme","<div style=""border: 3px solid #000000; position: fixed;left:14%;top:30%""><img src=""visual/snail.png"" width=""300""></div><div style=""border: 3px solid #000000; position: fixed;left:64%;top:30%""><img src=""visual/whale.png"" width=""300""></div>","arrowup","","true","experiment","visual/snail.png","visual/whale.png","ArrowUp","non-ortho","","","","","","","","","","","","","","","","","","","","","","","","","","",""
"","","","","","html-keyboard-response","104","244215","0.0-6.0-0.29","A26BQ33MHKVYFB","2022-05-27T01:09:36.203Z","rhyme-task_switching-same_different-phon_sim","","null","rhyme","<div style=""font-size:60px;"">+</div>","null","500","","","","","","","","","","","","","","","","","","","","","","","","","","","","","","","","",""
"","","","","","html-keyboard-response","105","244731","0.0-6.0-1.29","A26BQ33MHKVYFB","2022-05-27T01:09:36.203Z","rhyme-task_switching-same_different-phon_sim","","null","rhyme","<img src=""square.png"" width=""306"" height=""306"" style=""position: fixed;left:14%;top:30%""><img src=""square.png"" width=""306"" height=""306"" style=""position: fixed;left:64%;top:30%"">","null","","","","","","","","","","","","","","","","","","","","","","","","","","","","","","","","","",""
"","","","","","html-keyboard-response","106","248473","0.0-6.0-2.29","A26BQ33MHKVYFB","2022-05-27T01:09:36.203Z","rhyme-task_switching-same_different-phon_sim","","3740.100000000093","rhyme","<div style=""border: 3px solid #000000; position: fixed;left:14%;top:30%""><img src=""visual/rake.png"" width=""300""></div><div style=""border: 3px solid #000000; position: fixed;left:64%;top:30%""><img src=""visual/park.png"" width=""300""></div>","arrowdown","","true","experiment","visual/rake.png","visual/park.png","ArrowDown","NR","","","","","","","","","","","","","","","","","","","","","","","","","","",""
"","","","","","html-keyboard-response","107","249239","0.0-6.0-0.30","A26BQ33MHKVYFB","2022-05-27T01:09:36.203Z","rhyme-task_switching-same_different-phon_sim","","null","rhyme","<div style=""font-size:60px;"">+</div>","null","750","","","","","","","","","","","","","","","","","","","","","","","","","","","","","","","","",""
"","","","","","html-keyboard-response","108","249755","0.0-6.0-1.30","A26BQ33MHKVYFB","2022-05-27T01:09:36.203Z","rhyme-task_switching-same_different-phon_sim","","null","rhyme","<img src=""square.png"" width=""306"" height=""306"" style=""position: fixed;left:14%;top:30%""><img src=""square.png"" width=""306"" height=""306"" style=""position: fixed;left:64%;top:30%"">","null","","","","","","","","","","","","","","","","","","","","","","","","","","","","","","","","","",""
"","","","","","html-keyboard-response","109","251817","0.0-6.0-2.30","A26BQ33MHKVYFB","2022-05-27T01:09:36.203Z","rhyme-task_switching-same_different-phon_sim","","2060.2999999998137","rhyme","<div style=""border: 3px solid #000000; position: fixed;left:14%;top:30%""><img src=""visual/sock.png"" width=""300""></div><div style=""border: 3px solid #000000; position: fixed;left:64%;top:30%""><img src=""visual/clock.png"" width=""300""></div>","arrowup","","true","experiment","visual/sock.png","visual/clock.png","ArrowUp","ortho","","","","","","","","","","","","","","","","","","","","","","","","","","",""
"","","","","","html-keyboard-response","110","252074","0.0-6.0-0.31","A26BQ33MHKVYFB","2022-05-27T01:09:36.203Z","rhyme-task_switching-same_different-phon_sim","","null","rhyme","<div style=""font-size:60px;"">+</div>","null","250","","","","","","","","","","","","","","","","","","","","","","","","","","","","","","","","",""
"","","","","","html-keyboard-response","111","252589","0.0-6.0-1.31","A26BQ33MHKVYFB","2022-05-27T01:09:36.203Z","rhyme-task_switching-same_different-phon_sim","","null","rhyme","<img src=""square.png"" width=""306"" height=""306"" style=""position: fixed;left:14%;top:30%""><img src=""square.png"" width=""306"" height=""306"" style=""position: fixed;left:64%;top:30%"">","null","","","","","","","","","","","","","","","","","","","","","","","","","","","","","","","","","",""
"","","","","","html-keyboard-response","112","255930","0.0-6.0-2.31","A26BQ33MHKVYFB","2022-05-27T01:09:36.203Z","rhyme-task_switching-same_different-phon_sim","","3339.5999999998603","rhyme","<div style=""border: 3px solid #000000; position: fixed;left:14%;top:30%""><img src=""visual/king.png"" width=""300""></div><div style=""border: 3px solid #000000; position: fixed;left:64%;top:30%""><img src=""visual/ring.png"" width=""300""></div>","arrowup","","true","experiment","visual/king.png","visual/ring.png","ArrowUp","ortho","","","","","","","","","","","","","","","","","","","","","","","","","","",""
"","","","","","html-keyboard-response","113","256686","0.0-6.0-0.32","A26BQ33MHKVYFB","2022-05-27T01:09:36.203Z","rhyme-task_switching-same_different-phon_sim","","null","rhyme","<div style=""font-size:60px;"">+</div>","null","750","","","","","","","","","","","","","","","","","","","","","","","","","","","","","","","","",""
"","","","","","html-keyboard-response","114","257197","0.0-6.0-1.32","A26BQ33MHKVYFB","2022-05-27T01:09:36.203Z","rhyme-task_switching-same_different-phon_sim","","null","rhyme","<img src=""square.png"" width=""306"" height=""306"" style=""position: fixed;left:14%;top:30%""><img src=""square.png"" width=""306"" height=""306"" style=""position: fixed;left:64%;top:30%"">","null","","","","","","","","","","","","","","","","","","","","","","","","","","","","","","","","","",""
"","","","","","html-keyboard-response","115","260314","0.0-6.0-2.32","A26BQ33MHKVYFB","2022-05-27T01:09:36.203Z","rhyme-task_switching-same_different-phon_sim","","3114.6999999999534","rhyme","<div style=""border: 3px solid #000000; position: fixed;left:14%;top:30%""><img src=""visual/shark.png"" width=""300""></div><div style=""border: 3px solid #000000; position: fixed;left:64%;top:30%""><img src=""visual/park.png"" width=""300""></div>","arrowup","","true","experiment","visual/shark.png","visual/park.png","ArrowUp","ortho","","","","","","","","","","","","","","","","","","","","","","","","","","",""
"","","","","","html-keyboard-response","116","261081","0.0-6.0-0.33","A26BQ33MHKVYFB","2022-05-27T01:09:36.203Z","rhyme-task_switching-same_different-phon_sim","","null","rhyme","<div style=""font-size:60px;"">+</div>","null","750","","","","","","","","","","","","","","","","","","","","","","","","","","","","","","","","",""
"","","","","","html-keyboard-response","117","261583","0.0-6.0-1.33","A26BQ33MHKVYFB","2022-05-27T01:09:36.203Z","rhyme-task_switching-same_different-phon_sim","","null","rhyme","<img src=""square.png"" width=""306"" height=""306"" style=""position: fixed;left:14%;top:30%""><img src=""square.png"" width=""306"" height=""306"" style=""position: fixed;left:64%;top:30%"">","null","","","","","","","","","","","","","","","","","","","","","","","","","","","","","","","","","",""
"","","","","","html-keyboard-response","118","265828","0.0-6.0-2.33","A26BQ33MHKVYFB","2022-05-27T01:09:36.203Z","rhyme-task_switching-same_different-phon_sim","","4243","rhyme","<div style=""border: 3px solid #000000; position: fixed;left:14%;top:30%""><img src=""visual/bear.png"" width=""300""></div><div style=""border: 3px solid #000000; position: fixed;left:64%;top:30%""><img src=""visual/square_rhyme.png"" width=""300""></div>","arrowdown","","false","experiment","visual/bear.png","visual/square_rhyme.png","ArrowUp","non-ortho","","","","","","","","","","","","","","","","","","","","","","","","","","",""
"","","","","","html-keyboard-response","119","266339","0.0-6.0-0.34","A26BQ33MHKVYFB","2022-05-27T01:09:36.203Z","rhyme-task_switching-same_different-phon_sim","","null","rhyme","<div style=""font-size:60px;"">+</div>","null","500","","","","","","","","","","","","","","","","","","","","","","","","","","","","","","","","",""
"","","","","","html-keyboard-response","120","266844","0.0-6.0-1.34","A26BQ33MHKVYFB","2022-05-27T01:09:36.203Z","rhyme-task_switching-same_different-phon_sim","","null","rhyme","<img src=""square.png"" width=""306"" height=""306"" style=""position: fixed;left:14%;top:30%""><img src=""square.png"" width=""306"" height=""306"" style=""position: fixed;left:64%;top:30%"">","null","","","","","","","","","","","","","","","","","","","","","","","","","","","","","","","","","",""
"","","","","","html-keyboard-response","121","270020","0.0-6.0-2.34","A26BQ33MHKVYFB","2022-05-27T01:09:36.203Z","rhyme-task_switching-same_different-phon_sim","","3174.2000000001863","rhyme","<div style=""border: 3px solid #000000; position: fixed;left:14%;top:30%""><img src=""visual/nail.png"" width=""300""></div><div style=""border: 3px solid #000000; position: fixed;left:64%;top:30%""><img src=""visual/whale.png"" width=""300""></div>","arrowup","","true","experiment","visual/nail.png","visual/whale.png","ArrowUp","non-ortho","","","","","","","","","","","","","","","","","","","","","","","","","","",""
"","","","","","html-keyboard-response","122","271033","0.0-6.0-0.35","A26BQ33MHKVYFB","2022-05-27T01:09:36.203Z","rhyme-task_switching-same_different-phon_sim","","null","rhyme","<div style=""font-size:60px;"">+</div>","null","1000","","","","","","","","","","","","","","","","","","","","","","","","","","","","","","","","",""
"","","","","","html-keyboard-response","123","271549","0.0-6.0-1.35","A26BQ33MHKVYFB","2022-05-27T01:09:36.203Z","rhyme-task_switching-same_different-phon_sim","","null","rhyme","<img src=""square.png"" width=""306"" height=""306"" style=""position: fixed;left:14%;top:30%""><img src=""square.png"" width=""306"" height=""306"" style=""position: fixed;left:64%;top:30%"">","null","","","","","","","","","","","","","","","","","","","","","","","","","","","","","","","","","",""
"","","","","","html-keyboard-response","124","274088","0.0-6.0-2.35","A26BQ33MHKVYFB","2022-05-27T01:09:36.203Z","rhyme-task_switching-same_different-phon_sim","","2536.3000000000466","rhyme","<div style=""border: 3px solid #000000; position: fixed;left:14%;top:30%""><img src=""visual/cake.png"" width=""300""></div><div style=""border: 3px solid #000000; position: fixed;left:64%;top:30%""><img src=""visual/rake.png"" width=""300""></div>","arrowup","","true","experiment","visual/cake.png","visual/rake.png","ArrowUp","ortho","","","","","","","","","","","","","","","","","","","","","","","","","","",""
"","","","","","html-keyboard-response","125","274351","0.0-6.0-0.36","A26BQ33MHKVYFB","2022-05-27T01:09:36.203Z","rhyme-task_switching-same_different-phon_sim","","null","rhyme","<div style=""font-size:60px;"">+</div>","null","250","","","","","","","","","","","","","","","","","","","","","","","","","","","","","","","","",""
"","","","","","html-keyboard-response","126","274856","0.0-6.0-1.36","A26BQ33MHKVYFB","2022-05-27T01:09:36.203Z","rhyme-task_switching-same_different-phon_sim","","null","rhyme","<img src=""square.png"" width=""306"" height=""306"" style=""position: fixed;left:14%;top:30%""><img src=""square.png"" width=""306"" height=""306"" style=""position: fixed;left:64%;top:30%"">","null","","","","","","","","","","","","","","","","","","","","","","","","","","","","","","","","","",""
"","","","","","html-keyboard-response","127","276846","0.0-6.0-2.36","A26BQ33MHKVYFB","2022-05-27T01:09:36.203Z","rhyme-task_switching-same_different-phon_sim","","1988.5","rhyme","<div style=""border: 3px solid #000000; position: fixed;left:14%;top:30%""><img src=""visual/rose.png"" width=""300""></div><div style=""border: 3px solid #000000; position: fixed;left:64%;top:30%""><img src=""visual/nose.png"" width=""300""></div>","arrowup","","true","experiment","visual/rose.png","visual/nose.png","ArrowUp","ortho","","","","","","","","","","","","","","","","","","","","","","","","","","",""
"","","","","","html-keyboard-response","128","277599","0.0-6.0-0.37","A26BQ33MHKVYFB","2022-05-27T01:09:36.203Z","rhyme-task_switching-same_different-phon_sim","","null","rhyme","<div style=""font-size:60px;"">+</div>","null","750","","","","","","","","","","","","","","","","","","","","","","","","","","","","","","","","",""
"","","","","","html-keyboard-response","129","278101","0.0-6.0-1.37","A26BQ33MHKVYFB","2022-05-27T01:09:36.203Z","rhyme-task_switching-same_different-phon_sim","","null","rhyme","<img src=""square.png"" width=""306"" height=""306"" style=""position: fixed;left:14%;top:30%""><img src=""square.png"" width=""306"" height=""306"" style=""position: fixed;left:64%;top:30%"">","null","","","","","","","","","","","","","","","","","","","","","","","","","","","","","","","","","",""
"","","","","","html-keyboard-response","130","280159","0.0-6.0-2.37","A26BQ33MHKVYFB","2022-05-27T01:09:36.203Z","rhyme-task_switching-same_different-phon_sim","","2056.600000000093","rhyme","<div style=""border: 3px solid #000000; position: fixed;left:14%;top:30%""><img src=""visual/brain.png"" width=""300""></div><div style=""border: 3px solid #000000; position: fixed;left:64%;top:30%""><img src=""visual/clock.png"" width=""300""></div>","arrowdown","","true","experiment","visual/brain.png","visual/clock.png","ArrowDown","NR","","","","","","","","","","","","","","","","","","","","","","","","","","",""
"","","","","","html-keyboard-response","131","280675","0.0-6.0-0.38","A26BQ33MHKVYFB","2022-05-27T01:09:36.203Z","rhyme-task_switching-same_different-phon_sim","","null","rhyme","<div style=""font-size:60px;"">+</div>","null","500","","","","","","","","","","","","","","","","","","","","","","","","","","","","","","","","",""
"","","","","","html-keyboard-response","132","281177","0.0-6.0-1.38","A26BQ33MHKVYFB","2022-05-27T01:09:36.203Z","rhyme-task_switching-same_different-phon_sim","","null","rhyme","<img src=""square.png"" width=""306"" height=""306"" style=""position: fixed;left:14%;top:30%""><img src=""square.png"" width=""306"" height=""306"" style=""position: fixed;left:64%;top:30%"">","null","","","","","","","","","","","","","","","","","","","","","","","","","","","","","","","","","",""
"","","","","","html-keyboard-response","133","283384","0.0-6.0-2.38","A26BQ33MHKVYFB","2022-05-27T01:09:36.203Z","rhyme-task_switching-same_different-phon_sim","","2207","rhyme","<div style=""border: 3px solid #000000; position: fixed;left:14%;top:30%""><img src=""visual/bear.png"" width=""300""></div><div style=""border: 3px solid #000000; position: fixed;left:64%;top:30%""><img src=""visual/crane.png"" width=""300""></div>","arrowdown","","true","experiment","visual/bear.png","visual/crane.png","ArrowDown","NR","","","","","","","","","","","","","","","","","","","","","","","","","","",""
"","","","","","html-keyboard-response","134","283643","0.0-6.0-0.39","A26BQ33MHKVYFB","2022-05-27T01:09:36.203Z","rhyme-task_switching-same_different-phon_sim","","null","rhyme","<div style=""font-size:60px;"">+</div>","null","250","","","","","","","","","","","","","","","","","","","","","","","","","","","","","","","","",""
"","","","","","html-keyboard-response","135","284144","0.0-6.0-1.39","A26BQ33MHKVYFB","2022-05-27T01:09:36.203Z","rhyme-task_switching-same_different-phon_sim","","null","rhyme","<img src=""square.png"" width=""306"" height=""306"" style=""position: fixed;left:14%;top:30%""><img src=""square.png"" width=""306"" height=""306"" style=""position: fixed;left:64%;top:30%"">","null","","","","","","","","","","","","","","","","","","","","","","","","","","","","","","","","","",""
"","","","","","html-keyboard-response","136","285979","0.0-6.0-2.39","A26BQ33MHKVYFB","2022-05-27T01:09:36.203Z","rhyme-task_switching-same_different-phon_sim","","1832.1999999999534","rhyme","<div style=""border: 3px solid #000000; position: fixed;left:14%;top:30%""><img src=""visual/star.png"" width=""300""></div><div style=""border: 3px solid #000000; position: fixed;left:64%;top:30%""><img src=""visual/jar.png"" width=""300""></div>","arrowup","","true","experiment","visual/star.png","visual/jar.png","ArrowUp","ortho","","","","","","","","","","","","","","","","","","","","","","","","","","",""
"","","","","","html-keyboard-response","137","286486","0.0-6.0-0.40","A26BQ33MHKVYFB","2022-05-27T01:09:36.203Z","rhyme-task_switching-same_different-phon_sim","","null","rhyme","<div style=""font-size:60px;"">+</div>","null","500","","","","","","","","","","","","","","","","","","","","","","","","","","","","","","","","",""
"","","","","","html-keyboard-response","138","287001","0.0-6.0-1.40","A26BQ33MHKVYFB","2022-05-27T01:09:36.203Z","rhyme-task_switching-same_different-phon_sim","","null","rhyme","<img src=""square.png"" width=""306"" height=""306"" style=""position: fixed;left:14%;top:30%""><img src=""square.png"" width=""306"" height=""306"" style=""position: fixed;left:64%;top:30%"">","null","","","","","","","","","","","","","","","","","","","","","","","","","","","","","","","","","",""
"","","","","","html-keyboard-response","139","288783","0.0-6.0-2.40","A26BQ33MHKVYFB","2022-05-27T01:09:36.203Z","rhyme-task_switching-same_different-phon_sim","","1781.6999999999534","rhyme","<div style=""border: 3px solid #000000; position: fixed;left:14%;top:30%""><img src=""visual/key.png"" width=""300""></div><div style=""border: 3px solid #000000; position: fixed;left:64%;top:30%""><img src=""visual/tree.png"" width=""300""></div>","arrowup","","true","experiment","visual/key.png","visual/tree.png","ArrowUp","non-ortho","","","","","","","","","","","","","","","","","","","","","","","","","","",""
"","","","","","html-keyboard-response","140","289038","0.0-6.0-0.41","A26BQ33MHKVYFB","2022-05-27T01:09:36.203Z","rhyme-task_switching-same_different-phon_sim","","null","rhyme","<div style=""font-size:60px;"">+</div>","null","250","","","","","","","","","","","","","","","","","","","","","","","","","","","","","","","","",""
"","","","","","html-keyboard-response","141","289553","0.0-6.0-1.41","A26BQ33MHKVYFB","2022-05-27T01:09:36.203Z","rhyme-task_switching-same_different-phon_sim","","null","rhyme","<img src=""square.png"" width=""306"" height=""306"" style=""position: fixed;left:14%;top:30%""><img src=""square.png"" width=""306"" height=""306"" style=""position: fixed;left:64%;top:30%"">","null","","","","","","","","","","","","","","","","","","","","","","","","","","","","","","","","","",""
"","","","","","html-keyboard-response","142","291810","0.0-6.0-2.41","A26BQ33MHKVYFB","2022-05-27T01:09:36.203Z","rhyme-task_switching-same_different-phon_sim","","2255.399999999907","rhyme","<div style=""border: 3px solid #000000; position: fixed;left:14%;top:30%""><img src=""visual/spoon.png"" width=""300""></div><div style=""border: 3px solid #000000; position: fixed;left:64%;top:30%""><img src=""visual/moon.png"" width=""300""></div>","arrowup","","true","experiment","visual/spoon.png","visual/moon.png","ArrowUp","ortho","","","","","","","","","","","","","","","","","","","","","","","","","","",""
"","","","","","html-keyboard-response","143","292317","0.0-6.0-0.42","A26BQ33MHKVYFB","2022-05-27T01:09:36.203Z","rhyme-task_switching-same_different-phon_sim","","null","rhyme","<div style=""font-size:60px;"">+</div>","null","500","","","","","","","","","","","","","","","","","","","","","","","","","","","","","","","","",""
"","","","","","html-keyboard-response","144","292833","0.0-6.0-1.42","A26BQ33MHKVYFB","2022-05-27T01:09:36.203Z","rhyme-task_switching-same_different-phon_sim","","null","rhyme","<img src=""square.png"" width=""306"" height=""306"" style=""position: fixed;left:14%;top:30%""><img src=""square.png"" width=""306"" height=""306"" style=""position: fixed;left:64%;top:30%"">","null","","","","","","","","","","","","","","","","","","","","","","","","","","","","","","","","","",""
"","","","","","html-keyboard-response","145","296979","0.0-6.0-2.42","A26BQ33MHKVYFB","2022-05-27T01:09:36.203Z","rhyme-task_switching-same_different-phon_sim","","4147.800000000047","rhyme","<div style=""border: 3px solid #000000; position: fixed;left:14%;top:30%""><img src=""visual/plane.png"" width=""300""></div><div style=""border: 3px solid #000000; position: fixed;left:64%;top:30%""><img src=""visual/chain.png"" width=""300""></div>","arrowup","","true","experiment","visual/plane.png","visual/chain.png","ArrowUp","non-ortho","","","","","","","","","","","","","","","","","","","","","","","","","","",""
"","","","","","html-keyboard-response","146","297488","0.0-6.0-0.43","A26BQ33MHKVYFB","2022-05-27T01:09:36.203Z","rhyme-task_switching-same_different-phon_sim","","null","rhyme","<div style=""font-size:60px;"">+</div>","null","500","","","","","","","","","","","","","","","","","","","","","","","","","","","","","","","","",""
"","","","","","html-keyboard-response","147","297996","0.0-6.0-1.43","A26BQ33MHKVYFB","2022-05-27T01:09:36.203Z","rhyme-task_switching-same_different-phon_sim","","null","rhyme","<img src=""square.png"" width=""306"" height=""306"" style=""position: fixed;left:14%;top:30%""><img src=""square.png"" width=""306"" height=""306"" style=""position: fixed;left:64%;top:30%"">","null","","","","","","","","","","","","","","","","","","","","","","","","","","","","","","","","","",""
"","","","","","html-keyboard-response","148","300664","0.0-6.0-2.43","A26BQ33MHKVYFB","2022-05-27T01:09:36.203Z","rhyme-task_switching-same_different-phon_sim","","2666.1999999999534","rhyme","<div style=""border: 3px solid #000000; position: fixed;left:14%;top:30%""><img src=""visual/fan.png"" width=""300""></div><div style=""border: 3px solid #000000; position: fixed;left:64%;top:30%""><img src=""visual/man.png"" width=""300""></div>","arrowup","","true","experiment","visual/fan.png","visual/man.png","ArrowUp","ortho","","","","","","","","","","","","","","","","","","","","","","","","","","",""
"","","","","","html-keyboard-response","149","301674","0.0-6.0-0.44","A26BQ33MHKVYFB","2022-05-27T01:09:36.203Z","rhyme-task_switching-same_different-phon_sim","","null","rhyme","<div style=""font-size:60px;"">+</div>","null","1000","","","","","","","","","","","","","","","","","","","","","","","","","","","","","","","","",""
"","","","","","html-keyboard-response","150","302189","0.0-6.0-1.44","A26BQ33MHKVYFB","2022-05-27T01:09:36.203Z","rhyme-task_switching-same_different-phon_sim","","null","rhyme","<img src=""square.png"" width=""306"" height=""306"" style=""position: fixed;left:14%;top:30%""><img src=""square.png"" width=""306"" height=""306"" style=""position: fixed;left:64%;top:30%"">","null","","","","","","","","","","","","","","","","","","","","","","","","","","","","","","","","","",""
"","","","","","html-keyboard-response","151","304535","0.0-6.0-2.44","A26BQ33MHKVYFB","2022-05-27T01:09:36.203Z","rhyme-task_switching-same_different-phon_sim","","2344.0999999998603","rhyme","<div style=""border: 3px solid #000000; position: fixed;left:14%;top:30%""><img src=""visual/king.png"" width=""300""></div><div style=""border: 3px solid #000000; position: fixed;left:64%;top:30%""><img src=""visual/cab.png"" width=""300""></div>","arrowup","","false","experiment","visual/king.png","visual/cab.png","ArrowDown","NR","","","","","","","","","","","","","","","","","","","","","","","","","","",""
"","","","","","html-keyboard-response","152","305037","0.0-6.0-0.45","A26BQ33MHKVYFB","2022-05-27T01:09:36.203Z","rhyme-task_switching-same_different-phon_sim","","null","rhyme","<div style=""font-size:60px;"">+</div>","null","500","","","","","","","","","","","","","","","","","","","","","","","","","","","","","","","","",""
"","","","","","html-keyboard-response","153","305546","0.0-6.0-1.45","A26BQ33MHKVYFB","2022-05-27T01:09:36.203Z","rhyme-task_switching-same_different-phon_sim","","null","rhyme","<img src=""square.png"" width=""306"" height=""306"" style=""position: fixed;left:14%;top:30%""><img src=""square.png"" width=""306"" height=""306"" style=""position: fixed;left:64%;top:30%"">","null","","","","","","","","","","","","","","","","","","","","","","","","","","","","","","","","","",""
"","","","","","html-keyboard-response","154","309033","0.0-6.0-2.45","A26BQ33MHKVYFB","2022-05-27T01:09:36.203Z","rhyme-task_switching-same_different-phon_sim","","3485","rhyme","<div style=""border: 3px solid #000000; position: fixed;left:14%;top:30%""><img src=""visual/nose.png"" width=""300""></div><div style=""border: 3px solid #000000; position: fixed;left:64%;top:30%""><img src=""visual/bell.png"" width=""300""></div>","arrowdown","","true","experiment","visual/nose.png","visual/bell.png","ArrowDown","NR","","","","","","","","","","","","","","","","","","","","","","","","","","",""
"","","","","","html-keyboard-response","155","310048","0.0-6.0-0.46","A26BQ33MHKVYFB","2022-05-27T01:09:36.203Z","rhyme-task_switching-same_different-phon_sim","","null","rhyme","<div style=""font-size:60px;"">+</div>","null","1000","","","","","","","","","","","","","","","","","","","","","","","","","","","","","","","","",""
"","","","","","html-keyboard-response","156","310560","0.0-6.0-1.46","A26BQ33MHKVYFB","2022-05-27T01:09:36.203Z","rhyme-task_switching-same_different-phon_sim","","null","rhyme","<img src=""square.png"" width=""306"" height=""306"" style=""position: fixed;left:14%;top:30%""><img src=""square.png"" width=""306"" height=""306"" style=""position: fixed;left:64%;top:30%"">","null","","","","","","","","","","","","","","","","","","","","","","","","","","","","","","","","","",""
"","","","","","html-keyboard-response","157","312423","0.0-6.0-2.46","A26BQ33MHKVYFB","2022-05-27T01:09:36.203Z","rhyme-task_switching-same_different-phon_sim","","1861.3999999999069","rhyme","<div style=""border: 3px solid #000000; position: fixed;left:14%;top:30%""><img src=""visual/chain.png"" width=""300""></div><div style=""border: 3px solid #000000; position: fixed;left:64%;top:30%""><img src=""visual/brain.png"" width=""300""></div>","arrowup","","true","experiment","visual/chain.png","visual/brain.png","ArrowUp","ortho","","","","","","","","","","","","","","","","","","","","","","","","","","",""
"","","","","","html-keyboard-response","158","313429","0.0-6.0-0.47","A26BQ33MHKVYFB","2022-05-27T01:09:36.203Z","rhyme-task_switching-same_different-phon_sim","","null","rhyme","<div style=""font-size:60px;"">+</div>","null","1000","","","","","","","","","","","","","","","","","","","","","","","","","","","","","","","","",""
"","","","","","html-keyboard-response","159","313944","0.0-6.0-1.47","A26BQ33MHKVYFB","2022-05-27T01:09:36.203Z","rhyme-task_switching-same_different-phon_sim","","null","rhyme","<img src=""square.png"" width=""306"" height=""306"" style=""position: fixed;left:14%;top:30%""><img src=""square.png"" width=""306"" height=""306"" style=""position: fixed;left:64%;top:30%"">","null","","","","","","","","","","","","","","","","","","","","","","","","","","","","","","","","","",""
"","","","","","html-keyboard-response","160","315758","0.0-6.0-2.47","A26BQ33MHKVYFB","2022-05-27T01:09:36.203Z","rhyme-task_switching-same_different-phon_sim","","1811.5","rhyme","<div style=""border: 3px solid #000000; position: fixed;left:14%;top:30%""><img src=""visual/bone.png"" width=""300""></div><div style=""border: 3px solid #000000; position: fixed;left:64%;top:30%""><img src=""visual/cone.png"" width=""300""></div>","arrowup","","true","experiment","visual/bone.png","visual/cone.png","ArrowUp","ortho","","","","","","","","","","","","","","","","","","","","","","","","","","",""
"","","","","","html-keyboard-response","161","316009","0.0-6.0-0.48","A26BQ33MHKVYFB","2022-05-27T01:09:36.203Z","rhyme-task_switching-same_different-phon_sim","","null","rhyme","<div style=""font-size:60px;"">+</div>","null","250","","","","","","","","","","","","","","","","","","","","","","","","","","","","","","","","",""
"","","","","","html-keyboard-response","162","316525","0.0-6.0-1.48","A26BQ33MHKVYFB","2022-05-27T01:09:36.203Z","rhyme-task_switching-same_different-phon_sim","","null","rhyme","<img src=""square.png"" width=""306"" height=""306"" style=""position: fixed;left:14%;top:30%""><img src=""square.png"" width=""306"" height=""306"" style=""position: fixed;left:64%;top:30%"">","null","","","","","","","","","","","","","","","","","","","","","","","","","","","","","","","","","",""
"","","","","","html-keyboard-response","163","320197","0.0-6.0-2.48","A26BQ33MHKVYFB","2022-05-27T01:09:36.203Z","rhyme-task_switching-same_different-phon_sim","","3670.3000000000466","rhyme","<div style=""border: 3px solid #000000; position: fixed;left:14%;top:30%""><img src=""visual/cat.png"" width=""300""></div><div style=""border: 3px solid #000000; position: fixed;left:64%;top:30%""><img src=""visual/sock.png"" width=""300""></div>","arrowdown","","true","experiment","visual/cat.png","visual/sock.png","ArrowDown","NR","","","","","","","","","","","","","","","","","","","","","","","","","","",""
"","","","","","html-keyboard-response","164","320454","0.0-6.0-0.49","A26BQ33MHKVYFB","2022-05-27T01:09:36.203Z","rhyme-task_switching-same_different-phon_sim","","null","rhyme","<div style=""font-size:60px;"">+</div>","null","250","","","","","","","","","","","","","","","","","","","","","","","","","","","","","","","","",""
"","","","","","html-keyboard-response","165","320955","0.0-6.0-1.49","A26BQ33MHKVYFB","2022-05-27T01:09:36.203Z","rhyme-task_switching-same_different-phon_sim","","null","rhyme","<img src=""square.png"" width=""306"" height=""306"" style=""position: fixed;left:14%;top:30%""><img src=""square.png"" width=""306"" height=""306"" style=""position: fixed;left:64%;top:30%"">","null","","","","","","","","","","","","","","","","","","","","","","","","","","","","","","","","","",""
"","","","","","html-keyboard-response","166","323012","0.0-6.0-2.49","A26BQ33MHKVYFB","2022-05-27T01:09:36.203Z","rhyme-task_switching-same_different-phon_sim","","2054.899999999907","rhyme","<div style=""border: 3px solid #000000; position: fixed;left:14%;top:30%""><img src=""visual/egg.png"" width=""300""></div><div style=""border: 3px solid #000000; position: fixed;left:64%;top:30%""><img src=""visual/leg.png"" width=""300""></div>","arrowup","","true","experiment","visual/egg.png","visual/leg.png","ArrowUp","ortho","","","","","","","","","","","","","","","","","","","","","","","","","","",""
"","","","","","html-keyboard-response","167","323269","0.0-6.0-0.50","A26BQ33MHKVYFB","2022-05-27T01:09:36.203Z","rhyme-task_switching-same_different-phon_sim","","null","rhyme","<div style=""font-size:60px;"">+</div>","null","250","","","","","","","","","","","","","","","","","","","","","","","","","","","","","","","","",""
"","","","","","html-keyboard-response","168","323781","0.0-6.0-1.50","A26BQ33MHKVYFB","2022-05-27T01:09:36.203Z","rhyme-task_switching-same_different-phon_sim","","null","rhyme","<img src=""square.png"" width=""306"" height=""306"" style=""position: fixed;left:14%;top:30%""><img src=""square.png"" width=""306"" height=""306"" style=""position: fixed;left:64%;top:30%"">","null","","","","","","","","","","","","","","","","","","","","","","","","","","","","","","","","","",""
"","","","","","html-keyboard-response","169","326722","0.0-6.0-2.50","A26BQ33MHKVYFB","2022-05-27T01:09:36.203Z","rhyme-task_switching-same_different-phon_sim","","2939.3000000000466","rhyme","<div style=""border: 3px solid #000000; position: fixed;left:14%;top:30%""><img src=""visual/soap.png"" width=""300""></div><div style=""border: 3px solid #000000; position: fixed;left:64%;top:30%""><img src=""visual/shoe.png"" width=""300""></div>","arrowdown","","true","experiment","visual/soap.png","visual/shoe.png","ArrowDown","NR","","","","","","","","","","","","","","","","","","","","","","","","","","",""
"","","","","","html-keyboard-response","170","327227","0.0-6.0-0.51","A26BQ33MHKVYFB","2022-05-27T01:09:36.203Z","rhyme-task_switching-same_different-phon_sim","","null","rhyme","<div style=""font-size:60px;"">+</div>","null","500","","","","","","","","","","","","","","","","","","","","","","","","","","","","","","","","",""
"","","","","","html-keyboard-response","171","327733","0.0-6.0-1.51","A26BQ33MHKVYFB","2022-05-27T01:09:36.203Z","rhyme-task_switching-same_different-phon_sim","","null","rhyme","<img src=""square.png"" width=""306"" height=""306"" style=""position: fixed;left:14%;top:30%""><img src=""square.png"" width=""306"" height=""306"" style=""position: fixed;left:64%;top:30%"">","null","","","","","","","","","","","","","","","","","","","","","","","","","","","","","","","","","",""
"","","","","","html-keyboard-response","172","330167","0.0-6.0-2.51","A26BQ33MHKVYFB","2022-05-27T01:09:36.203Z","rhyme-task_switching-same_different-phon_sim","","2432.2000000001863","rhyme","<div style=""border: 3px solid #000000; position: fixed;left:14%;top:30%""><img src=""visual/deer.png"" width=""300""></div><div style=""border: 3px solid #000000; position: fixed;left:64%;top:30%""><img src=""visual/beer.png"" width=""300""></div>","arrowup","","true","experiment","visual/deer.png","visual/beer.png","ArrowUp","ortho","","","","","","","","","","","","","","","","","","","","","","","","","","",""
"","","","","","html-keyboard-response","173","330922","0.0-6.0-0.52","A26BQ33MHKVYFB","2022-05-27T01:09:36.203Z","rhyme-task_switching-same_different-phon_sim","","null","rhyme","<div style=""font-size:60px;"">+</div>","null","750","","","","","","","","","","","","","","","","","","","","","","","","","","","","","","","","",""
"","","","","","html-keyboard-response","174","331442","0.0-6.0-1.52","A26BQ33MHKVYFB","2022-05-27T01:09:36.203Z","rhyme-task_switching-same_different-phon_sim","","null","rhyme","<img src=""square.png"" width=""306"" height=""306"" style=""position: fixed;left:14%;top:30%""><img src=""square.png"" width=""306"" height=""306"" style=""position: fixed;left:64%;top:30%"">","null","","","","","","","","","","","","","","","","","","","","","","","","","","","","","","","","","",""
"","","","","","html-keyboard-response","175","334370","0.0-6.0-2.52","A26BQ33MHKVYFB","2022-05-27T01:09:36.203Z","rhyme-task_switching-same_different-phon_sim","","2926.600000000093","rhyme","<div style=""border: 3px solid #000000; position: fixed;left:14%;top:30%""><img src=""visual/train.png"" width=""300""></div><div style=""border: 3px solid #000000; position: fixed;left:64%;top:30%""><img src=""visual/screw.png"" width=""300""></div>","arrowdown","","true","experiment","visual/train.png","visual/screw.png","ArrowDown","NR","","","","","","","","","","","","","","","","","","","","","","","","","","",""
"","","","","","html-keyboard-response","176","335137","0.0-6.0-0.53","A26BQ33MHKVYFB","2022-05-27T01:09:36.203Z","rhyme-task_switching-same_different-phon_sim","","null","rhyme","<div style=""font-size:60px;"">+</div>","null","750","","","","","","","","","","","","","","","","","","","","","","","","","","","","","","","","",""
"","","","","","html-keyboard-response","177","335653","0.0-6.0-1.53","A26BQ33MHKVYFB","2022-05-27T01:09:36.203Z","rhyme-task_switching-same_different-phon_sim","","null","rhyme","<img src=""square.png"" width=""306"" height=""306"" style=""position: fixed;left:14%;top:30%""><img src=""square.png"" width=""306"" height=""306"" style=""position: fixed;left:64%;top:30%"">","null","","","","","","","","","","","","","","","","","","","","","","","","","","","","","","","","","",""
"","","","","","html-keyboard-response","178","339629","0.0-6.0-2.53","A26BQ33MHKVYFB","2022-05-27T01:09:36.203Z","rhyme-task_switching-same_different-phon_sim","","3973.9000000001397","rhyme","<div style=""border: 3px solid #000000; position: fixed;left:14%;top:30%""><img src=""visual/pope.png"" width=""300""></div><div style=""border: 3px solid #000000; position: fixed;left:64%;top:30%""><img src=""visual/soap.png"" width=""300""></div>","arrowdown","","false","experiment","visual/pope.png","visual/soap.png","ArrowUp","non-ortho","","","","","","","","","","","","","","","","","","","","","","","","","","",""
"","","","","","html-keyboard-response","179","340642","0.0-6.0-0.54","A26BQ33MHKVYFB","2022-05-27T01:09:36.203Z","rhyme-task_switching-same_different-phon_sim","","null","rhyme","<div style=""font-size:60px;"">+</div>","null","1000","","","","","","","","","","","","","","","","","","","","","","","","","","","","","","","","",""
"","","","","","html-keyboard-response","180","341150","0.0-6.0-1.54","A26BQ33MHKVYFB","2022-05-27T01:09:36.203Z","rhyme-task_switching-same_different-phon_sim","","null","rhyme","<img src=""square.png"" width=""306"" height=""306"" style=""position: fixed;left:14%;top:30%""><img src=""square.png"" width=""306"" height=""306"" style=""position: fixed;left:64%;top:30%"">","null","","","","","","","","","","","","","","","","","","","","","","","","","","","","","","","","","",""
"","","","","","html-keyboard-response","181","343088","0.0-6.0-2.54","A26BQ33MHKVYFB","2022-05-27T01:09:36.203Z","rhyme-task_switching-same_different-phon_sim","","1935.6999999999534","rhyme","<div style=""border: 3px solid #000000; position: fixed;left:14%;top:30%""><img src=""visual/claw.png"" width=""300""></div><div style=""border: 3px solid #000000; position: fixed;left:64%;top:30%""><img src=""visual/beer.png"" width=""300""></div>","arrowdown","","true","experiment","visual/claw.png","visual/beer.png","ArrowDown","NR","","","","","","","","","","","","","","","","","","","","","","","","","","",""
"","","","","","html-keyboard-response","182","343849","0.0-6.0-0.55","A26BQ33MHKVYFB","2022-05-27T01:09:36.203Z","rhyme-task_switching-same_different-phon_sim","","null","rhyme","<div style=""font-size:60px;"">+</div>","null","750","","","","","","","","","","","","","","","","","","","","","","","","","","","","","","","","",""
"","","","","","html-keyboard-response","183","344361","0.0-6.0-1.55","A26BQ33MHKVYFB","2022-05-27T01:09:36.203Z","rhyme-task_switching-same_different-phon_sim","","null","rhyme","<img src=""square.png"" width=""306"" height=""306"" style=""position: fixed;left:14%;top:30%""><img src=""square.png"" width=""306"" height=""306"" style=""position: fixed;left:64%;top:30%"">","null","","","","","","","","","","","","","","","","","","","","","","","","","","","","","","","","","",""
"","","","","","html-keyboard-response","184","346112","0.0-6.0-2.55","A26BQ33MHKVYFB","2022-05-27T01:09:36.203Z","rhyme-task_switching-same_different-phon_sim","","1748.5999999998603","rhyme","<div style=""border: 3px solid #000000; position: fixed;left:14%;top:30%""><img src=""visual/pear.png"" width=""300""></div><div style=""border: 3px solid #000000; position: fixed;left:64%;top:30%""><img src=""visual/rope.png"" width=""300""></div>","arrowdown","","true","experiment","visual/pear.png","visual/rope.png","ArrowDown","NR","","","","","","","","","","","","","","","","","","","","","","","","","","",""
"","","","","","html-keyboard-response","185","346864","0.0-6.0-0.56","A26BQ33MHKVYFB","2022-05-27T01:09:36.203Z","rhyme-task_switching-same_different-phon_sim","","null","rhyme","<div style=""font-size:60px;"">+</div>","null","750","","","","","","","","","","","","","","","","","","","","","","","","","","","","","","","","",""
"","","","","","html-keyboard-response","186","347378","0.0-6.0-1.56","A26BQ33MHKVYFB","2022-05-27T01:09:36.203Z","rhyme-task_switching-same_different-phon_sim","","null","rhyme","<img src=""square.png"" width=""306"" height=""306"" style=""position: fixed;left:14%;top:30%""><img src=""square.png"" width=""306"" height=""306"" style=""position: fixed;left:64%;top:30%"">","null","","","","","","","","","","","","","","","","","","","","","","","","","","","","","","","","","",""
"","","","","","html-keyboard-response","187","349230","0.0-6.0-2.56","A26BQ33MHKVYFB","2022-05-27T01:09:36.203Z","rhyme-task_switching-same_different-phon_sim","","1850.3000000000466","rhyme","<div style=""border: 3px solid #000000; position: fixed;left:14%;top:30%""><img src=""visual/bear.png"" width=""300""></div><div style=""border: 3px solid #000000; position: fixed;left:64%;top:30%""><img src=""visual/hair.png"" width=""300""></div>","arrowup","","true","experiment","visual/bear.png","visual/hair.png","ArrowUp","non-ortho","","","","","","","","","","","","","","","","","","","","","","","","","","",""
"","","","","","html-keyboard-response","188","349983","0.0-6.0-0.57","A26BQ33MHKVYFB","2022-05-27T01:09:36.203Z","rhyme-task_switching-same_different-phon_sim","","null","rhyme","<div style=""font-size:60px;"">+</div>","null","750","","","","","","","","","","","","","","","","","","","","","","","","","","","","","","","","",""
"","","","","","html-keyboard-response","189","350487","0.0-6.0-1.57","A26BQ33MHKVYFB","2022-05-27T01:09:36.203Z","rhyme-task_switching-same_different-phon_sim","","null","rhyme","<img src=""square.png"" width=""306"" height=""306"" style=""position: fixed;left:14%;top:30%""><img src=""square.png"" width=""306"" height=""306"" style=""position: fixed;left:64%;top:30%"">","null","","","","","","","","","","","","","","","","","","","","","","","","","","","","","","","","","",""
"","","","","","html-keyboard-response","190","353982","0.0-6.0-2.57","A26BQ33MHKVYFB","2022-05-27T01:09:36.203Z","rhyme-task_switching-same_different-phon_sim","","3492.8000000000466","rhyme","<div style=""border: 3px solid #000000; position: fixed;left:14%;top:30%""><img src=""visual/flag.png"" width=""300""></div><div style=""border: 3px solid #000000; position: fixed;left:64%;top:30%""><img src=""visual/bag.png"" width=""300""></div>","arrowup","","true","experiment","visual/flag.png","visual/bag.png","ArrowUp","ortho","","","","","","","","","","","","","","","","","","","","","","","","","","",""
"","","","","","html-keyboard-response","191","354238","0.0-6.0-0.58","A26BQ33MHKVYFB","2022-05-27T01:09:36.203Z","rhyme-task_switching-same_different-phon_sim","","null","rhyme","<div style=""font-size:60px;"">+</div>","null","250","","","","","","","","","","","","","","","","","","","","","","","","","","","","","","","","",""
"","","","","","html-keyboard-response","192","354755","0.0-6.0-1.58","A26BQ33MHKVYFB","2022-05-27T01:09:36.203Z","rhyme-task_switching-same_different-phon_sim","","null","rhyme","<img src=""square.png"" width=""306"" height=""306"" style=""position: fixed;left:14%;top:30%""><img src=""square.png"" width=""306"" height=""306"" style=""position: fixed;left:64%;top:30%"">","null","","","","","","","","","","","","","","","","","","","","","","","","","","","","","","","","","",""
"","","","","","html-keyboard-response","193","356862","0.0-6.0-2.58","A26BQ33MHKVYFB","2022-05-27T01:09:36.203Z","rhyme-task_switching-same_different-phon_sim","","2104.5999999998603","rhyme","<div style=""border: 3px solid #000000; position: fixed;left:14%;top:30%""><img src=""visual/dart.png"" width=""300""></div><div style=""border: 3px solid #000000; position: fixed;left:64%;top:30%""><img src=""visual/heart.png"" width=""300""></div>","arrowup","","true","experiment","visual/dart.png","visual/heart.png","ArrowUp","non-ortho","","","","","","","","","","","","","","","","","","","","","","","","","","",""
"","","","","","html-keyboard-response","194","357122","0.0-6.0-0.59","A26BQ33MHKVYFB","2022-05-27T01:09:36.203Z","rhyme-task_switching-same_different-phon_sim","","null","rhyme","<div style=""font-size:60px;"">+</div>","null","250","","","","","","","","","","","","","","","","","","","","","","","","","","","","","","","","",""
"","","","","","html-keyboard-response","195","357634","0.0-6.0-1.59","A26BQ33MHKVYFB","2022-05-27T01:09:36.203Z","rhyme-task_switching-same_different-phon_sim","","null","rhyme","<img src=""square.png"" width=""306"" height=""306"" style=""position: fixed;left:14%;top:30%""><img src=""square.png"" width=""306"" height=""306"" style=""position: fixed;left:64%;top:30%"">","null","","","","","","","","","","","","","","","","","","","","","","","","","","","","","","","","","",""
"","","","","","html-keyboard-response","196","360177","0.0-6.0-2.59","A26BQ33MHKVYFB","2022-05-27T01:09:36.203Z","rhyme-task_switching-same_different-phon_sim","","2541.5","rhyme","<div style=""border: 3px solid #000000; position: fixed;left:14%;top:30%""><img src=""visual/well.png"" width=""300""></div><div style=""border: 3px solid #000000; position: fixed;left:64%;top:30%""><img src=""visual/bell.png"" width=""300""></div>","arrowdown","","false","experiment","visual/well.png","visual/bell.png","ArrowUp","ortho","","","","","","","","","","","","","","","","","","","","","","","","","","",""
"","","","","","survey-multi-choice","197","370233","0.0-7.0","A26BQ33MHKVYFB","2022-05-27T01:09:36.203Z","rhyme-task_switching-same_different-phon_sim","","10052.200000000186","rhyme","","{""Q0"":""No""}","","","","","","","","[0]","No","","","","","","","","","","","","","","","","","","","","","","","","",""
"","","","","","survey-text","198","378212","0.0-8.0","A26BQ33MHKVYFB","2022-05-27T01:09:36.203Z","rhyme-task_switching-same_different-phon_sim","","7972.199999999953","rhyme","","{""Q0"":""no""}","","","","","","","","","","no","","","","","","","","","","","","","","","","","","","","","","","",""
"","","","","","instructions","199","380875","0.0-9.0","A26BQ33MHKVYFB","2022-05-27T01:09:36.203Z","rhyme-task_switching-same_different-phon_sim","[{""page_index"":0,""viewing_time"":2662.100000000093}]","2662.4000000001397","rhyme","","","","","","","","","","","","","","","","","","","","","","","","","","","","","","","","","","","",""
"","","","","","instructions","200","408890","0.0-10.0","A26BQ33MHKVYFB","2022-05-27T01:09:36.203Z","rhyme-task_switching-same_different-phon_sim","[{""page_index"":0,""viewing_time"":28013.5}]","28014","task_switching","","","","","","","","","","","","","","","","","","","","","","","","","","","","","","","","","","","",""
"","","","","","instructions","201","419338","0.0-11.0","A26BQ33MHKVYFB","2022-05-27T01:09:36.203Z","rhyme-task_switching-same_different-phon_sim","[{""page_index"":0,""viewing_time"":10446.5}]","10447","task_switching","","","","","","","","","","","","","","","","","","","","","","","","","","","","","","","","","","","",""
"","","","","","survey-text","202","422372","0.0-12.0","A26BQ33MHKVYFB","2022-05-27T01:09:36.203Z","rhyme-task_switching-same_different-phon_sim","","3030.399999999907","task_switching","93","{""addition_ans"":""96""}","","true","training","","","","","","","","addition","96","add","","","","","","","","","","","","","","","","","","","","",""
"","","","","","html-keyboard-response","203","423389","0.0-13.0","A26BQ33MHKVYFB","2022-05-27T01:09:36.203Z","rhyme-task_switching-same_different-phon_sim","","null","task_switching","<div style=""color:darkgreen; font-size:60px"">Well done!</div>","null","","","training","","","","","","","","addition","","","","","","","","","","","","","","","","","","","","","","",""
"","","","","","survey-text","204","426960","0.0-14.0","A26BQ33MHKVYFB","2022-05-27T01:09:36.203Z","rhyme-task_switching-same_different-phon_sim","","3567.4000000001397","task_switching","51","{""addition_ans"":""54""}","","true","training","","","","","","","","addition","54","add","","","","","","","","","","","","","","","","","","","","",""
"","","","","","html-keyboard-response","205","427973","0.0-15.0","A26BQ33MHKVYFB","2022-05-27T01:09:36.203Z","rhyme-task_switching-same_different-phon_sim","","null","task_switching","<div style=""color:darkgreen; font-size:60px"">Well done!</div>","null","","","training","","","","","","","","addition","","","","","","","","","","","","","","","","","","","","","","",""
"","","","","","survey-text","206","430399","0.0-16.0","A26BQ33MHKVYFB","2022-05-27T01:09:36.203Z","rhyme-task_switching-same_different-phon_sim","","2422.8000000000466","task_switching","69","{""addition_ans"":""72""}","","true","training","","","","","","","","addition","72","add","","","","","","","","","","","","","","","","","","","","",""
"","","","","","html-keyboard-response","207","431409","0.0-17.0","A26BQ33MHKVYFB","2022-05-27T01:09:36.203Z","rhyme-task_switching-same_different-phon_sim","","null","task_switching","<div style=""color:darkgreen; font-size:60px"">Well done!</div>","null","","","training","","","","","","","","addition","","","","","","","","","","","","","","","","","","","","","","",""
"","","","","","survey-text","208","433047","0.0-18.0","A26BQ33MHKVYFB","2022-05-27T01:09:36.203Z","rhyme-task_switching-same_different-phon_sim","","1635.1000000000931","task_switching","55","{""addition_ans"":""58""}","","true","training","","","","","","","","addition","58","add","","","","","","","","","","","","","","","","","","","","",""
"","","","","","html-keyboard-response","209","434061","0.0-19.0","A26BQ33MHKVYFB","2022-05-27T01:09:36.203Z","rhyme-task_switching-same_different-phon_sim","","null","task_switching","<div style=""color:darkgreen; font-size:60px"">Well done!</div>","null","","","training","","","","","","","","addition","","","","","","","","","","","","","","","","","","","","","","",""
"","","","","","survey-text","210","436592","0.0-20.0","A26BQ33MHKVYFB","2022-05-27T01:09:36.203Z","rhyme-task_switching-same_different-phon_sim","","2528.100000000093","task_switching","21","{""addition_ans"":""24""}","","true","training","","","","","","","","addition","24","add","","","","","","","","","","","","","","","","","","","","",""
"","","","","","html-keyboard-response","211","437598","0.0-21.0","A26BQ33MHKVYFB","2022-05-27T01:09:36.203Z","rhyme-task_switching-same_different-phon_sim","","null","task_switching","<div style=""color:darkgreen; font-size:60px"">Well done!</div>","null","","","training","","","","","","","","addition","","","","","","","","","","","","","","","","","","","","","","",""
"","","","","","survey-text","212","439215","0.0-22.0","A26BQ33MHKVYFB","2022-05-27T01:09:36.203Z","rhyme-task_switching-same_different-phon_sim","","1615","task_switching","62","{""addition_ans"":""65""}","","true","training","","","","","","","","addition","65","add","","","","","","","","","","","","","","","","","","","","",""
"","","","","","html-keyboard-response","213","440226","0.0-23.0","A26BQ33MHKVYFB","2022-05-27T01:09:36.203Z","rhyme-task_switching-same_different-phon_sim","","null","task_switching","<div style=""color:darkgreen; font-size:60px"">Well done!</div>","null","","","training","","","","","","","","addition","","","","","","","","","","","","","","","","","","","","","","",""
"","","","","","survey-text","214","442186","0.0-24.0","A26BQ33MHKVYFB","2022-05-27T01:09:36.203Z","rhyme-task_switching-same_different-phon_sim","","1956.6000000000931","task_switching","26","{""addition_ans"":""29""}","","true","training","","","","","","","","addition","29","add","","","","","","","","","","","","","","","","","","","","",""
"","","","","","html-keyboard-response","215","443204","0.0-25.0","A26BQ33MHKVYFB","2022-05-27T01:09:36.203Z","rhyme-task_switching-same_different-phon_sim","","null","task_switching","<div style=""color:darkgreen; font-size:60px"">Well done!</div>","null","","","training","","","","","","","","addition","","","","","","","","","","","","","","","","","","","","","","",""
