"success","timeout","failed_images","failed_audio","failed_video","trial_type","trial_index","time_elapsed","internal_node_id","worker_id","start_time","experiment_order","view_history","rt","experiment","stimulus","response","wait_time","correct","phase","image_1","image_2","cor_key","type","question_order","talk_out_loud","strategy_free_ans","condition","answer","operation","symbol_cue","trial_no","color_cue","judgment_type","stim_1","stim_2","inverted","true_neg","true_pos","false_pos","false_neg","word_1","word_2","word_3","word_4","word_5","original_word_set","response_1","response_2","response_3","response_4","response_5"
"true","false","[]","[]","[]","preload","0","3980","0.0-0.0","A2H2LO1OOF8R5N","2022-05-19T02:21:50.074Z","rhyme-task_switching-same_different-phon_sim","","","","","","","","","","","","","","","","","","","","","","","","","","","","","","","","","","","","","","","",""
"","","","","","instructions","1","22088","0.0-1.0","A2H2LO1OOF8R5N","2022-05-19T02:21:50.074Z","rhyme-task_switching-same_different-phon_sim","[{""page_index"":0,""viewing_time"":18106.30000001192}]","18106.70000000298","","","","","","","","","","","","","","","","","","","","","","","","","","","","","","","","","","","","","",""
"true","","","","","fullscreen","2","25107","0.0-2.0","A2H2LO1OOF8R5N","2022-05-19T02:21:50.074Z","rhyme-task_switching-same_different-phon_sim","","","","","","","","","","","","","","","","","","","","","","","","","","","","","","","","","","","","","","","",""
"","","","","","instructions","3","55371","0.0-3.0","A2H2LO1OOF8R5N","2022-05-19T02:21:50.074Z","rhyme-task_switching-same_different-phon_sim","[{""page_index"":0,""viewing_time"":30263}]","30263.5","rhyme","","","","","","","","","","","","","","","","","","","","","","","","","","","","","","","","","","","","",""
"","","","","","html-keyboard-response","4","55876","0.0-4.0-0.0","A2H2LO1OOF8R5N","2022-05-19T02:21:50.074Z","rhyme-task_switching-same_different-phon_sim","","null","rhyme","<div style=""font-size:60px;"">+</div>","null","500","","","","","","","","","","","","","","","","","","","","","","","","","","","","","","","","","",""
"","","","","","html-keyboard-response","5","56383","0.0-4.0-1.0","A2H2LO1OOF8R5N","2022-05-19T02:21:50.074Z","rhyme-task_switching-same_different-phon_sim","","null","rhyme","<img src=""square.png"" width=""306"" height=""306"" style=""position: fixed;left:14%;top:30%""><img src=""square.png"" width=""306"" height=""306"" style=""position: fixed;left:64%;top:30%"">","null","","","","","","","","","","","","","","","","","","","","","","","","","","","","","","","","","","",""
"","","","","","categorize-html","6","58826","0.0-4.0-2.0","A2H2LO1OOF8R5N","2022-05-19T02:21:50.074Z","rhyme-task_switching-same_different-phon_sim","","1431.7000000029802","rhyme","<div style=""border: 3px solid #000000; position: fixed;left:14%;top:30%""><img src=""visual/house.png"" width=""300""></div><div style=""border: 3px solid #000000; position: fixed;left:64%;top:30%""><img src=""visual/mouse.png"" width=""300""></div>","arrowup","","true","training","visual/house.png","visual/mouse.png","ArrowUp","NA","","","","","","","","","","","","","","","","","","","","","","","","","","","",""
"","","","","","html-keyboard-response","7","59828","0.0-4.0-0.1","A2H2LO1OOF8R5N","2022-05-19T02:21:50.074Z","rhyme-task_switching-same_different-phon_sim","","null","rhyme","<div style=""font-size:60px;"">+</div>","null","1000","","","","","","","","","","","","","","","","","","","","","","","","","","","","","","","","","",""
"","","","","","html-keyboard-response","8","60335","0.0-4.0-1.1","A2H2LO1OOF8R5N","2022-05-19T02:21:50.074Z","rhyme-task_switching-same_different-phon_sim","","null","rhyme","<img src=""square.png"" width=""306"" height=""306"" style=""position: fixed;left:14%;top:30%""><img src=""square.png"" width=""306"" height=""306"" style=""position: fixed;left:64%;top:30%"">","null","","","","","","","","","","","","","","","","","","","","","","","","","","","","","","","","","","",""
"","","","","","categorize-html","9","63117","0.0-4.0-2.1","A2H2LO1OOF8R5N","2022-05-19T02:21:50.074Z","rhyme-task_switching-same_different-phon_sim","","1777.2999999970198","rhyme","<div style=""border: 3px solid #000000; position: fixed;left:14%;top:30%""><img src=""visual/mouse.png"" width=""300""></div><div style=""border: 3px solid #000000; position: fixed;left:64%;top:30%""><img src=""visual/dress.png"" width=""300""></div>","arrowdown","","true","training","visual/mouse.png","visual/dress.png","ArrowDown","NA","","","","","","","","","","","","","","","","","","","","","","","","","","","",""
"","","","","","html-keyboard-response","10","63373","0.0-4.0-0.2","A2H2LO1OOF8R5N","2022-05-19T02:21:50.074Z","rhyme-task_switching-same_different-phon_sim","","null","rhyme","<div style=""font-size:60px;"">+</div>","null","250","","","","","","","","","","","","","","","","","","","","","","","","","","","","","","","","","",""
"","","","","","html-keyboard-response","11","63880","0.0-4.0-1.2","A2H2LO1OOF8R5N","2022-05-19T02:21:50.074Z","rhyme-task_switching-same_different-phon_sim","","null","rhyme","<img src=""square.png"" width=""306"" height=""306"" style=""position: fixed;left:14%;top:30%""><img src=""square.png"" width=""306"" height=""306"" style=""position: fixed;left:64%;top:30%"">","null","","","","","","","","","","","","","","","","","","","","","","","","","","","","","","","","","","",""
"","","","","","categorize-html","12","66637","0.0-4.0-2.2","A2H2LO1OOF8R5N","2022-05-19T02:21:50.074Z","rhyme-task_switching-same_different-phon_sim","","1752.0999999940395","rhyme","<div style=""border: 3px solid #000000; position: fixed;left:14%;top:30%""><img src=""visual/chess.png"" width=""300""></div><div style=""border: 3px solid #000000; position: fixed;left:64%;top:30%""><img src=""visual/suit.png"" width=""300""></div>","arrowdown","","true","training","visual/chess.png","visual/suit.png","ArrowDown","NA","","","","","","","","","","","","","","","","","","","","","","","","","","","",""
"","","","","","html-keyboard-response","13","67644","0.0-4.0-0.3","A2H2LO1OOF8R5N","2022-05-19T02:21:50.074Z","rhyme-task_switching-same_different-phon_sim","","null","rhyme","<div style=""font-size:60px;"">+</div>","null","1000","","","","","","","","","","","","","","","","","","","","","","","","","","","","","","","","","",""
"","","","","","html-keyboard-response","14","68147","0.0-4.0-1.3","A2H2LO1OOF8R5N","2022-05-19T02:21:50.074Z","rhyme-task_switching-same_different-phon_sim","","null","rhyme","<img src=""square.png"" width=""306"" height=""306"" style=""position: fixed;left:14%;top:30%""><img src=""square.png"" width=""306"" height=""306"" style=""position: fixed;left:64%;top:30%"">","null","","","","","","","","","","","","","","","","","","","","","","","","","","","","","","","","","","",""
"","","","","","categorize-html","15","70589","0.0-4.0-2.3","A2H2LO1OOF8R5N","2022-05-19T02:21:50.074Z","rhyme-task_switching-same_different-phon_sim","","1436.6000000089407","rhyme","<div style=""border: 3px solid #000000; position: fixed;left:14%;top:30%""><img src=""visual/dress.png"" width=""300""></div><div style=""border: 3px solid #000000; position: fixed;left:64%;top:30%""><img src=""visual/chess.png"" width=""300""></div>","arrowup","","true","training","visual/dress.png","visual/chess.png","ArrowUp","NA","","","","","","","","","","","","","","","","","","","","","","","","","","","",""
"","","","","","instructions","16","73720","0.0-5.0","A2H2LO1OOF8R5N","2022-05-19T02:21:50.074Z","rhyme-task_switching-same_different-phon_sim","[{""page_index"":0,""viewing_time"":3130.5}]","3130.9000000059605","","","","","","","","","","","","","","","","","","","","","","","","","","","","","","","","","","","","","",""
"","","","","","html-keyboard-response","17","74225","0.0-6.0-0.0","A2H2LO1OOF8R5N","2022-05-19T02:21:50.074Z","rhyme-task_switching-same_different-phon_sim","","null","rhyme","<div style=""font-size:60px;"">+</div>","null","500","","","","","","","","","","","","","","","","","","","","","","","","","","","","","","","","","",""
"","","","","","html-keyboard-response","18","74731","0.0-6.0-1.0","A2H2LO1OOF8R5N","2022-05-19T02:21:50.074Z","rhyme-task_switching-same_different-phon_sim","","null","rhyme","<img src=""square.png"" width=""306"" height=""306"" style=""position: fixed;left:14%;top:30%""><img src=""square.png"" width=""306"" height=""306"" style=""position: fixed;left:64%;top:30%"">","null","","","","","","","","","","","","","","","","","","","","","","","","","","","","","","","","","","",""
"","","","","","html-keyboard-response","19","76001","0.0-6.0-2.0","A2H2LO1OOF8R5N","2022-05-19T02:21:50.074Z","rhyme-task_switching-same_different-phon_sim","","1265.7000000029802","rhyme","<div style=""border: 3px solid #000000; position: fixed;left:14%;top:30%""><img src=""visual/socks.png"" width=""300""></div><div style=""border: 3px solid #000000; position: fixed;left:64%;top:30%""><img src=""visual/fox.png"" width=""300""></div>","arrowup","","true","experiment","visual/socks.png","visual/fox.png","ArrowUp","non-ortho","","","","","","","","","","","","","","","","","","","","","","","","","","","",""
"","","","","","html-keyboard-response","20","77004","0.0-6.0-0.1","A2H2LO1OOF8R5N","2022-05-19T02:21:50.074Z","rhyme-task_switching-same_different-phon_sim","","null","rhyme","<div style=""font-size:60px;"">+</div>","null","1000","","","","","","","","","","","","","","","","","","","","","","","","","","","","","","","","","",""
"","","","","","html-keyboard-response","21","77508","0.0-6.0-1.1","A2H2LO1OOF8R5N","2022-05-19T02:21:50.074Z","rhyme-task_switching-same_different-phon_sim","","null","rhyme","<img src=""square.png"" width=""306"" height=""306"" style=""position: fixed;left:14%;top:30%""><img src=""square.png"" width=""306"" height=""306"" style=""position: fixed;left:64%;top:30%"">","null","","","","","","","","","","","","","","","","","","","","","","","","","","","","","","","","","","",""
"","","","","","html-keyboard-response","22","79976","0.0-6.0-2.1","A2H2LO1OOF8R5N","2022-05-19T02:21:50.074Z","rhyme-task_switching-same_different-phon_sim","","2465","rhyme","<div style=""border: 3px solid #000000; position: fixed;left:14%;top:30%""><img src=""visual/bear.png"" width=""300""></div><div style=""border: 3px solid #000000; position: fixed;left:64%;top:30%""><img src=""visual/square_rhyme.png"" width=""300""></div>","arrowup","","true","experiment","visual/bear.png","visual/square_rhyme.png","ArrowUp","non-ortho","","","","","","","","","","","","","","","","","","","","","","","","","","","",""
"","","","","","html-keyboard-response","23","80478","0.0-6.0-0.2","A2H2LO1OOF8R5N","2022-05-19T02:21:50.074Z","rhyme-task_switching-same_different-phon_sim","","null","rhyme","<div style=""font-size:60px;"">+</div>","null","500","","","","","","","","","","","","","","","","","","","","","","","","","","","","","","","","","",""
"","","","","","html-keyboard-response","24","80985","0.0-6.0-1.2","A2H2LO1OOF8R5N","2022-05-19T02:21:50.074Z","rhyme-task_switching-same_different-phon_sim","","null","rhyme","<img src=""square.png"" width=""306"" height=""306"" style=""position: fixed;left:14%;top:30%""><img src=""square.png"" width=""306"" height=""306"" style=""position: fixed;left:64%;top:30%"">","null","","","","","","","","","","","","","","","","","","","","","","","","","","","","","","","","","","",""
"","","","","","html-keyboard-response","25","84520","0.0-6.0-2.2","A2H2LO1OOF8R5N","2022-05-19T02:21:50.074Z","rhyme-task_switching-same_different-phon_sim","","3531.4000000059605","rhyme","<div style=""border: 3px solid #000000; position: fixed;left:14%;top:30%""><img src=""visual/shark.png"" width=""300""></div><div style=""border: 3px solid #000000; position: fixed;left:64%;top:30%""><img src=""visual/park.png"" width=""300""></div>","arrowdown","","false","experiment","visual/shark.png","visual/park.png","ArrowUp","ortho","","","","","","","","","","","","","","","","","","","","","","","","","","","",""
"","","","","","html-keyboard-response","26","84776","0.0-6.0-0.3","A2H2LO1OOF8R5N","2022-05-19T02:21:50.074Z","rhyme-task_switching-same_different-phon_sim","","null","rhyme","<div style=""font-size:60px;"">+</div>","null","250","","","","","","","","","","","","","","","","","","","","","","","","","","","","","","","","","",""
"","","","","","html-keyboard-response","27","85283","0.0-6.0-1.3","A2H2LO1OOF8R5N","2022-05-19T02:21:50.074Z","rhyme-task_switching-same_different-phon_sim","","null","rhyme","<img src=""square.png"" width=""306"" height=""306"" style=""position: fixed;left:14%;top:30%""><img src=""square.png"" width=""306"" height=""306"" style=""position: fixed;left:64%;top:30%"">","null","","","","","","","","","","","","","","","","","","","","","","","","","","","","","","","","","","",""
"","","","","","html-keyboard-response","28","88673","0.0-6.0-2.3","A2H2LO1OOF8R5N","2022-05-19T02:21:50.074Z","rhyme-task_switching-same_different-phon_sim","","3388.2000000029802","rhyme","<div style=""border: 3px solid #000000; position: fixed;left:14%;top:30%""><img src=""visual/wave.png"" width=""300""></div><div style=""border: 3px solid #000000; position: fixed;left:64%;top:30%""><img src=""visual/cave.png"" width=""300""></div>","arrowdown","","false","experiment","visual/wave.png","visual/cave.png","ArrowUp","ortho","","","","","","","","","","","","","","","","","","","","","","","","","","","",""
"","","","","","html-keyboard-response","29","88930","0.0-6.0-0.4","A2H2LO1OOF8R5N","2022-05-19T02:21:50.074Z","rhyme-task_switching-same_different-phon_sim","","null","rhyme","<div style=""font-size:60px;"">+</div>","null","250","","","","","","","","","","","","","","","","","","","","","","","","","","","","","","","","","",""
"","","","","","html-keyboard-response","30","89434","0.0-6.0-1.4","A2H2LO1OOF8R5N","2022-05-19T02:21:50.074Z","rhyme-task_switching-same_different-phon_sim","","null","rhyme","<img src=""square.png"" width=""306"" height=""306"" style=""position: fixed;left:14%;top:30%""><img src=""square.png"" width=""306"" height=""306"" style=""position: fixed;left:64%;top:30%"">","null","","","","","","","","","","","","","","","","","","","","","","","","","","","","","","","","","","",""
"","","","","","html-keyboard-response","31","91460","0.0-6.0-2.4","A2H2LO1OOF8R5N","2022-05-19T02:21:50.074Z","rhyme-task_switching-same_different-phon_sim","","2022.5999999940395","rhyme","<div style=""border: 3px solid #000000; position: fixed;left:14%;top:30%""><img src=""visual/soap.png"" width=""300""></div><div style=""border: 3px solid #000000; position: fixed;left:64%;top:30%""><img src=""visual/rope.png"" width=""300""></div>","arrowup","","true","experiment","visual/soap.png","visual/rope.png","ArrowUp","non-ortho","","","","","","","","","","","","","","","","","","","","","","","","","","","",""
"","","","","","html-keyboard-response","32","92214","0.0-6.0-0.5","A2H2LO1OOF8R5N","2022-05-19T02:21:50.074Z","rhyme-task_switching-same_different-phon_sim","","null","rhyme","<div style=""font-size:60px;"">+</div>","null","750","","","","","","","","","","","","","","","","","","","","","","","","","","","","","","","","","",""
"","","","","","html-keyboard-response","33","92717","0.0-6.0-1.5","A2H2LO1OOF8R5N","2022-05-19T02:21:50.074Z","rhyme-task_switching-same_different-phon_sim","","null","rhyme","<img src=""square.png"" width=""306"" height=""306"" style=""position: fixed;left:14%;top:30%""><img src=""square.png"" width=""306"" height=""306"" style=""position: fixed;left:64%;top:30%"">","null","","","","","","","","","","","","","","","","","","","","","","","","","","","","","","","","","","",""
"","","","","","html-keyboard-response","34","94778","0.0-6.0-2.5","A2H2LO1OOF8R5N","2022-05-19T02:21:50.074Z","rhyme-task_switching-same_different-phon_sim","","2058.5","rhyme","<div style=""border: 3px solid #000000; position: fixed;left:14%;top:30%""><img src=""visual/deer.png"" width=""300""></div><div style=""border: 3px solid #000000; position: fixed;left:64%;top:30%""><img src=""visual/beer.png"" width=""300""></div>","arrowup","","true","experiment","visual/deer.png","visual/beer.png","ArrowUp","ortho","","","","","","","","","","","","","","","","","","","","","","","","","","","",""
"","","","","","html-keyboard-response","35","95282","0.0-6.0-0.6","A2H2LO1OOF8R5N","2022-05-19T02:21:50.074Z","rhyme-task_switching-same_different-phon_sim","","null","rhyme","<div style=""font-size:60px;"">+</div>","null","500","","","","","","","","","","","","","","","","","","","","","","","","","","","","","","","","","",""
"","","","","","html-keyboard-response","36","95784","0.0-6.0-1.6","A2H2LO1OOF8R5N","2022-05-19T02:21:50.074Z","rhyme-task_switching-same_different-phon_sim","","null","rhyme","<img src=""square.png"" width=""306"" height=""306"" style=""position: fixed;left:14%;top:30%""><img src=""square.png"" width=""306"" height=""306"" style=""position: fixed;left:64%;top:30%"">","null","","","","","","","","","","","","","","","","","","","","","","","","","","","","","","","","","","",""
"","","","","","html-keyboard-response","37","97622","0.0-6.0-2.6","A2H2LO1OOF8R5N","2022-05-19T02:21:50.074Z","rhyme-task_switching-same_different-phon_sim","","1834","rhyme","<div style=""border: 3px solid #000000; position: fixed;left:14%;top:30%""><img src=""visual/claw.png"" width=""300""></div><div style=""border: 3px solid #000000; position: fixed;left:64%;top:30%""><img src=""visual/beer.png"" width=""300""></div>","arrowdown","","true","experiment","visual/claw.png","visual/beer.png","ArrowDown","NR","","","","","","","","","","","","","","","","","","","","","","","","","","","",""
"","","","","","html-keyboard-response","38","98627","0.0-6.0-0.7","A2H2LO1OOF8R5N","2022-05-19T02:21:50.074Z","rhyme-task_switching-same_different-phon_sim","","null","rhyme","<div style=""font-size:60px;"">+</div>","null","1000","","","","","","","","","","","","","","","","","","","","","","","","","","","","","","","","","",""
"","","","","","html-keyboard-response","39","99130","0.0-6.0-1.7","A2H2LO1OOF8R5N","2022-05-19T02:21:50.074Z","rhyme-task_switching-same_different-phon_sim","","null","rhyme","<img src=""square.png"" width=""306"" height=""306"" style=""position: fixed;left:14%;top:30%""><img src=""square.png"" width=""306"" height=""306"" style=""position: fixed;left:64%;top:30%"">","null","","","","","","","","","","","","","","","","","","","","","","","","","","","","","","","","","","",""
"","","","","","html-keyboard-response","40","100373","0.0-6.0-2.7","A2H2LO1OOF8R5N","2022-05-19T02:21:50.074Z","rhyme-task_switching-same_different-phon_sim","","1239.7999999970198","rhyme","<div style=""border: 3px solid #000000; position: fixed;left:14%;top:30%""><img src=""visual/cat.png"" width=""300""></div><div style=""border: 3px solid #000000; position: fixed;left:64%;top:30%""><img src=""visual/hat.png"" width=""300""></div>","arrowup","","true","experiment","visual/cat.png","visual/hat.png","ArrowUp","ortho","","","","","","","","","","","","","","","","","","","","","","","","","","","",""
"","","","","","html-keyboard-response","41","100876","0.0-6.0-0.8","A2H2LO1OOF8R5N","2022-05-19T02:21:50.074Z","rhyme-task_switching-same_different-phon_sim","","null","rhyme","<div style=""font-size:60px;"">+</div>","null","500","","","","","","","","","","","","","","","","","","","","","","","","","","","","","","","","","",""
"","","","","","html-keyboard-response","42","101383","0.0-6.0-1.8","A2H2LO1OOF8R5N","2022-05-19T02:21:50.074Z","rhyme-task_switching-same_different-phon_sim","","null","rhyme","<img src=""square.png"" width=""306"" height=""306"" style=""position: fixed;left:14%;top:30%""><img src=""square.png"" width=""306"" height=""306"" style=""position: fixed;left:64%;top:30%"">","null","","","","","","","","","","","","","","","","","","","","","","","","","","","","","","","","","","",""
"","","","","","html-keyboard-response","43","104681","0.0-6.0-2.8","A2H2LO1OOF8R5N","2022-05-19T02:21:50.074Z","rhyme-task_switching-same_different-phon_sim","","3295.7999999970198","rhyme","<div style=""border: 3px solid #000000; position: fixed;left:14%;top:30%""><img src=""visual/jar.png"" width=""300""></div><div style=""border: 3px solid #000000; position: fixed;left:64%;top:30%""><img src=""visual/whale.png"" width=""300""></div>","arrowdown","","true","experiment","visual/jar.png","visual/whale.png","ArrowDown","NR","","","","","","","","","","","","","","","","","","","","","","","","","","","",""
"","","","","","html-keyboard-response","44","104938","0.0-6.0-0.9","A2H2LO1OOF8R5N","2022-05-19T02:21:50.074Z","rhyme-task_switching-same_different-phon_sim","","null","rhyme","<div style=""font-size:60px;"">+</div>","null","250","","","","","","","","","","","","","","","","","","","","","","","","","","","","","","","","","",""
"","","","","","html-keyboard-response","45","105445","0.0-6.0-1.9","A2H2LO1OOF8R5N","2022-05-19T02:21:50.074Z","rhyme-task_switching-same_different-phon_sim","","null","rhyme","<img src=""square.png"" width=""306"" height=""306"" style=""position: fixed;left:14%;top:30%""><img src=""square.png"" width=""306"" height=""306"" style=""position: fixed;left:64%;top:30%"">","null","","","","","","","","","","","","","","","","","","","","","","","","","","","","","","","","","","",""
"","","","","","html-keyboard-response","46","106958","0.0-6.0-2.9","A2H2LO1OOF8R5N","2022-05-19T02:21:50.074Z","rhyme-task_switching-same_different-phon_sim","","1509.8999999910593","rhyme","<div style=""border: 3px solid #000000; position: fixed;left:14%;top:30%""><img src=""visual/key.png"" width=""300""></div><div style=""border: 3px solid #000000; position: fixed;left:64%;top:30%""><img src=""visual/tree.png"" width=""300""></div>","arrowup","","true","experiment","visual/key.png","visual/tree.png","ArrowUp","non-ortho","","","","","","","","","","","","","","","","","","","","","","","","","","","",""
"","","","","","html-keyboard-response","47","107715","0.0-6.0-0.10","A2H2LO1OOF8R5N","2022-05-19T02:21:50.074Z","rhyme-task_switching-same_different-phon_sim","","null","rhyme","<div style=""font-size:60px;"">+</div>","null","750","","","","","","","","","","","","","","","","","","","","","","","","","","","","","","","","","",""
"","","","","","html-keyboard-response","48","108222","0.0-6.0-1.10","A2H2LO1OOF8R5N","2022-05-19T02:21:50.074Z","rhyme-task_switching-same_different-phon_sim","","null","rhyme","<img src=""square.png"" width=""306"" height=""306"" style=""position: fixed;left:14%;top:30%""><img src=""square.png"" width=""306"" height=""306"" style=""position: fixed;left:64%;top:30%"">","null","","","","","","","","","","","","","","","","","","","","","","","","","","","","","","","","","","",""
"","","","","","html-keyboard-response","49","109389","0.0-6.0-2.10","A2H2LO1OOF8R5N","2022-05-19T02:21:50.074Z","rhyme-task_switching-same_different-phon_sim","","1163.7999999970198","rhyme","<div style=""border: 3px solid #000000; position: fixed;left:14%;top:30%""><img src=""visual/bone.png"" width=""300""></div><div style=""border: 3px solid #000000; position: fixed;left:64%;top:30%""><img src=""visual/cone.png"" width=""300""></div>","arrowup","","true","experiment","visual/bone.png","visual/cone.png","ArrowUp","ortho","","","","","","","","","","","","","","","","","","","","","","","","","","","",""
"","","","","","html-keyboard-response","50","109645","0.0-6.0-0.11","A2H2LO1OOF8R5N","2022-05-19T02:21:50.074Z","rhyme-task_switching-same_different-phon_sim","","null","rhyme","<div style=""font-size:60px;"">+</div>","null","250","","","","","","","","","","","","","","","","","","","","","","","","","","","","","","","","","",""
"","","","","","html-keyboard-response","51","110150","0.0-6.0-1.11","A2H2LO1OOF8R5N","2022-05-19T02:21:50.074Z","rhyme-task_switching-same_different-phon_sim","","null","rhyme","<img src=""square.png"" width=""306"" height=""306"" style=""position: fixed;left:14%;top:30%""><img src=""square.png"" width=""306"" height=""306"" style=""position: fixed;left:64%;top:30%"">","null","","","","","","","","","","","","","","","","","","","","","","","","","","","","","","","","","","",""
"","","","","","html-keyboard-response","52","111320","0.0-6.0-2.11","A2H2LO1OOF8R5N","2022-05-19T02:21:50.074Z","rhyme-task_switching-same_different-phon_sim","","1166.9000000059605","rhyme","<div style=""border: 3px solid #000000; position: fixed;left:14%;top:30%""><img src=""visual/king.png"" width=""300""></div><div style=""border: 3px solid #000000; position: fixed;left:64%;top:30%""><img src=""visual/ring.png"" width=""300""></div>","arrowup","","true","experiment","visual/king.png","visual/ring.png","ArrowUp","ortho","","","","","","","","","","","","","","","","","","","","","","","","","","","",""
"","","","","","html-keyboard-response","53","111821","0.0-6.0-0.12","A2H2LO1OOF8R5N","2022-05-19T02:21:50.074Z","rhyme-task_switching-same_different-phon_sim","","null","rhyme","<div style=""font-size:60px;"">+</div>","null","500","","","","","","","","","","","","","","","","","","","","","","","","","","","","","","","","","",""
"","","","","","html-keyboard-response","54","112327","0.0-6.0-1.12","A2H2LO1OOF8R5N","2022-05-19T02:21:50.074Z","rhyme-task_switching-same_different-phon_sim","","null","rhyme","<img src=""square.png"" width=""306"" height=""306"" style=""position: fixed;left:14%;top:30%""><img src=""square.png"" width=""306"" height=""306"" style=""position: fixed;left:64%;top:30%"">","null","","","","","","","","","","","","","","","","","","","","","","","","","","","","","","","","","","",""
"","","","","","html-keyboard-response","55","116226","0.0-6.0-2.12","A2H2LO1OOF8R5N","2022-05-19T02:21:50.074Z","rhyme-task_switching-same_different-phon_sim","","3895.9000000059605","rhyme","<div style=""border: 3px solid #000000; position: fixed;left:14%;top:30%""><img src=""visual/key.png"" width=""300""></div><div style=""border: 3px solid #000000; position: fixed;left:64%;top:30%""><img src=""visual/snail.png"" width=""300""></div>","arrowdown","","true","experiment","visual/key.png","visual/snail.png","ArrowDown","NR","","","","","","","","","","","","","","","","","","","","","","","","","","","",""
"","","","","","html-keyboard-response","56","116482","0.0-6.0-0.13","A2H2LO1OOF8R5N","2022-05-19T02:21:50.074Z","rhyme-task_switching-same_different-phon_sim","","null","rhyme","<div style=""font-size:60px;"">+</div>","null","250","","","","","","","","","","","","","","","","","","","","","","","","","","","","","","","","","",""
"","","","","","html-keyboard-response","57","116987","0.0-6.0-1.13","A2H2LO1OOF8R5N","2022-05-19T02:21:50.074Z","rhyme-task_switching-same_different-phon_sim","","null","rhyme","<img src=""square.png"" width=""306"" height=""306"" style=""position: fixed;left:14%;top:30%""><img src=""square.png"" width=""306"" height=""306"" style=""position: fixed;left:64%;top:30%"">","null","","","","","","","","","","","","","","","","","","","","","","","","","","","","","","","","","","",""
"","","","","","html-keyboard-response","58","120250","0.0-6.0-2.13","A2H2LO1OOF8R5N","2022-05-19T02:21:50.074Z","rhyme-task_switching-same_different-phon_sim","","3259.5","rhyme","<div style=""border: 3px solid #000000; position: fixed;left:14%;top:30%""><img src=""visual/cake.png"" width=""300""></div><div style=""border: 3px solid #000000; position: fixed;left:64%;top:30%""><img src=""visual/rake.png"" width=""300""></div>","arrowup","","true","experiment","visual/cake.png","visual/rake.png","ArrowUp","ortho","","","","","","","","","","","","","","","","","","","","","","","","","","","",""
"","","","","","html-keyboard-response","59","121253","0.0-6.0-0.14","A2H2LO1OOF8R5N","2022-05-19T02:21:50.074Z","rhyme-task_switching-same_different-phon_sim","","null","rhyme","<div style=""font-size:60px;"">+</div>","null","1000","","","","","","","","","","","","","","","","","","","","","","","","","","","","","","","","","",""
"","","","","","html-keyboard-response","60","121760","0.0-6.0-1.14","A2H2LO1OOF8R5N","2022-05-19T02:21:50.074Z","rhyme-task_switching-same_different-phon_sim","","null","rhyme","<img src=""square.png"" width=""306"" height=""306"" style=""position: fixed;left:14%;top:30%""><img src=""square.png"" width=""306"" height=""306"" style=""position: fixed;left:64%;top:30%"">","null","","","","","","","","","","","","","","","","","","","","","","","","","","","","","","","","","","",""
"","","","","","html-keyboard-response","61","123409","0.0-6.0-2.14","A2H2LO1OOF8R5N","2022-05-19T02:21:50.074Z","rhyme-task_switching-same_different-phon_sim","","1645.3999999910593","rhyme","<div style=""border: 3px solid #000000; position: fixed;left:14%;top:30%""><img src=""visual/tree.png"" width=""300""></div><div style=""border: 3px solid #000000; position: fixed;left:64%;top:30%""><img src=""visual/door.png"" width=""300""></div>","arrowdown","","true","experiment","visual/tree.png","visual/door.png","ArrowDown","NR","","","","","","","","","","","","","","","","","","","","","","","","","","","",""
"","","","","","html-keyboard-response","62","123914","0.0-6.0-0.15","A2H2LO1OOF8R5N","2022-05-19T02:21:50.074Z","rhyme-task_switching-same_different-phon_sim","","null","rhyme","<div style=""font-size:60px;"">+</div>","null","500","","","","","","","","","","","","","","","","","","","","","","","","","","","","","","","","","",""
"","","","","","html-keyboard-response","63","124417","0.0-6.0-1.15","A2H2LO1OOF8R5N","2022-05-19T02:21:50.074Z","rhyme-task_switching-same_different-phon_sim","","null","rhyme","<img src=""square.png"" width=""306"" height=""306"" style=""position: fixed;left:14%;top:30%""><img src=""square.png"" width=""306"" height=""306"" style=""position: fixed;left:64%;top:30%"">","null","","","","","","","","","","","","","","","","","","","","","","","","","","","","","","","","","","",""
"","","","","","html-keyboard-response","64","125941","0.0-6.0-2.15","A2H2LO1OOF8R5N","2022-05-19T02:21:50.074Z","rhyme-task_switching-same_different-phon_sim","","1522.6000000089407","rhyme","<div style=""border: 3px solid #000000; position: fixed;left:14%;top:30%""><img src=""visual/bed.png"" width=""300""></div><div style=""border: 3px solid #000000; position: fixed;left:64%;top:30%""><img src=""visual/bread.png"" width=""300""></div>","arrowup","","true","experiment","visual/bed.png","visual/bread.png","ArrowUp","non-ortho","","","","","","","","","","","","","","","","","","","","","","","","","","","",""
"","","","","","html-keyboard-response","65","126944","0.0-6.0-0.16","A2H2LO1OOF8R5N","2022-05-19T02:21:50.074Z","rhyme-task_switching-same_different-phon_sim","","null","rhyme","<div style=""font-size:60px;"">+</div>","null","1000","","","","","","","","","","","","","","","","","","","","","","","","","","","","","","","","","",""
"","","","","","html-keyboard-response","66","127448","0.0-6.0-1.16","A2H2LO1OOF8R5N","2022-05-19T02:21:50.074Z","rhyme-task_switching-same_different-phon_sim","","null","rhyme","<img src=""square.png"" width=""306"" height=""306"" style=""position: fixed;left:14%;top:30%""><img src=""square.png"" width=""306"" height=""306"" style=""position: fixed;left:64%;top:30%"">","null","","","","","","","","","","","","","","","","","","","","","","","","","","","","","","","","","","",""
"","","","","","html-keyboard-response","67","129212","0.0-6.0-2.16","A2H2LO1OOF8R5N","2022-05-19T02:21:50.074Z","rhyme-task_switching-same_different-phon_sim","","1761.3999999910593","rhyme","<div style=""border: 3px solid #000000; position: fixed;left:14%;top:30%""><img src=""visual/plane.png"" width=""300""></div><div style=""border: 3px solid #000000; position: fixed;left:64%;top:30%""><img src=""visual/train.png"" width=""300""></div>","arrowup","","true","experiment","visual/plane.png","visual/train.png","ArrowUp","non-ortho","","","","","","","","","","","","","","","","","","","","","","","","","","","",""
"","","","","","html-keyboard-response","68","129967","0.0-6.0-0.17","A2H2LO1OOF8R5N","2022-05-19T02:21:50.074Z","rhyme-task_switching-same_different-phon_sim","","null","rhyme","<div style=""font-size:60px;"">+</div>","null","750","","","","","","","","","","","","","","","","","","","","","","","","","","","","","","","","","",""
"","","","","","html-keyboard-response","69","130474","0.0-6.0-1.17","A2H2LO1OOF8R5N","2022-05-19T02:21:50.074Z","rhyme-task_switching-same_different-phon_sim","","null","rhyme","<img src=""square.png"" width=""306"" height=""306"" style=""position: fixed;left:14%;top:30%""><img src=""square.png"" width=""306"" height=""306"" style=""position: fixed;left:64%;top:30%"">","null","","","","","","","","","","","","","","","","","","","","","","","","","","","","","","","","","","",""
"","","","","","html-keyboard-response","70","131951","0.0-6.0-2.17","A2H2LO1OOF8R5N","2022-05-19T02:21:50.074Z","rhyme-task_switching-same_different-phon_sim","","1473.6000000089407","rhyme","<div style=""border: 3px solid #000000; position: fixed;left:14%;top:30%""><img src=""visual/eye.png"" width=""300""></div><div style=""border: 3px solid #000000; position: fixed;left:64%;top:30%""><img src=""visual/tie.png"" width=""300""></div>","arrowup","","true","experiment","visual/eye.png","visual/tie.png","ArrowUp","non-ortho","","","","","","","","","","","","","","","","","","","","","","","","","","","",""
"","","","","","html-keyboard-response","71","132454","0.0-6.0-0.18","A2H2LO1OOF8R5N","2022-05-19T02:21:50.074Z","rhyme-task_switching-same_different-phon_sim","","null","rhyme","<div style=""font-size:60px;"">+</div>","null","500","","","","","","","","","","","","","","","","","","","","","","","","","","","","","","","","","",""
"","","","","","html-keyboard-response","72","132961","0.0-6.0-1.18","A2H2LO1OOF8R5N","2022-05-19T02:21:50.074Z","rhyme-task_switching-same_different-phon_sim","","null","rhyme","<img src=""square.png"" width=""306"" height=""306"" style=""position: fixed;left:14%;top:30%""><img src=""square.png"" width=""306"" height=""306"" style=""position: fixed;left:64%;top:30%"">","null","","","","","","","","","","","","","","","","","","","","","","","","","","","","","","","","","","",""
"","","","","","html-keyboard-response","73","134405","0.0-6.0-2.18","A2H2LO1OOF8R5N","2022-05-19T02:21:50.074Z","rhyme-task_switching-same_different-phon_sim","","1441.5","rhyme","<div style=""border: 3px solid #000000; position: fixed;left:14%;top:30%""><img src=""visual/cat.png"" width=""300""></div><div style=""border: 3px solid #000000; position: fixed;left:64%;top:30%""><img src=""visual/sock.png"" width=""300""></div>","arrowdown","","true","experiment","visual/cat.png","visual/sock.png","ArrowDown","NR","","","","","","","","","","","","","","","","","","","","","","","","","","","",""
"","","","","","html-keyboard-response","74","134907","0.0-6.0-0.19","A2H2LO1OOF8R5N","2022-05-19T02:21:50.074Z","rhyme-task_switching-same_different-phon_sim","","null","rhyme","<div style=""font-size:60px;"">+</div>","null","500","","","","","","","","","","","","","","","","","","","","","","","","","","","","","","","","","",""
"","","","","","html-keyboard-response","75","135414","0.0-6.0-1.19","A2H2LO1OOF8R5N","2022-05-19T02:21:50.074Z","rhyme-task_switching-same_different-phon_sim","","null","rhyme","<img src=""square.png"" width=""306"" height=""306"" style=""position: fixed;left:14%;top:30%""><img src=""square.png"" width=""306"" height=""306"" style=""position: fixed;left:64%;top:30%"">","null","","","","","","","","","","","","","","","","","","","","","","","","","","","","","","","","","","",""
"","","","","","html-keyboard-response","76","136943","0.0-6.0-2.19","A2H2LO1OOF8R5N","2022-05-19T02:21:50.074Z","rhyme-task_switching-same_different-phon_sim","","1527.7999999970198","rhyme","<div style=""border: 3px solid #000000; position: fixed;left:14%;top:30%""><img src=""visual/train.png"" width=""300""></div><div style=""border: 3px solid #000000; position: fixed;left:64%;top:30%""><img src=""visual/screw.png"" width=""300""></div>","arrowdown","","true","experiment","visual/train.png","visual/screw.png","ArrowDown","NR","","","","","","","","","","","","","","","","","","","","","","","","","","","",""
"","","","","","html-keyboard-response","77","137200","0.0-6.0-0.20","A2H2LO1OOF8R5N","2022-05-19T02:21:50.074Z","rhyme-task_switching-same_different-phon_sim","","null","rhyme","<div style=""font-size:60px;"">+</div>","null","250","","","","","","","","","","","","","","","","","","","","","","","","","","","","","","","","","",""
"","","","","","html-keyboard-response","78","137707","0.0-6.0-1.20","A2H2LO1OOF8R5N","2022-05-19T02:21:50.074Z","rhyme-task_switching-same_different-phon_sim","","null","rhyme","<img src=""square.png"" width=""306"" height=""306"" style=""position: fixed;left:14%;top:30%""><img src=""square.png"" width=""306"" height=""306"" style=""position: fixed;left:64%;top:30%"">","null","","","","","","","","","","","","","","","","","","","","","","","","","","","","","","","","","","",""
"","","","","","html-keyboard-response","79","139102","0.0-6.0-2.20","A2H2LO1OOF8R5N","2022-05-19T02:21:50.074Z","rhyme-task_switching-same_different-phon_sim","","1391.5","rhyme","<div style=""border: 3px solid #000000; position: fixed;left:14%;top:30%""><img src=""visual/bear.png"" width=""300""></div><div style=""border: 3px solid #000000; position: fixed;left:64%;top:30%""><img src=""visual/hair.png"" width=""300""></div>","arrowup","","true","experiment","visual/bear.png","visual/hair.png","ArrowUp","non-ortho","","","","","","","","","","","","","","","","","","","","","","","","","","","",""
"","","","","","html-keyboard-response","80","139854","0.0-6.0-0.21","A2H2LO1OOF8R5N","2022-05-19T02:21:50.074Z","rhyme-task_switching-same_different-phon_sim","","null","rhyme","<div style=""font-size:60px;"">+</div>","null","750","","","","","","","","","","","","","","","","","","","","","","","","","","","","","","","","","",""
"","","","","","html-keyboard-response","81","140357","0.0-6.0-1.21","A2H2LO1OOF8R5N","2022-05-19T02:21:50.074Z","rhyme-task_switching-same_different-phon_sim","","null","rhyme","<img src=""square.png"" width=""306"" height=""306"" style=""position: fixed;left:14%;top:30%""><img src=""square.png"" width=""306"" height=""306"" style=""position: fixed;left:64%;top:30%"">","null","","","","","","","","","","","","","","","","","","","","","","","","","","","","","","","","","","",""
"","","","","","html-keyboard-response","82","141746","0.0-6.0-2.21","A2H2LO1OOF8R5N","2022-05-19T02:21:50.074Z","rhyme-task_switching-same_different-phon_sim","","1386.0999999940395","rhyme","<div style=""border: 3px solid #000000; position: fixed;left:14%;top:30%""><img src=""visual/plane.png"" width=""300""></div><div style=""border: 3px solid #000000; position: fixed;left:64%;top:30%""><img src=""visual/chain.png"" width=""300""></div>","arrowdown","","false","experiment","visual/plane.png","visual/chain.png","ArrowUp","non-ortho","","","","","","","","","","","","","","","","","","","","","","","","","","","",""
"","","","","","html-keyboard-response","83","142753","0.0-6.0-0.22","A2H2LO1OOF8R5N","2022-05-19T02:21:50.074Z","rhyme-task_switching-same_different-phon_sim","","null","rhyme","<div style=""font-size:60px;"">+</div>","null","1000","","","","","","","","","","","","","","","","","","","","","","","","","","","","","","","","","",""
"","","","","","html-keyboard-response","84","143260","0.0-6.0-1.22","A2H2LO1OOF8R5N","2022-05-19T02:21:50.074Z","rhyme-task_switching-same_different-phon_sim","","null","rhyme","<img src=""square.png"" width=""306"" height=""306"" style=""position: fixed;left:14%;top:30%""><img src=""square.png"" width=""306"" height=""306"" style=""position: fixed;left:64%;top:30%"">","null","","","","","","","","","","","","","","","","","","","","","","","","","","","","","","","","","","",""
"","","","","","html-keyboard-response","85","144581","0.0-6.0-2.22","A2H2LO1OOF8R5N","2022-05-19T02:21:50.074Z","rhyme-task_switching-same_different-phon_sim","","1318.9000000059605","rhyme","<div style=""border: 3px solid #000000; position: fixed;left:14%;top:30%""><img src=""visual/pope.png"" width=""300""></div><div style=""border: 3px solid #000000; position: fixed;left:64%;top:30%""><img src=""visual/soap.png"" width=""300""></div>","arrowup","","true","experiment","visual/pope.png","visual/soap.png","ArrowUp","non-ortho","","","","","","","","","","","","","","","","","","","","","","","","","","","",""
"","","","","","html-keyboard-response","86","145587","0.0-6.0-0.23","A2H2LO1OOF8R5N","2022-05-19T02:21:50.074Z","rhyme-task_switching-same_different-phon_sim","","null","rhyme","<div style=""font-size:60px;"">+</div>","null","1000","","","","","","","","","","","","","","","","","","","","","","","","","","","","","","","","","",""
"","","","","","html-keyboard-response","87","146093","0.0-6.0-1.23","A2H2LO1OOF8R5N","2022-05-19T02:21:50.074Z","rhyme-task_switching-same_different-phon_sim","","null","rhyme","<img src=""square.png"" width=""306"" height=""306"" style=""position: fixed;left:14%;top:30%""><img src=""square.png"" width=""306"" height=""306"" style=""position: fixed;left:64%;top:30%"">","null","","","","","","","","","","","","","","","","","","","","","","","","","","","","","","","","","","",""
"","","","","","html-keyboard-response","88","147656","0.0-6.0-2.23","A2H2LO1OOF8R5N","2022-05-19T02:21:50.074Z","rhyme-task_switching-same_different-phon_sim","","1559.1000000089407","rhyme","<div style=""border: 3px solid #000000; position: fixed;left:14%;top:30%""><img src=""visual/spoon.png"" width=""300""></div><div style=""border: 3px solid #000000; position: fixed;left:64%;top:30%""><img src=""visual/crab.png"" width=""300""></div>","arrowdown","","true","experiment","visual/spoon.png","visual/crab.png","ArrowDown","NR","","","","","","","","","","","","","","","","","","","","","","","","","","","",""
"","","","","","html-keyboard-response","89","147912","0.0-6.0-0.24","A2H2LO1OOF8R5N","2022-05-19T02:21:50.074Z","rhyme-task_switching-same_different-phon_sim","","null","rhyme","<div style=""font-size:60px;"">+</div>","null","250","","","","","","","","","","","","","","","","","","","","","","","","","","","","","","","","","",""
"","","","","","html-keyboard-response","90","148418","0.0-6.0-1.24","A2H2LO1OOF8R5N","2022-05-19T02:21:50.074Z","rhyme-task_switching-same_different-phon_sim","","null","rhyme","<img src=""square.png"" width=""306"" height=""306"" style=""position: fixed;left:14%;top:30%""><img src=""square.png"" width=""306"" height=""306"" style=""position: fixed;left:64%;top:30%"">","null","","","","","","","","","","","","","","","","","","","","","","","","","","","","","","","","","","",""
"","","","","","html-keyboard-response","91","149606","0.0-6.0-2.24","A2H2LO1OOF8R5N","2022-05-19T02:21:50.074Z","rhyme-task_switching-same_different-phon_sim","","1185.5999999940395","rhyme","<div style=""border: 3px solid #000000; position: fixed;left:14%;top:30%""><img src=""visual/chair.png"" width=""300""></div><div style=""border: 3px solid #000000; position: fixed;left:64%;top:30%""><img src=""visual/pear.png"" width=""300""></div>","arrowup","","true","experiment","visual/chair.png","visual/pear.png","ArrowUp","non-ortho","","","","","","","","","","","","","","","","","","","","","","","","","","","",""
"","","","","","html-keyboard-response","92","150110","0.0-6.0-0.25","A2H2LO1OOF8R5N","2022-05-19T02:21:50.074Z","rhyme-task_switching-same_different-phon_sim","","null","rhyme","<div style=""font-size:60px;"">+</div>","null","500","","","","","","","","","","","","","","","","","","","","","","","","","","","","","","","","","",""
"","","","","","html-keyboard-response","93","150617","0.0-6.0-1.25","A2H2LO1OOF8R5N","2022-05-19T02:21:50.074Z","rhyme-task_switching-same_different-phon_sim","","null","rhyme","<img src=""square.png"" width=""306"" height=""306"" style=""position: fixed;left:14%;top:30%""><img src=""square.png"" width=""306"" height=""306"" style=""position: fixed;left:64%;top:30%"">","null","","","","","","","","","","","","","","","","","","","","","","","","","","","","","","","","","","",""
"","","","","","html-keyboard-response","94","152045","0.0-6.0-2.25","A2H2LO1OOF8R5N","2022-05-19T02:21:50.074Z","rhyme-task_switching-same_different-phon_sim","","1424.5","rhyme","<div style=""border: 3px solid #000000; position: fixed;left:14%;top:30%""><img src=""visual/egg.png"" width=""300""></div><div style=""border: 3px solid #000000; position: fixed;left:64%;top:30%""><img src=""visual/ring.png"" width=""300""></div>","arrowdown","","true","experiment","visual/egg.png","visual/ring.png","ArrowDown","NR","","","","","","","","","","","","","","","","","","","","","","","","","","","",""
"","","","","","html-keyboard-response","95","152299","0.0-6.0-0.26","A2H2LO1OOF8R5N","2022-05-19T02:21:50.074Z","rhyme-task_switching-same_different-phon_sim","","null","rhyme","<div style=""font-size:60px;"">+</div>","null","250","","","","","","","","","","","","","","","","","","","","","","","","","","","","","","","","","",""
"","","","","","html-keyboard-response","96","152803","0.0-6.0-1.26","A2H2LO1OOF8R5N","2022-05-19T02:21:50.074Z","rhyme-task_switching-same_different-phon_sim","","null","rhyme","<img src=""square.png"" width=""306"" height=""306"" style=""position: fixed;left:14%;top:30%""><img src=""square.png"" width=""306"" height=""306"" style=""position: fixed;left:64%;top:30%"">","null","","","","","","","","","","","","","","","","","","","","","","","","","","","","","","","","","","",""
"","","","","","html-keyboard-response","97","156859","0.0-6.0-2.26","A2H2LO1OOF8R5N","2022-05-19T02:21:50.074Z","rhyme-task_switching-same_different-phon_sim","","4053.5","rhyme","<div style=""border: 3px solid #000000; position: fixed;left:14%;top:30%""><img src=""visual/bin.png"" width=""300""></div><div style=""border: 3px solid #000000; position: fixed;left:64%;top:30%""><img src=""visual/chin.png"" width=""300""></div>","arrowdown","","false","experiment","visual/bin.png","visual/chin.png","ArrowUp","ortho","","","","","","","","","","","","","","","","","","","","","","","","","","","",""
"","","","","","html-keyboard-response","98","157614","0.0-6.0-0.27","A2H2LO1OOF8R5N","2022-05-19T02:21:50.074Z","rhyme-task_switching-same_different-phon_sim","","null","rhyme","<div style=""font-size:60px;"">+</div>","null","750","","","","","","","","","","","","","","","","","","","","","","","","","","","","","","","","","",""
"","","","","","html-keyboard-response","99","158120","0.0-6.0-1.27","A2H2LO1OOF8R5N","2022-05-19T02:21:50.074Z","rhyme-task_switching-same_different-phon_sim","","null","rhyme","<img src=""square.png"" width=""306"" height=""306"" style=""position: fixed;left:14%;top:30%""><img src=""square.png"" width=""306"" height=""306"" style=""position: fixed;left:64%;top:30%"">","null","","","","","","","","","","","","","","","","","","","","","","","","","","","","","","","","","","",""
"","","","","","html-keyboard-response","100","160235","0.0-6.0-2.27","A2H2LO1OOF8R5N","2022-05-19T02:21:50.074Z","rhyme-task_switching-same_different-phon_sim","","2112.2000000029802","rhyme","<div style=""border: 3px solid #000000; position: fixed;left:14%;top:30%""><img src=""visual/shark.png"" width=""300""></div><div style=""border: 3px solid #000000; position: fixed;left:64%;top:30%""><img src=""visual/moon.png"" width=""300""></div>","arrowdown","","true","experiment","visual/shark.png","visual/moon.png","ArrowDown","NR","","","","","","","","","","","","","","","","","","","","","","","","","","","",""
"","","","","","html-keyboard-response","101","160492","0.0-6.0-0.28","A2H2LO1OOF8R5N","2022-05-19T02:21:50.074Z","rhyme-task_switching-same_different-phon_sim","","null","rhyme","<div style=""font-size:60px;"">+</div>","null","250","","","","","","","","","","","","","","","","","","","","","","","","","","","","","","","","","",""
"","","","","","html-keyboard-response","102","160999","0.0-6.0-1.28","A2H2LO1OOF8R5N","2022-05-19T02:21:50.074Z","rhyme-task_switching-same_different-phon_sim","","null","rhyme","<img src=""square.png"" width=""306"" height=""306"" style=""position: fixed;left:14%;top:30%""><img src=""square.png"" width=""306"" height=""306"" style=""position: fixed;left:64%;top:30%"">","null","","","","","","","","","","","","","","","","","","","","","","","","","","","","","","","","","","",""
"","","","","","html-keyboard-response","103","162666","0.0-6.0-2.28","A2H2LO1OOF8R5N","2022-05-19T02:21:50.074Z","rhyme-task_switching-same_different-phon_sim","","1665.2000000029802","rhyme","<div style=""border: 3px solid #000000; position: fixed;left:14%;top:30%""><img src=""visual/fly.png"" width=""300""></div><div style=""border: 3px solid #000000; position: fixed;left:64%;top:30%""><img src=""visual/plane.png"" width=""300""></div>","arrowup","","false","experiment","visual/fly.png","visual/plane.png","ArrowDown","NR","","","","","","","","","","","","","","","","","","","","","","","","","","","",""
"","","","","","html-keyboard-response","104","163673","0.0-6.0-0.29","A2H2LO1OOF8R5N","2022-05-19T02:21:50.074Z","rhyme-task_switching-same_different-phon_sim","","null","rhyme","<div style=""font-size:60px;"">+</div>","null","1000","","","","","","","","","","","","","","","","","","","","","","","","","","","","","","","","","",""
"","","","","","html-keyboard-response","105","164177","0.0-6.0-1.29","A2H2LO1OOF8R5N","2022-05-19T02:21:50.074Z","rhyme-task_switching-same_different-phon_sim","","null","rhyme","<img src=""square.png"" width=""306"" height=""306"" style=""position: fixed;left:14%;top:30%""><img src=""square.png"" width=""306"" height=""306"" style=""position: fixed;left:64%;top:30%"">","null","","","","","","","","","","","","","","","","","","","","","","","","","","","","","","","","","","",""
"","","","","","html-keyboard-response","106","167876","0.0-6.0-2.29","A2H2LO1OOF8R5N","2022-05-19T02:21:50.074Z","rhyme-task_switching-same_different-phon_sim","","3696","rhyme","<div style=""border: 3px solid #000000; position: fixed;left:14%;top:30%""><img src=""visual/fan.png"" width=""300""></div><div style=""border: 3px solid #000000; position: fixed;left:64%;top:30%""><img src=""visual/man.png"" width=""300""></div>","arrowup","","true","experiment","visual/fan.png","visual/man.png","ArrowUp","ortho","","","","","","","","","","","","","","","","","","","","","","","","","","","",""
"","","","","","html-keyboard-response","107","168129","0.0-6.0-0.30","A2H2LO1OOF8R5N","2022-05-19T02:21:50.074Z","rhyme-task_switching-same_different-phon_sim","","null","rhyme","<div style=""font-size:60px;"">+</div>","null","250","","","","","","","","","","","","","","","","","","","","","","","","","","","","","","","","","",""
"","","","","","html-keyboard-response","108","168636","0.0-6.0-1.30","A2H2LO1OOF8R5N","2022-05-19T02:21:50.074Z","rhyme-task_switching-same_different-phon_sim","","null","rhyme","<img src=""square.png"" width=""306"" height=""306"" style=""position: fixed;left:14%;top:30%""><img src=""square.png"" width=""306"" height=""306"" style=""position: fixed;left:64%;top:30%"">","null","","","","","","","","","","","","","","","","","","","","","","","","","","","","","","","","","","",""
"","","","","","html-keyboard-response","109","170072","0.0-6.0-2.30","A2H2LO1OOF8R5N","2022-05-19T02:21:50.074Z","rhyme-task_switching-same_different-phon_sim","","1433.0999999940395","rhyme","<div style=""border: 3px solid #000000; position: fixed;left:14%;top:30%""><img src=""visual/pear.png"" width=""300""></div><div style=""border: 3px solid #000000; position: fixed;left:64%;top:30%""><img src=""visual/rope.png"" width=""300""></div>","arrowdown","","true","experiment","visual/pear.png","visual/rope.png","ArrowDown","NR","","","","","","","","","","","","","","","","","","","","","","","","","","","",""
"","","","","","html-keyboard-response","110","171078","0.0-6.0-0.31","A2H2LO1OOF8R5N","2022-05-19T02:21:50.074Z","rhyme-task_switching-same_different-phon_sim","","null","rhyme","<div style=""font-size:60px;"">+</div>","null","1000","","","","","","","","","","","","","","","","","","","","","","","","","","","","","","","","","",""
"","","","","","html-keyboard-response","111","171584","0.0-6.0-1.31","A2H2LO1OOF8R5N","2022-05-19T02:21:50.074Z","rhyme-task_switching-same_different-phon_sim","","null","rhyme","<img src=""square.png"" width=""306"" height=""306"" style=""position: fixed;left:14%;top:30%""><img src=""square.png"" width=""306"" height=""306"" style=""position: fixed;left:64%;top:30%"">","null","","","","","","","","","","","","","","","","","","","","","","","","","","","","","","","","","","",""
"","","","","","html-keyboard-response","112","173129","0.0-6.0-2.31","A2H2LO1OOF8R5N","2022-05-19T02:21:50.074Z","rhyme-task_switching-same_different-phon_sim","","1542.0999999940395","rhyme","<div style=""border: 3px solid #000000; position: fixed;left:14%;top:30%""><img src=""visual/chain.png"" width=""300""></div><div style=""border: 3px solid #000000; position: fixed;left:64%;top:30%""><img src=""visual/brain.png"" width=""300""></div>","arrowup","","true","experiment","visual/chain.png","visual/brain.png","ArrowUp","ortho","","","","","","","","","","","","","","","","","","","","","","","","","","","",""
"","","","","","html-keyboard-response","113","173384","0.0-6.0-0.32","A2H2LO1OOF8R5N","2022-05-19T02:21:50.074Z","rhyme-task_switching-same_different-phon_sim","","null","rhyme","<div style=""font-size:60px;"">+</div>","null","250","","","","","","","","","","","","","","","","","","","","","","","","","","","","","","","","","",""
"","","","","","html-keyboard-response","114","173886","0.0-6.0-1.32","A2H2LO1OOF8R5N","2022-05-19T02:21:50.074Z","rhyme-task_switching-same_different-phon_sim","","null","rhyme","<img src=""square.png"" width=""306"" height=""306"" style=""position: fixed;left:14%;top:30%""><img src=""square.png"" width=""306"" height=""306"" style=""position: fixed;left:64%;top:30%"">","null","","","","","","","","","","","","","","","","","","","","","","","","","","","","","","","","","","",""
"","","","","","html-keyboard-response","115","175331","0.0-6.0-2.32","A2H2LO1OOF8R5N","2022-05-19T02:21:50.074Z","rhyme-task_switching-same_different-phon_sim","","1441.5","rhyme","<div style=""border: 3px solid #000000; position: fixed;left:14%;top:30%""><img src=""visual/egg.png"" width=""300""></div><div style=""border: 3px solid #000000; position: fixed;left:64%;top:30%""><img src=""visual/leg.png"" width=""300""></div>","arrowup","","true","experiment","visual/egg.png","visual/leg.png","ArrowUp","ortho","","","","","","","","","","","","","","","","","","","","","","","","","","","",""
"","","","","","html-keyboard-response","116","175583","0.0-6.0-0.33","A2H2LO1OOF8R5N","2022-05-19T02:21:50.074Z","rhyme-task_switching-same_different-phon_sim","","null","rhyme","<div style=""font-size:60px;"">+</div>","null","250","","","","","","","","","","","","","","","","","","","","","","","","","","","","","","","","","",""
"","","","","","html-keyboard-response","117","176087","0.0-6.0-1.33","A2H2LO1OOF8R5N","2022-05-19T02:21:50.074Z","rhyme-task_switching-same_different-phon_sim","","null","rhyme","<img src=""square.png"" width=""306"" height=""306"" style=""position: fixed;left:14%;top:30%""><img src=""square.png"" width=""306"" height=""306"" style=""position: fixed;left:64%;top:30%"">","null","","","","","","","","","","","","","","","","","","","","","","","","","","","","","","","","","","",""
"","","","","","html-keyboard-response","118","178305","0.0-6.0-2.33","A2H2LO1OOF8R5N","2022-05-19T02:21:50.074Z","rhyme-task_switching-same_different-phon_sim","","2214.4000000059605","rhyme","<div style=""border: 3px solid #000000; position: fixed;left:14%;top:30%""><img src=""visual/dart.png"" width=""300""></div><div style=""border: 3px solid #000000; position: fixed;left:64%;top:30%""><img src=""visual/tie.png"" width=""300""></div>","arrowdown","","true","experiment","visual/dart.png","visual/tie.png","ArrowDown","NR","","","","","","","","","","","","","","","","","","","","","","","","","","","",""
"","","","","","html-keyboard-response","119","179056","0.0-6.0-0.34","A2H2LO1OOF8R5N","2022-05-19T02:21:50.074Z","rhyme-task_switching-same_different-phon_sim","","null","rhyme","<div style=""font-size:60px;"">+</div>","null","750","","","","","","","","","","","","","","","","","","","","","","","","","","","","","","","","","",""
"","","","","","html-keyboard-response","120","179561","0.0-6.0-1.34","A2H2LO1OOF8R5N","2022-05-19T02:21:50.074Z","rhyme-task_switching-same_different-phon_sim","","null","rhyme","<img src=""square.png"" width=""306"" height=""306"" style=""position: fixed;left:14%;top:30%""><img src=""square.png"" width=""306"" height=""306"" style=""position: fixed;left:64%;top:30%"">","null","","","","","","","","","","","","","","","","","","","","","","","","","","","","","","","","","","",""
"","","","","","html-keyboard-response","121","183159","0.0-6.0-2.34","A2H2LO1OOF8R5N","2022-05-19T02:21:50.074Z","rhyme-task_switching-same_different-phon_sim","","3596.0999999940395","rhyme","<div style=""border: 3px solid #000000; position: fixed;left:14%;top:30%""><img src=""visual/wheel.png"" width=""300""></div><div style=""border: 3px solid #000000; position: fixed;left:64%;top:30%""><img src=""visual/seal.png"" width=""300""></div>","arrowup","","true","experiment","visual/wheel.png","visual/seal.png","ArrowUp","non-ortho","","","","","","","","","","","","","","","","","","","","","","","","","","","",""
"","","","","","html-keyboard-response","122","183414","0.0-6.0-0.35","A2H2LO1OOF8R5N","2022-05-19T02:21:50.074Z","rhyme-task_switching-same_different-phon_sim","","null","rhyme","<div style=""font-size:60px;"">+</div>","null","250","","","","","","","","","","","","","","","","","","","","","","","","","","","","","","","","","",""
"","","","","","html-keyboard-response","123","183919","0.0-6.0-1.35","A2H2LO1OOF8R5N","2022-05-19T02:21:50.074Z","rhyme-task_switching-same_different-phon_sim","","null","rhyme","<img src=""square.png"" width=""306"" height=""306"" style=""position: fixed;left:14%;top:30%""><img src=""square.png"" width=""306"" height=""306"" style=""position: fixed;left:64%;top:30%"">","null","","","","","","","","","","","","","","","","","","","","","","","","","","","","","","","","","","",""
"","","","","","html-keyboard-response","124","185341","0.0-6.0-2.35","A2H2LO1OOF8R5N","2022-05-19T02:21:50.074Z","rhyme-task_switching-same_different-phon_sim","","1418.699999988079","rhyme","<div style=""border: 3px solid #000000; position: fixed;left:14%;top:30%""><img src=""visual/tie.png"" width=""300""></div><div style=""border: 3px solid #000000; position: fixed;left:64%;top:30%""><img src=""visual/fly.png"" width=""300""></div>","arrowup","","true","experiment","visual/tie.png","visual/fly.png","ArrowUp","non-ortho","","","","","","","","","","","","","","","","","","","","","","","","","","","",""
"","","","","","html-keyboard-response","125","185846","0.0-6.0-0.36","A2H2LO1OOF8R5N","2022-05-19T02:21:50.074Z","rhyme-task_switching-same_different-phon_sim","","null","rhyme","<div style=""font-size:60px;"">+</div>","null","500","","","","","","","","","","","","","","","","","","","","","","","","","","","","","","","","","",""
"","","","","","html-keyboard-response","126","186349","0.0-6.0-1.36","A2H2LO1OOF8R5N","2022-05-19T02:21:50.074Z","rhyme-task_switching-same_different-phon_sim","","null","rhyme","<img src=""square.png"" width=""306"" height=""306"" style=""position: fixed;left:14%;top:30%""><img src=""square.png"" width=""306"" height=""306"" style=""position: fixed;left:64%;top:30%"">","null","","","","","","","","","","","","","","","","","","","","","","","","","","","","","","","","","","",""
"","","","","","html-keyboard-response","127","187829","0.0-6.0-2.36","A2H2LO1OOF8R5N","2022-05-19T02:21:50.074Z","rhyme-task_switching-same_different-phon_sim","","1476.7999999970198","rhyme","<div style=""border: 3px solid #000000; position: fixed;left:14%;top:30%""><img src=""visual/soap.png"" width=""300""></div><div style=""border: 3px solid #000000; position: fixed;left:64%;top:30%""><img src=""visual/shoe.png"" width=""300""></div>","arrowdown","","true","experiment","visual/soap.png","visual/shoe.png","ArrowDown","NR","","","","","","","","","","","","","","","","","","","","","","","","","","","",""
"","","","","","html-keyboard-response","128","188580","0.0-6.0-0.37","A2H2LO1OOF8R5N","2022-05-19T02:21:50.074Z","rhyme-task_switching-same_different-phon_sim","","null","rhyme","<div style=""font-size:60px;"">+</div>","null","750","","","","","","","","","","","","","","","","","","","","","","","","","","","","","","","","","",""
"","","","","","html-keyboard-response","129","189086","0.0-6.0-1.37","A2H2LO1OOF8R5N","2022-05-19T02:21:50.074Z","rhyme-task_switching-same_different-phon_sim","","null","rhyme","<img src=""square.png"" width=""306"" height=""306"" style=""position: fixed;left:14%;top:30%""><img src=""square.png"" width=""306"" height=""306"" style=""position: fixed;left:64%;top:30%"">","null","","","","","","","","","","","","","","","","","","","","","","","","","","","","","","","","","","",""
"","","","","","html-keyboard-response","130","191004","0.0-6.0-2.37","A2H2LO1OOF8R5N","2022-05-19T02:21:50.074Z","rhyme-task_switching-same_different-phon_sim","","1915.7999999970198","rhyme","<div style=""border: 3px solid #000000; position: fixed;left:14%;top:30%""><img src=""visual/rake.png"" width=""300""></div><div style=""border: 3px solid #000000; position: fixed;left:64%;top:30%""><img src=""visual/park.png"" width=""300""></div>","arrowdown","","true","experiment","visual/rake.png","visual/park.png","ArrowDown","NR","","","","","","","","","","","","","","","","","","","","","","","","","","","",""
"","","","","","html-keyboard-response","131","191505","0.0-6.0-0.38","A2H2LO1OOF8R5N","2022-05-19T02:21:50.074Z","rhyme-task_switching-same_different-phon_sim","","null","rhyme","<div style=""font-size:60px;"">+</div>","null","500","","","","","","","","","","","","","","","","","","","","","","","","","","","","","","","","","",""
"","","","","","html-keyboard-response","132","192008","0.0-6.0-1.38","A2H2LO1OOF8R5N","2022-05-19T02:21:50.074Z","rhyme-task_switching-same_different-phon_sim","","null","rhyme","<img src=""square.png"" width=""306"" height=""306"" style=""position: fixed;left:14%;top:30%""><img src=""square.png"" width=""306"" height=""306"" style=""position: fixed;left:64%;top:30%"">","null","","","","","","","","","","","","","","","","","","","","","","","","","","","","","","","","","","",""
"","","","","","html-keyboard-response","133","193465","0.0-6.0-2.38","A2H2LO1OOF8R5N","2022-05-19T02:21:50.074Z","rhyme-task_switching-same_different-phon_sim","","1453.2999999970198","rhyme","<div style=""border: 3px solid #000000; position: fixed;left:14%;top:30%""><img src=""visual/flag.png"" width=""300""></div><div style=""border: 3px solid #000000; position: fixed;left:64%;top:30%""><img src=""visual/bag.png"" width=""300""></div>","arrowup","","true","experiment","visual/flag.png","visual/bag.png","ArrowUp","ortho","","","","","","","","","","","","","","","","","","","","","","","","","","","",""
"","","","","","html-keyboard-response","134","194471","0.0-6.0-0.39","A2H2LO1OOF8R5N","2022-05-19T02:21:50.074Z","rhyme-task_switching-same_different-phon_sim","","null","rhyme","<div style=""font-size:60px;"">+</div>","null","1000","","","","","","","","","","","","","","","","","","","","","","","","","","","","","","","","","",""
"","","","","","html-keyboard-response","135","194978","0.0-6.0-1.39","A2H2LO1OOF8R5N","2022-05-19T02:21:50.074Z","rhyme-task_switching-same_different-phon_sim","","null","rhyme","<img src=""square.png"" width=""306"" height=""306"" style=""position: fixed;left:14%;top:30%""><img src=""square.png"" width=""306"" height=""306"" style=""position: fixed;left:64%;top:30%"">","null","","","","","","","","","","","","","","","","","","","","","","","","","","","","","","","","","","",""
"","","","","","html-keyboard-response","136","197049","0.0-6.0-2.39","A2H2LO1OOF8R5N","2022-05-19T02:21:50.074Z","rhyme-task_switching-same_different-phon_sim","","2067.7000000029802","rhyme","<div style=""border: 3px solid #000000; position: fixed;left:14%;top:30%""><img src=""visual/bear.png"" width=""300""></div><div style=""border: 3px solid #000000; position: fixed;left:64%;top:30%""><img src=""visual/crane.png"" width=""300""></div>","arrowdown","","true","experiment","visual/bear.png","visual/crane.png","ArrowDown","NR","","","","","","","","","","","","","","","","","","","","","","","","","","","",""
"","","","","","html-keyboard-response","137","198050","0.0-6.0-0.40","A2H2LO1OOF8R5N","2022-05-19T02:21:50.074Z","rhyme-task_switching-same_different-phon_sim","","null","rhyme","<div style=""font-size:60px;"">+</div>","null","1000","","","","","","","","","","","","","","","","","","","","","","","","","","","","","","","","","",""
"","","","","","html-keyboard-response","138","198557","0.0-6.0-1.40","A2H2LO1OOF8R5N","2022-05-19T02:21:50.074Z","rhyme-task_switching-same_different-phon_sim","","null","rhyme","<img src=""square.png"" width=""306"" height=""306"" style=""position: fixed;left:14%;top:30%""><img src=""square.png"" width=""306"" height=""306"" style=""position: fixed;left:64%;top:30%"">","null","","","","","","","","","","","","","","","","","","","","","","","","","","","","","","","","","","",""
"","","","","","html-keyboard-response","139","200238","0.0-6.0-2.40","A2H2LO1OOF8R5N","2022-05-19T02:21:50.074Z","rhyme-task_switching-same_different-phon_sim","","1677.0999999940395","rhyme","<div style=""border: 3px solid #000000; position: fixed;left:14%;top:30%""><img src=""visual/sock.png"" width=""300""></div><div style=""border: 3px solid #000000; position: fixed;left:64%;top:30%""><img src=""visual/clock.png"" width=""300""></div>","arrowup","","true","experiment","visual/sock.png","visual/clock.png","ArrowUp","ortho","","","","","","","","","","","","","","","","","","","","","","","","","","","",""
"","","","","","html-keyboard-response","140","201241","0.0-6.0-0.41","A2H2LO1OOF8R5N","2022-05-19T02:21:50.074Z","rhyme-task_switching-same_different-phon_sim","","null","rhyme","<div style=""font-size:60px;"">+</div>","null","1000","","","","","","","","","","","","","","","","","","","","","","","","","","","","","","","","","",""
"","","","","","html-keyboard-response","141","201748","0.0-6.0-1.41","A2H2LO1OOF8R5N","2022-05-19T02:21:50.074Z","rhyme-task_switching-same_different-phon_sim","","null","rhyme","<img src=""square.png"" width=""306"" height=""306"" style=""position: fixed;left:14%;top:30%""><img src=""square.png"" width=""306"" height=""306"" style=""position: fixed;left:64%;top:30%"">","null","","","","","","","","","","","","","","","","","","","","","","","","","","","","","","","","","","",""
"","","","","","html-keyboard-response","142","204081","0.0-6.0-2.41","A2H2LO1OOF8R5N","2022-05-19T02:21:50.074Z","rhyme-task_switching-same_different-phon_sim","","2329.2000000029802","rhyme","<div style=""border: 3px solid #000000; position: fixed;left:14%;top:30%""><img src=""visual/screw.png"" width=""300""></div><div style=""border: 3px solid #000000; position: fixed;left:64%;top:30%""><img src=""visual/shoe.png"" width=""300""></div>","arrowup","","true","experiment","visual/screw.png","visual/shoe.png","ArrowUp","non-ortho","","","","","","","","","","","","","","","","","","","","","","","","","","","",""
"","","","","","html-keyboard-response","143","204334","0.0-6.0-0.42","A2H2LO1OOF8R5N","2022-05-19T02:21:50.074Z","rhyme-task_switching-same_different-phon_sim","","null","rhyme","<div style=""font-size:60px;"">+</div>","null","250","","","","","","","","","","","","","","","","","","","","","","","","","","","","","","","","","",""
"","","","","","html-keyboard-response","144","204841","0.0-6.0-1.42","A2H2LO1OOF8R5N","2022-05-19T02:21:50.074Z","rhyme-task_switching-same_different-phon_sim","","null","rhyme","<img src=""square.png"" width=""306"" height=""306"" style=""position: fixed;left:14%;top:30%""><img src=""square.png"" width=""306"" height=""306"" style=""position: fixed;left:64%;top:30%"">","null","","","","","","","","","","","","","","","","","","","","","","","","","","","","","","","","","","",""
"","","","","","html-keyboard-response","145","209215","0.0-6.0-2.42","A2H2LO1OOF8R5N","2022-05-19T02:21:50.074Z","rhyme-task_switching-same_different-phon_sim","","4370.79999999702","rhyme","<div style=""border: 3px solid #000000; position: fixed;left:14%;top:30%""><img src=""visual/drawer.png"" width=""300""></div><div style=""border: 3px solid #000000; position: fixed;left:64%;top:30%""><img src=""visual/chair.png"" width=""300""></div>","arrowdown","","true","experiment","visual/drawer.png","visual/chair.png","ArrowDown","NR","","","","","","","","","","","","","","","","","","","","","","","","","","","",""
"","","","","","html-keyboard-response","146","209971","0.0-6.0-0.43","A2H2LO1OOF8R5N","2022-05-19T02:21:50.074Z","rhyme-task_switching-same_different-phon_sim","","null","rhyme","<div style=""font-size:60px;"">+</div>","null","750","","","","","","","","","","","","","","","","","","","","","","","","","","","","","","","","","",""
"","","","","","html-keyboard-response","147","210478","0.0-6.0-1.43","A2H2LO1OOF8R5N","2022-05-19T02:21:50.074Z","rhyme-task_switching-same_different-phon_sim","","null","rhyme","<img src=""square.png"" width=""306"" height=""306"" style=""position: fixed;left:14%;top:30%""><img src=""square.png"" width=""306"" height=""306"" style=""position: fixed;left:64%;top:30%"">","null","","","","","","","","","","","","","","","","","","","","","","","","","","","","","","","","","","",""
"","","","","","html-keyboard-response","148","214059","0.0-6.0-2.43","A2H2LO1OOF8R5N","2022-05-19T02:21:50.074Z","rhyme-task_switching-same_different-phon_sim","","3577.3999999910593","rhyme","<div style=""border: 3px solid #000000; position: fixed;left:14%;top:30%""><img src=""visual/drawer.png"" width=""300""></div><div style=""border: 3px solid #000000; position: fixed;left:64%;top:30%""><img src=""visual/door.png"" width=""300""></div>","arrowup","","true","experiment","visual/drawer.png","visual/door.png","ArrowUp","non-ortho","","","","","","","","","","","","","","","","","","","","","","","","","","","",""
"","","","","","html-keyboard-response","149","214816","0.0-6.0-0.44","A2H2LO1OOF8R5N","2022-05-19T02:21:50.074Z","rhyme-task_switching-same_different-phon_sim","","null","rhyme","<div style=""font-size:60px;"">+</div>","null","750","","","","","","","","","","","","","","","","","","","","","","","","","","","","","","","","","",""
"","","","","","html-keyboard-response","150","215320","0.0-6.0-1.44","A2H2LO1OOF8R5N","2022-05-19T02:21:50.074Z","rhyme-task_switching-same_different-phon_sim","","null","rhyme","<img src=""square.png"" width=""306"" height=""306"" style=""position: fixed;left:14%;top:30%""><img src=""square.png"" width=""306"" height=""306"" style=""position: fixed;left:64%;top:30%"">","null","","","","","","","","","","","","","","","","","","","","","","","","","","","","","","","","","","",""
"","","","","","html-keyboard-response","151","217094","0.0-6.0-2.44","A2H2LO1OOF8R5N","2022-05-19T02:21:50.074Z","rhyme-task_switching-same_different-phon_sim","","1770.2000000029802","rhyme","<div style=""border: 3px solid #000000; position: fixed;left:14%;top:30%""><img src=""visual/spoon.png"" width=""300""></div><div style=""border: 3px solid #000000; position: fixed;left:64%;top:30%""><img src=""visual/moon.png"" width=""300""></div>","arrowup","","true","experiment","visual/spoon.png","visual/moon.png","ArrowUp","ortho","","","","","","","","","","","","","","","","","","","","","","","","","","","",""
"","","","","","html-keyboard-response","152","217599","0.0-6.0-0.45","A2H2LO1OOF8R5N","2022-05-19T02:21:50.074Z","rhyme-task_switching-same_different-phon_sim","","null","rhyme","<div style=""font-size:60px;"">+</div>","null","500","","","","","","","","","","","","","","","","","","","","","","","","","","","","","","","","","",""
"","","","","","html-keyboard-response","153","218101","0.0-6.0-1.45","A2H2LO1OOF8R5N","2022-05-19T02:21:50.074Z","rhyme-task_switching-same_different-phon_sim","","null","rhyme","<img src=""square.png"" width=""306"" height=""306"" style=""position: fixed;left:14%;top:30%""><img src=""square.png"" width=""306"" height=""306"" style=""position: fixed;left:64%;top:30%"">","null","","","","","","","","","","","","","","","","","","","","","","","","","","","","","","","","","","",""
"","","","","","html-keyboard-response","154","220072","0.0-6.0-2.45","A2H2LO1OOF8R5N","2022-05-19T02:21:50.074Z","rhyme-task_switching-same_different-phon_sim","","1968.5","rhyme","<div style=""border: 3px solid #000000; position: fixed;left:14%;top:30%""><img src=""visual/nose.png"" width=""300""></div><div style=""border: 3px solid #000000; position: fixed;left:64%;top:30%""><img src=""visual/bell.png"" width=""300""></div>","arrowdown","","true","experiment","visual/nose.png","visual/bell.png","ArrowDown","NR","","","","","","","","","","","","","","","","","","","","","","","","","","","",""
"","","","","","html-keyboard-response","155","220829","0.0-6.0-0.46","A2H2LO1OOF8R5N","2022-05-19T02:21:50.074Z","rhyme-task_switching-same_different-phon_sim","","null","rhyme","<div style=""font-size:60px;"">+</div>","null","750","","","","","","","","","","","","","","","","","","","","","","","","","","","","","","","","","",""
"","","","","","html-keyboard-response","156","221334","0.0-6.0-1.46","A2H2LO1OOF8R5N","2022-05-19T02:21:50.074Z","rhyme-task_switching-same_different-phon_sim","","null","rhyme","<img src=""square.png"" width=""306"" height=""306"" style=""position: fixed;left:14%;top:30%""><img src=""square.png"" width=""306"" height=""306"" style=""position: fixed;left:64%;top:30%"">","null","","","","","","","","","","","","","","","","","","","","","","","","","","","","","","","","","","",""
"","","","","","html-keyboard-response","157","222811","0.0-6.0-2.46","A2H2LO1OOF8R5N","2022-05-19T02:21:50.074Z","rhyme-task_switching-same_different-phon_sim","","1476.4000000059605","rhyme","<div style=""border: 3px solid #000000; position: fixed;left:14%;top:30%""><img src=""visual/snail.png"" width=""300""></div><div style=""border: 3px solid #000000; position: fixed;left:64%;top:30%""><img src=""visual/whale.png"" width=""300""></div>","arrowup","","true","experiment","visual/snail.png","visual/whale.png","ArrowUp","non-ortho","","","","","","","","","","","","","","","","","","","","","","","","","","","",""
"","","","","","html-keyboard-response","158","223814","0.0-6.0-0.47","A2H2LO1OOF8R5N","2022-05-19T02:21:50.074Z","rhyme-task_switching-same_different-phon_sim","","null","rhyme","<div style=""font-size:60px;"">+</div>","null","1000","","","","","","","","","","","","","","","","","","","","","","","","","","","","","","","","","",""
"","","","","","html-keyboard-response","159","224320","0.0-6.0-1.47","A2H2LO1OOF8R5N","2022-05-19T02:21:50.074Z","rhyme-task_switching-same_different-phon_sim","","null","rhyme","<img src=""square.png"" width=""306"" height=""306"" style=""position: fixed;left:14%;top:30%""><img src=""square.png"" width=""306"" height=""306"" style=""position: fixed;left:64%;top:30%"">","null","","","","","","","","","","","","","","","","","","","","","","","","","","","","","","","","","","",""
"","","","","","html-keyboard-response","160","225332","0.0-6.0-2.47","A2H2LO1OOF8R5N","2022-05-19T02:21:50.074Z","rhyme-task_switching-same_different-phon_sim","","1009.1000000089407","rhyme","<div style=""border: 3px solid #000000; position: fixed;left:14%;top:30%""><img src=""visual/box.png"" width=""300""></div><div style=""border: 3px solid #000000; position: fixed;left:64%;top:30%""><img src=""visual/fox.png"" width=""300""></div>","arrowup","","true","experiment","visual/box.png","visual/fox.png","ArrowUp","ortho","","","","","","","","","","","","","","","","","","","","","","","","","","","",""
"","","","","","html-keyboard-response","161","226085","0.0-6.0-0.48","A2H2LO1OOF8R5N","2022-05-19T02:21:50.074Z","rhyme-task_switching-same_different-phon_sim","","null","rhyme","<div style=""font-size:60px;"">+</div>","null","750","","","","","","","","","","","","","","","","","","","","","","","","","","","","","","","","","",""
"","","","","","html-keyboard-response","162","226590","0.0-6.0-1.48","A2H2LO1OOF8R5N","2022-05-19T02:21:50.074Z","rhyme-task_switching-same_different-phon_sim","","null","rhyme","<img src=""square.png"" width=""306"" height=""306"" style=""position: fixed;left:14%;top:30%""><img src=""square.png"" width=""306"" height=""306"" style=""position: fixed;left:64%;top:30%"">","null","","","","","","","","","","","","","","","","","","","","","","","","","","","","","","","","","","",""
"","","","","","html-keyboard-response","163","228305","0.0-6.0-2.48","A2H2LO1OOF8R5N","2022-05-19T02:21:50.074Z","rhyme-task_switching-same_different-phon_sim","","1712.4000000059605","rhyme","<div style=""border: 3px solid #000000; position: fixed;left:14%;top:30%""><img src=""visual/well.png"" width=""300""></div><div style=""border: 3px solid #000000; position: fixed;left:64%;top:30%""><img src=""visual/rose.png"" width=""300""></div>","arrowdown","","true","experiment","visual/well.png","visual/rose.png","ArrowDown","NR","","","","","","","","","","","","","","","","","","","","","","","","","","","",""
"","","","","","html-keyboard-response","164","229311","0.0-6.0-0.49","A2H2LO1OOF8R5N","2022-05-19T02:21:50.074Z","rhyme-task_switching-same_different-phon_sim","","null","rhyme","<div style=""font-size:60px;"">+</div>","null","1000","","","","","","","","","","","","","","","","","","","","","","","","","","","","","","","","","",""
"","","","","","html-keyboard-response","165","229818","0.0-6.0-1.49","A2H2LO1OOF8R5N","2022-05-19T02:21:50.074Z","rhyme-task_switching-same_different-phon_sim","","null","rhyme","<img src=""square.png"" width=""306"" height=""306"" style=""position: fixed;left:14%;top:30%""><img src=""square.png"" width=""306"" height=""306"" style=""position: fixed;left:64%;top:30%"">","null","","","","","","","","","","","","","","","","","","","","","","","","","","","","","","","","","","",""
"","","","","","html-keyboard-response","166","231320","0.0-6.0-2.49","A2H2LO1OOF8R5N","2022-05-19T02:21:50.074Z","rhyme-task_switching-same_different-phon_sim","","1497.800000011921","rhyme","<div style=""border: 3px solid #000000; position: fixed;left:14%;top:30%""><img src=""visual/nail.png"" width=""300""></div><div style=""border: 3px solid #000000; position: fixed;left:64%;top:30%""><img src=""visual/whale.png"" width=""300""></div>","arrowup","","true","experiment","visual/nail.png","visual/whale.png","ArrowUp","non-ortho","","","","","","","","","","","","","","","","","","","","","","","","","","","",""
"","","","","","html-keyboard-response","167","231571","0.0-6.0-0.50","A2H2LO1OOF8R5N","2022-05-19T02:21:50.074Z","rhyme-task_switching-same_different-phon_sim","","null","rhyme","<div style=""font-size:60px;"">+</div>","null","250","","","","","","","","","","","","","","","","","","","","","","","","","","","","","","","","","",""
"","","","","","html-keyboard-response","168","232079","0.0-6.0-1.50","A2H2LO1OOF8R5N","2022-05-19T02:21:50.074Z","rhyme-task_switching-same_different-phon_sim","","null","rhyme","<img src=""square.png"" width=""306"" height=""306"" style=""position: fixed;left:14%;top:30%""><img src=""square.png"" width=""306"" height=""306"" style=""position: fixed;left:64%;top:30%"">","null","","","","","","","","","","","","","","","","","","","","","","","","","","","","","","","","","","",""
"","","","","","html-keyboard-response","169","233441","0.0-6.0-2.50","A2H2LO1OOF8R5N","2022-05-19T02:21:50.074Z","rhyme-task_switching-same_different-phon_sim","","1360","rhyme","<div style=""border: 3px solid #000000; position: fixed;left:14%;top:30%""><img src=""visual/rose.png"" width=""300""></div><div style=""border: 3px solid #000000; position: fixed;left:64%;top:30%""><img src=""visual/nose.png"" width=""300""></div>","arrowup","","true","experiment","visual/rose.png","visual/nose.png","ArrowUp","ortho","","","","","","","","","","","","","","","","","","","","","","","","","","","",""
"","","","","","html-keyboard-response","170","233944","0.0-6.0-0.51","A2H2LO1OOF8R5N","2022-05-19T02:21:50.074Z","rhyme-task_switching-same_different-phon_sim","","null","rhyme","<div style=""font-size:60px;"">+</div>","null","500","","","","","","","","","","","","","","","","","","","","","","","","","","","","","","","","","",""
"","","","","","html-keyboard-response","171","234447","0.0-6.0-1.51","A2H2LO1OOF8R5N","2022-05-19T02:21:50.074Z","rhyme-task_switching-same_different-phon_sim","","null","rhyme","<img src=""square.png"" width=""306"" height=""306"" style=""position: fixed;left:14%;top:30%""><img src=""square.png"" width=""306"" height=""306"" style=""position: fixed;left:64%;top:30%"">","null","","","","","","","","","","","","","","","","","","","","","","","","","","","","","","","","","","",""
"","","","","","html-keyboard-response","172","236430","0.0-6.0-2.51","A2H2LO1OOF8R5N","2022-05-19T02:21:50.074Z","rhyme-task_switching-same_different-phon_sim","","1982","rhyme","<div style=""border: 3px solid #000000; position: fixed;left:14%;top:30%""><img src=""visual/train.png"" width=""300""></div><div style=""border: 3px solid #000000; position: fixed;left:64%;top:30%""><img src=""visual/crane.png"" width=""300""></div>","arrowdown","","false","experiment","visual/train.png","visual/crane.png","ArrowUp","non-ortho","","","","","","","","","","","","","","","","","","","","","","","","","","","",""
"","","","","","html-keyboard-response","173","237432","0.0-6.0-0.52","A2H2LO1OOF8R5N","2022-05-19T02:21:50.074Z","rhyme-task_switching-same_different-phon_sim","","null","rhyme","<div style=""font-size:60px;"">+</div>","null","1000","","","","","","","","","","","","","","","","","","","","","","","","","","","","","","","","","",""
"","","","","","html-keyboard-response","174","237939","0.0-6.0-1.52","A2H2LO1OOF8R5N","2022-05-19T02:21:50.074Z","rhyme-task_switching-same_different-phon_sim","","null","rhyme","<img src=""square.png"" width=""306"" height=""306"" style=""position: fixed;left:14%;top:30%""><img src=""square.png"" width=""306"" height=""306"" style=""position: fixed;left:64%;top:30%"">","null","","","","","","","","","","","","","","","","","","","","","","","","","","","","","","","","","","",""
"","","","","","html-keyboard-response","175","240223","0.0-6.0-2.52","A2H2LO1OOF8R5N","2022-05-19T02:21:50.074Z","rhyme-task_switching-same_different-phon_sim","","2280.5999999940395","rhyme","<div style=""border: 3px solid #000000; position: fixed;left:14%;top:30%""><img src=""visual/brain.png"" width=""300""></div><div style=""border: 3px solid #000000; position: fixed;left:64%;top:30%""><img src=""visual/clock.png"" width=""300""></div>","arrowdown","","true","experiment","visual/brain.png","visual/clock.png","ArrowDown","NR","","","","","","","","","","","","","","","","","","","","","","","","","","","",""
"","","","","","html-keyboard-response","176","241228","0.0-6.0-0.53","A2H2LO1OOF8R5N","2022-05-19T02:21:50.074Z","rhyme-task_switching-same_different-phon_sim","","null","rhyme","<div style=""font-size:60px;"">+</div>","null","1000","","","","","","","","","","","","","","","","","","","","","","","","","","","","","","","","","",""
"","","","","","html-keyboard-response","177","241732","0.0-6.0-1.53","A2H2LO1OOF8R5N","2022-05-19T02:21:50.074Z","rhyme-task_switching-same_different-phon_sim","","null","rhyme","<img src=""square.png"" width=""306"" height=""306"" style=""position: fixed;left:14%;top:30%""><img src=""square.png"" width=""306"" height=""306"" style=""position: fixed;left:64%;top:30%"">","null","","","","","","","","","","","","","","","","","","","","","","","","","","","","","","","","","","",""
"","","","","","html-keyboard-response","178","243983","0.0-6.0-2.53","A2H2LO1OOF8R5N","2022-05-19T02:21:50.074Z","rhyme-task_switching-same_different-phon_sim","","2246.5","rhyme","<div style=""border: 3px solid #000000; position: fixed;left:14%;top:30%""><img src=""visual/well.png"" width=""300""></div><div style=""border: 3px solid #000000; position: fixed;left:64%;top:30%""><img src=""visual/bell.png"" width=""300""></div>","arrowdown","","false","experiment","visual/well.png","visual/bell.png","ArrowUp","ortho","","","","","","","","","","","","","","","","","","","","","","","","","","","",""
"","","","","","html-keyboard-response","179","244237","0.0-6.0-0.54","A2H2LO1OOF8R5N","2022-05-19T02:21:50.074Z","rhyme-task_switching-same_different-phon_sim","","null","rhyme","<div style=""font-size:60px;"">+</div>","null","250","","","","","","","","","","","","","","","","","","","","","","","","","","","","","","","","","",""
"","","","","","html-keyboard-response","180","244742","0.0-6.0-1.54","A2H2LO1OOF8R5N","2022-05-19T02:21:50.074Z","rhyme-task_switching-same_different-phon_sim","","null","rhyme","<img src=""square.png"" width=""306"" height=""306"" style=""position: fixed;left:14%;top:30%""><img src=""square.png"" width=""306"" height=""306"" style=""position: fixed;left:64%;top:30%"">","null","","","","","","","","","","","","","","","","","","","","","","","","","","","","","","","","","","",""
"","","","","","html-keyboard-response","181","249615","0.0-6.0-2.54","A2H2LO1OOF8R5N","2022-05-19T02:21:50.074Z","rhyme-task_switching-same_different-phon_sim","","4869.5","rhyme","<div style=""border: 3px solid #000000; position: fixed;left:14%;top:30%""><img src=""visual/king.png"" width=""300""></div><div style=""border: 3px solid #000000; position: fixed;left:64%;top:30%""><img src=""visual/cab.png"" width=""300""></div>","arrowdown","","true","experiment","visual/king.png","visual/cab.png","ArrowDown","NR","","","","","","","","","","","","","","","","","","","","","","","","","","","",""
"","","","","","html-keyboard-response","182","250117","0.0-6.0-0.55","A2H2LO1OOF8R5N","2022-05-19T02:21:50.074Z","rhyme-task_switching-same_different-phon_sim","","null","rhyme","<div style=""font-size:60px;"">+</div>","null","500","","","","","","","","","","","","","","","","","","","","","","","","","","","","","","","","","",""
"","","","","","html-keyboard-response","183","250622","0.0-6.0-1.55","A2H2LO1OOF8R5N","2022-05-19T02:21:50.074Z","rhyme-task_switching-same_different-phon_sim","","null","rhyme","<img src=""square.png"" width=""306"" height=""306"" style=""position: fixed;left:14%;top:30%""><img src=""square.png"" width=""306"" height=""306"" style=""position: fixed;left:64%;top:30%"">","null","","","","","","","","","","","","","","","","","","","","","","","","","","","","","","","","","","",""
"","","","","","html-keyboard-response","184","251697","0.0-6.0-2.55","A2H2LO1OOF8R5N","2022-05-19T02:21:50.074Z","rhyme-task_switching-same_different-phon_sim","","1071.6000000089407","rhyme","<div style=""border: 3px solid #000000; position: fixed;left:14%;top:30%""><img src=""visual/star.png"" width=""300""></div><div style=""border: 3px solid #000000; position: fixed;left:64%;top:30%""><img src=""visual/jar.png"" width=""300""></div>","arrowup","","true","experiment","visual/star.png","visual/jar.png","ArrowUp","ortho","","","","","","","","","","","","","","","","","","","","","","","","","","","",""
"","","","","","html-keyboard-response","185","251952","0.0-6.0-0.56","A2H2LO1OOF8R5N","2022-05-19T02:21:50.074Z","rhyme-task_switching-same_different-phon_sim","","null","rhyme","<div style=""font-size:60px;"">+</div>","null","250","","","","","","","","","","","","","","","","","","","","","","","","","","","","","","","","","",""
"","","","","","html-keyboard-response","186","252460","0.0-6.0-1.56","A2H2LO1OOF8R5N","2022-05-19T02:21:50.074Z","rhyme-task_switching-same_different-phon_sim","","null","rhyme","<img src=""square.png"" width=""306"" height=""306"" style=""position: fixed;left:14%;top:30%""><img src=""square.png"" width=""306"" height=""306"" style=""position: fixed;left:64%;top:30%"">","null","","","","","","","","","","","","","","","","","","","","","","","","","","","","","","","","","","",""
"","","","","","html-keyboard-response","187","254486","0.0-6.0-2.56","A2H2LO1OOF8R5N","2022-05-19T02:21:50.074Z","rhyme-task_switching-same_different-phon_sim","","2024","rhyme","<div style=""border: 3px solid #000000; position: fixed;left:14%;top:30%""><img src=""visual/cab.png"" width=""300""></div><div style=""border: 3px solid #000000; position: fixed;left:64%;top:30%""><img src=""visual/crab.png"" width=""300""></div>","arrowup","","true","experiment","visual/cab.png","visual/crab.png","ArrowUp","ortho","","","","","","","","","","","","","","","","","","","","","","","","","","","",""
"","","","","","html-keyboard-response","188","255243","0.0-6.0-0.57","A2H2LO1OOF8R5N","2022-05-19T02:21:50.074Z","rhyme-task_switching-same_different-phon_sim","","null","rhyme","<div style=""font-size:60px;"">+</div>","null","750","","","","","","","","","","","","","","","","","","","","","","","","","","","","","","","","","",""
"","","","","","html-keyboard-response","189","255745","0.0-6.0-1.57","A2H2LO1OOF8R5N","2022-05-19T02:21:50.074Z","rhyme-task_switching-same_different-phon_sim","","null","rhyme","<img src=""square.png"" width=""306"" height=""306"" style=""position: fixed;left:14%;top:30%""><img src=""square.png"" width=""306"" height=""306"" style=""position: fixed;left:64%;top:30%"">","null","","","","","","","","","","","","","","","","","","","","","","","","","","","","","","","","","","",""
"","","","","","html-keyboard-response","190","256900","0.0-6.0-2.57","A2H2LO1OOF8R5N","2022-05-19T02:21:50.074Z","rhyme-task_switching-same_different-phon_sim","","1150.9000000059605","rhyme","<div style=""border: 3px solid #000000; position: fixed;left:14%;top:30%""><img src=""visual/dart.png"" width=""300""></div><div style=""border: 3px solid #000000; position: fixed;left:64%;top:30%""><img src=""visual/heart.png"" width=""300""></div>","arrowup","","true","experiment","visual/dart.png","visual/heart.png","ArrowUp","non-ortho","","","","","","","","","","","","","","","","","","","","","","","","","","","",""
"","","","","","html-keyboard-response","191","257405","0.0-6.0-0.58","A2H2LO1OOF8R5N","2022-05-19T02:21:50.074Z","rhyme-task_switching-same_different-phon_sim","","null","rhyme","<div style=""font-size:60px;"">+</div>","null","500","","","","","","","","","","","","","","","","","","","","","","","","","","","","","","","","","",""
"","","","","","html-keyboard-response","192","257909","0.0-6.0-1.58","A2H2LO1OOF8R5N","2022-05-19T02:21:50.074Z","rhyme-task_switching-same_different-phon_sim","","null","rhyme","<img src=""square.png"" width=""306"" height=""306"" style=""position: fixed;left:14%;top:30%""><img src=""square.png"" width=""306"" height=""306"" style=""position: fixed;left:64%;top:30%"">","null","","","","","","","","","","","","","","","","","","","","","","","","","","","","","","","","","","",""
"","","","","","html-keyboard-response","193","259622","0.0-6.0-2.58","A2H2LO1OOF8R5N","2022-05-19T02:21:50.074Z","rhyme-task_switching-same_different-phon_sim","","1710.7000000029802","rhyme","<div style=""border: 3px solid #000000; position: fixed;left:14%;top:30%""><img src=""visual/drum.png"" width=""300""></div><div style=""border: 3px solid #000000; position: fixed;left:64%;top:30%""><img src=""visual/thumb.png"" width=""300""></div>","arrowup","","true","experiment","visual/drum.png","visual/thumb.png","ArrowUp","non-ortho","","","","","","","","","","","","","","","","","","","","","","","","","","","",""
"","","","","","html-keyboard-response","194","260375","0.0-6.0-0.59","A2H2LO1OOF8R5N","2022-05-19T02:21:50.074Z","rhyme-task_switching-same_different-phon_sim","","null","rhyme","<div style=""font-size:60px;"">+</div>","null","750","","","","","","","","","","","","","","","","","","","","","","","","","","","","","","","","","",""
"","","","","","html-keyboard-response","195","260882","0.0-6.0-1.59","A2H2LO1OOF8R5N","2022-05-19T02:21:50.074Z","rhyme-task_switching-same_different-phon_sim","","null","rhyme","<img src=""square.png"" width=""306"" height=""306"" style=""position: fixed;left:14%;top:30%""><img src=""square.png"" width=""306"" height=""306"" style=""position: fixed;left:64%;top:30%"">","null","","","","","","","","","","","","","","","","","","","","","","","","","","","","","","","","","","",""
"","","","","","html-keyboard-response","196","262731","0.0-6.0-2.59","A2H2LO1OOF8R5N","2022-05-19T02:21:50.074Z","rhyme-task_switching-same_different-phon_sim","","1846.6000000089407","rhyme","<div style=""border: 3px solid #000000; position: fixed;left:14%;top:30%""><img src=""visual/saw.png"" width=""300""></div><div style=""border: 3px solid #000000; position: fixed;left:64%;top:30%""><img src=""visual/claw.png"" width=""300""></div>","arrowup","","true","experiment","visual/saw.png","visual/claw.png","ArrowUp","ortho","","","","","","","","","","","","","","","","","","","","","","","","","","","",""
"","","","","","survey-multi-choice","197","268808","0.0-7.0","A2H2LO1OOF8R5N","2022-05-19T02:21:50.074Z","rhyme-task_switching-same_different-phon_sim","","6073.199999988079","rhyme","","{""Q0"":""No""}","","","","","","","","[0]","No","","","","","","","","","","","","","","","","","","","","","","","","","",""
"","","","","","survey-text","198","289307","0.0-8.0","A2H2LO1OOF8R5N","2022-05-19T02:21:50.074Z","rhyme-task_switching-same_different-phon_sim","","20494.20000000298","rhyme","","{""Q0"":""I mentally \""stated\"" the words as a pair.""}","","","","","","","","","","I mentally ""stated"" the words as a pair.","","","","","","","","","","","","","","","","","","","","","","","","",""
"","","","","","instructions","199","290890","0.0-9.0","A2H2LO1OOF8R5N","2022-05-19T02:21:50.074Z","rhyme-task_switching-same_different-phon_sim","[{""page_index"":0,""viewing_time"":1580.2000000029802}]","1580.5999999940395","rhyme","","","","","","","","","","","","","","","","","","","","","","","","","","","","","","","","","","","","",""
"","","","","","instructions","200","364923","0.0-10.0","A2H2LO1OOF8R5N","2022-05-19T02:21:50.074Z","rhyme-task_switching-same_different-phon_sim","[{""page_index"":0,""viewing_time"":74032.79999999702}]","74033.39999999106","task_switching","","","","","","","","","","","","","","","","","","","","","","","","","","","","","","","","","","","","",""
"","","","","","instructions","201","369858","0.0-11.0","A2H2LO1OOF8R5N","2022-05-19T02:21:50.074Z","rhyme-task_switching-same_different-phon_sim","[{""page_index"":0,""viewing_time"":4931.4000000059605}]","4931.9000000059605","task_switching","","","","","","","","","","","","","","","","","","","","","","","","","","","","","","","","","","","","",""
"","","","","","survey-text","202","380909","0.0-12.0","A2H2LO1OOF8R5N","2022-05-19T02:21:50.074Z","rhyme-task_switching-same_different-phon_sim","","11047","task_switching","68","{""subtraction_ans"":""65""}","","true","training","","","","","","","","subtraction","65","subtract","","","","","","","","","","","","","","","","","","","","","",""
"","","","","","html-keyboard-response","203","381918","0.0-13.0","A2H2LO1OOF8R5N","2022-05-19T02:21:50.074Z","rhyme-task_switching-same_different-phon_sim","","null","task_switching","<div style=""color:darkgreen; font-size:60px"">Well done!</div>","null","","","training","","","","","","","","subtraction","","","","","","","","","","","","","","","","","","","","","","","",""
"","","","","","survey-text","204","387925","0.0-14.0","A2H2LO1OOF8R5N","2022-05-19T02:21:50.074Z","rhyme-task_switching-same_different-phon_sim","","6002.4000000059605","task_switching","41","{""subtraction_ans"":""39""}","","false","training","","","","","","","","subtraction","39","subtract","","","","","","","","","","","","","","","","","","","","","",""
"","","","","","html-keyboard-response","205","392931","0.0-15.0","A2H2LO1OOF8R5N","2022-05-19T02:21:50.074Z","rhyme-task_switching-same_different-phon_sim","","null","task_switching","<div style=""color:darkred; font-size:40px"">Right direction but be careful with the numbers.<p> Correct answer: 38</p></div>","null","","","training","","","","","","","","subtraction","","","","","","","","","","","","","","","","","","","","","","","",""
"","","","","","survey-text","206","398425","0.0-16.0","A2H2LO1OOF8R5N","2022-05-19T02:21:50.074Z","rhyme-task_switching-same_different-phon_sim","","5490","task_switching","21","{""subtraction_ans"":""18""}","","true","training","","","","","","","","subtraction","18","subtract","","","","","","","","","","","","","","","","","","","","","",""
"","","","","","html-keyboard-response","207","399428","0.0-17.0","A2H2LO1OOF8R5N","2022-05-19T02:21:50.074Z","rhyme-task_switching-same_different-phon_sim","","null","task_switching","<div style=""color:darkgreen; font-size:60px"">Well done!</div>","null","","","training","","","","","","","","subtraction","","","","","","","","","","","","","","","","","","","","","","","",""
"","","","","","survey-text","208","402542","0.0-18.0","A2H2LO1OOF8R5N","2022-05-19T02:21:50.074Z","rhyme-task_switching-same_different-phon_sim","","3109.7000000029802","task_switching","56","{""subtraction_ans"":""53""}","","true","training","","","","","","","","subtraction","53","subtract","","","","","","","","","","","","","","","","","","","","","",""
"","","","","","html-keyboard-response","209","403545","0.0-19.0","A2H2LO1OOF8R5N","2022-05-19T02:21:50.074Z","rhyme-task_switching-same_different-phon_sim","","null","task_switching","<div style=""color:darkgreen; font-size:60px"">Well done!</div>","null","","","training","","","","","","","","subtraction","","","","","","","","","","","","","","","","","","","","","","","",""
"","","","","","survey-text","210","406275","0.0-20.0","A2H2LO1OOF8R5N","2022-05-19T02:21:50.074Z","rhyme-task_switching-same_different-phon_sim","","2725.9000000059605","task_switching","65","{""subtraction_ans"":""62""}","","true","training","","","","","","","","subtraction","62","subtract","","","","","","","","","","","","","","","","","","","","","",""
"","","","","","html-keyboard-response","211","407282","0.0-21.0","A2H2LO1OOF8R5N","2022-05-19T02:21:50.074Z","rhyme-task_switching-same_different-phon_sim","","null","task_switching","<div style=""color:darkgreen; font-size:60px"">Well done!</div>","null","","","training","","","","","","","","subtraction","","","","","","","","","","","","","","","","","","","","","","","",""
"","","","","","survey-text","212","412026","0.0-22.0","A2H2LO1OOF8R5N","2022-05-19T02:21:50.074Z","rhyme-task_switching-same_different-phon_sim","","4739.79999999702","task_switching","27","{""subtraction_ans"":""24""}","","true","training","","","","","","","","subtraction","24","subtract","","","","","","","","","","","","","","","","","","","","","",""
