"success","timeout","failed_images","failed_audio","failed_video","trial_type","trial_index","time_elapsed","internal_node_id","worker_id","start_time","experiment_order","view_history","rt","experiment","stimulus","response","phase","word_1","word_2","word_3","word_4","word_5","original_word_set","response_1","response_2","response_3","response_4","response_5","question_order","talk_out_loud","strategy_free_ans","condition","answer","correct","operation","color_cue","trial_no","symbol_cue","wait_time","image_1","image_2","cor_key","type","judgment_type","stim_1","stim_2","inverted","true_neg","true_pos","false_pos","false_neg"
"true","false","[]","[]","[]","preload","0","7012","0.0-0.0","A1KOBLL83SICGQ","2022-05-27T16:17:54.437Z","phon_sim-task_switching-rhyme-same_different","","","","","","","","","","","","","","","","","","","","","","","","","","","","","","","","","","","","","","","",""
"","","","","","instructions","1","197475","0.0-1.0","A1KOBLL83SICGQ","2022-05-27T16:17:54.437Z","phon_sim-task_switching-rhyme-same_different","[{""page_index"":0,""viewing_time"":190460.60000002384}]","190461.20000004768","","","","","","","","","","","","","","","","","","","","","","","","","","","","","","","","","","","","","",""
"true","","","","","fullscreen","2","206813","0.0-2.0","A1KOBLL83SICGQ","2022-05-27T16:17:54.437Z","phon_sim-task_switching-rhyme-same_different","","","","","","","","","","","","","","","","","","","","","","","","","","","","","","","","","","","","","","","",""
"","","","","","instructions","3","752159","0.0-3.0","A1KOBLL83SICGQ","2022-05-27T16:17:54.437Z","phon_sim-task_switching-rhyme-same_different","[{""page_index"":0,""viewing_time"":545344.3999999762}]","545344.8000000715","phon_sim","","","","","","","","","","","","","","","","","","","","","","","","","","","","","","","","","","","","",""
"","","","","","html-keyboard-response","4","765166","0.0-4.0-0.0","A1KOBLL83SICGQ","2022-05-27T16:17:54.437Z","phon_sim-task_switching-rhyme-same_different","","null","phon_sim","<div style=""display:grid""><h1 id=""word_1"" style=""grid-column:1; grid-row:1"">mad</h1><h1 id=""word_2"" style=""visibility:hidden;grid-column:1; grid-row:1"">man</h1><h1 id=""word_3"" style=""visibility:hidden;grid-column:1; grid-row:1"">map</h1><h1 id=""word_4"" style=""visibility:hidden;grid-column:1; grid-row:1"">mat</h1><h1 id=""word_5"" style=""visibility:hidden;grid-column:1; grid-row:1"">max</h1></div>","null","training","mad","man","map","mat","max","training","","","","","","","","","","","","","","","","","","","","","","","","","","","",""
"","","","","","survey-text","5","809470","0.0-4.0-1.0","A1KOBLL83SICGQ","2022-05-27T16:17:54.437Z","phon_sim-task_switching-rhyme-same_different","","44297.39999997616","phon_sim","","{""position_1"":""mad"",""position_2"":""man"",""position_3"":""map"",""position_4"":""mat"",""position_5"":""max""}","training","","","","","","","mad","man","map","mat","max","","","","","","","","","","","","","","","","","","","","","","",""
"","","","","","html-keyboard-response","6","814473","0.0-4.0-2.0","A1KOBLL83SICGQ","2022-05-27T16:17:54.437Z","phon_sim-task_switching-rhyme-same_different","","null","phon_sim","<h1 id=""word_1"">mad</h1><h1 id=""word_2"">man</h1><h1 id=""word_3"">map</h1><h1 id=""word_4"">mat</h1><h1 id=""word_5"">max</h1>","null","","","","","","","","","","","","","","","","","","","","","","","","","","","","","","","","","","",""
"","","","","","html-keyboard-response","7","827479","0.0-4.0-0.1","A1KOBLL83SICGQ","2022-05-27T16:17:54.437Z","phon_sim-task_switching-rhyme-same_different","","null","phon_sim","<div style=""display:grid""><h1 id=""word_1"" style=""grid-column:1; grid-row:1"">pen</h1><h1 id=""word_2"" style=""visibility:hidden;grid-column:1; grid-row:1"">rig</h1><h1 id=""word_3"" style=""visibility:hidden;grid-column:1; grid-row:1"">day</h1><h1 id=""word_4"" style=""visibility:hidden;grid-column:1; grid-row:1"">bar</h1><h1 id=""word_5"" style=""visibility:hidden;grid-column:1; grid-row:1"">cow</h1></div>","null","training","pen","rig","day","bar","cow","training","","","","","","","","","","","","","","","","","","","","","","","","","","","",""
"","","","","","survey-text","8","1024957","0.0-4.0-1.1","A1KOBLL83SICGQ","2022-05-27T16:17:54.437Z","phon_sim-task_switching-rhyme-same_different","","197472.5","phon_sim","","{""position_1"":""pen"",""position_2"":""rig"",""position_3"":""cow"",""position_4"":""bar"",""position_5"":""day""}","training","","","","","","","pen","rig","cow","bar","day","","","","","","","","","","","","","","","","","","","","","","",""
"","","","","","html-keyboard-response","9","1029973","0.0-4.0-2.1","A1KOBLL83SICGQ","2022-05-27T16:17:54.437Z","phon_sim-task_switching-rhyme-same_different","","null","phon_sim","<h1 id=""word_1"">pen</h1><h1 id=""word_2"">rig</h1><h1 id=""word_3"">day</h1><h1 id=""word_4"">bar</h1><h1 id=""word_5"">cow</h1>","null","","","","","","","","","","","","","","","","","","","","","","","","","","","","","","","","","","",""
"","","","","","instructions","10","1037019","0.0-5.0","A1KOBLL83SICGQ","2022-05-27T16:17:54.437Z","phon_sim-task_switching-rhyme-same_different","[{""page_index"":0,""viewing_time"":7045.300000071526}]","7045.600000023842","","","","","","","","","","","","","","","","","","","","","","","","","","","","","","","","","","","","","",""
"","","","","","html-keyboard-response","11","1050039","0.0-6.0-0.0","A1KOBLL83SICGQ","2022-05-27T16:17:54.437Z","phon_sim-task_switching-rhyme-same_different","","null","phon_sim","<div style=""display:grid""><h1 id=""word_1"" style=""grid-column:1; grid-row:1"">dough</h1><h1 id=""word_2"" style=""visibility:hidden;grid-column:1; grid-row:1"">through</h1><h1 id=""word_3"" style=""visibility:hidden;grid-column:1; grid-row:1"">bough</h1><h1 id=""word_4"" style=""visibility:hidden;grid-column:1; grid-row:1"">rough</h1><h1 id=""word_5"" style=""visibility:hidden;grid-column:1; grid-row:1"">cough</h1></div>","null","experiment","dough","through","bough","rough","cough","orthoSet","","","","","","","","","","","","","","","","","","","","","","","","","","","",""
"","","","","","survey-text","12","1146724","0.0-6.0-1.0","A1KOBLL83SICGQ","2022-05-27T16:17:54.437Z","phon_sim-task_switching-rhyme-same_different","","96675.79999995232","phon_sim","","{""position_1"":""thought"",""position_2"":""through"",""position_3"":""bough"",""position_4"":""rough"",""position_5"":""cough""}","experiment","","","","","","","thought","through","bough","rough","cough","","","","","","","","","","","","","","","","","","","","","","",""
"","","","","","html-keyboard-response","13","1159742","0.0-6.0-0.1","A1KOBLL83SICGQ","2022-05-27T16:17:54.437Z","phon_sim-task_switching-rhyme-same_different","","null","phon_sim","<div style=""display:grid""><h1 id=""word_1"" style=""grid-column:1; grid-row:1"">sleigh</h1><h1 id=""word_2"" style=""visibility:hidden;grid-column:1; grid-row:1"">plea</h1><h1 id=""word_3"" style=""visibility:hidden;grid-column:1; grid-row:1"">board</h1><h1 id=""word_4"" style=""visibility:hidden;grid-column:1; grid-row:1"">row</h1><h1 id=""word_5"" style=""visibility:hidden;grid-column:1; grid-row:1"">friend</h1></div>","null","experiment","sleigh","plea","board","row","friend","controlSet","","","","","","","","","","","","","","","","","","","","","","","","","","","",""
"","","","","","survey-text","14","1315379","0.0-6.0-1.1","A1KOBLL83SICGQ","2022-05-27T16:17:54.437Z","phon_sim-task_switching-rhyme-same_different","","155629.09999990463","phon_sim","","{""position_1"":"""",""position_2"":""plea"",""position_3"":""board"",""position_4"":""row"",""position_5"":""friend""}","experiment","","","","","","","","plea","board","row","friend","","","","","","","","","","","","","","","","","","","","","","",""
"","","","","","html-keyboard-response","15","1328385","0.0-6.0-0.2","A1KOBLL83SICGQ","2022-05-27T16:17:54.437Z","phon_sim-task_switching-rhyme-same_different","","null","phon_sim","<div style=""display:grid""><h1 id=""word_1"" style=""grid-column:1; grid-row:1"">dough</h1><h1 id=""word_2"" style=""visibility:hidden;grid-column:1; grid-row:1"">rough</h1><h1 id=""word_3"" style=""visibility:hidden;grid-column:1; grid-row:1"">through</h1><h1 id=""word_4"" style=""visibility:hidden;grid-column:1; grid-row:1"">bough</h1><h1 id=""word_5"" style=""visibility:hidden;grid-column:1; grid-row:1"">cough</h1></div>","null","experiment","dough","rough","through","bough","cough","orthoSet","","","","","","","","","","","","","","","","","","","","","","","","","","","",""
"","","","","","survey-text","16","1531273","0.0-6.0-1.2","A1KOBLL83SICGQ","2022-05-27T16:17:54.437Z","phon_sim-task_switching-rhyme-same_different","","202879","phon_sim","","{""position_1"":""dough"",""position_2"":""rough"",""position_3"":""through"",""position_4"":""bough"",""position_5"":""cough""}","experiment","","","","","","","dough","rough","through","bough","cough","","","","","","","","","","","","","","","","","","","","","","",""
"","","","","","html-keyboard-response","17","1544290","0.0-6.0-0.3","A1KOBLL83SICGQ","2022-05-27T16:17:54.437Z","phon_sim-task_switching-rhyme-same_different","","null","phon_sim","<div style=""display:grid""><h1 id=""word_1"" style=""grid-column:1; grid-row:1"">sleigh</h1><h1 id=""word_2"" style=""visibility:hidden;grid-column:1; grid-row:1"">friend</h1><h1 id=""word_3"" style=""visibility:hidden;grid-column:1; grid-row:1"">plea</h1><h1 id=""word_4"" style=""visibility:hidden;grid-column:1; grid-row:1"">board</h1><h1 id=""word_5"" style=""visibility:hidden;grid-column:1; grid-row:1"">row</h1></div>","null","experiment","sleigh","friend","plea","board","row","controlSet","","","","","","","","","","","","","","","","","","","","","","","","","","","",""
"","","","","","survey-text","18","1600768","0.0-6.0-1.3","A1KOBLL83SICGQ","2022-05-27T16:17:54.437Z","phon_sim-task_switching-rhyme-same_different","","56471.700000047684","phon_sim","","{""position_1"":""sleigh"",""position_2"":""friend"",""position_3"":""plea"",""position_4"":""board"",""position_5"":""row""}","experiment","","","","","","","sleigh","friend","plea","board","row","","","","","","","","","","","","","","","","","","","","","","",""
"","","","","","html-keyboard-response","19","1613776","0.0-6.0-0.4","A1KOBLL83SICGQ","2022-05-27T16:17:54.437Z","phon_sim-task_switching-rhyme-same_different","","null","phon_sim","<div style=""display:grid""><h1 id=""word_1"" style=""grid-column:1; grid-row:1"">bought</h1><h1 id=""word_2"" style=""visibility:hidden;grid-column:1; grid-row:1"">caught</h1><h1 id=""word_3"" style=""visibility:hidden;grid-column:1; grid-row:1"">wart</h1><h1 id=""word_4"" style=""visibility:hidden;grid-column:1; grid-row:1"">sort</h1><h1 id=""word_5"" style=""visibility:hidden;grid-column:1; grid-row:1"">taut</h1></div>","null","experiment","bought","caught","wart","sort","taut","phonSet","","","","","","","","","","","","","","","","","","","","","","","","","","","",""
"","","","","","survey-text","20","1673935","0.0-6.0-1.4","A1KOBLL83SICGQ","2022-05-27T16:17:54.437Z","phon_sim-task_switching-rhyme-same_different","","60148.700000047684","phon_sim","","{""position_1"":""bought"",""position_2"":""caught"",""position_3"":""wart"",""position_4"":""sort"",""position_5"":""taut""}","experiment","","","","","","","bought","caught","wart","sort","taut","","","","","","","","","","","","","","","","","","","","","","",""
"","","","","","html-keyboard-response","21","1686943","0.0-6.0-0.5","A1KOBLL83SICGQ","2022-05-27T16:17:54.437Z","phon_sim-task_switching-rhyme-same_different","","null","phon_sim","<div style=""display:grid""><h1 id=""word_1"" style=""grid-column:1; grid-row:1"">through</h1><h1 id=""word_2"" style=""visibility:hidden;grid-column:1; grid-row:1"">cough</h1><h1 id=""word_3"" style=""visibility:hidden;grid-column:1; grid-row:1"">rough</h1><h1 id=""word_4"" style=""visibility:hidden;grid-column:1; grid-row:1"">dough</h1><h1 id=""word_5"" style=""visibility:hidden;grid-column:1; grid-row:1"">bough</h1></div>","null","experiment","through","cough","rough","dough","bough","orthoSet","","","","","","","","","","","","","","","","","","","","","","","","","","","",""
"","","","","","survey-text","22","1924670","0.0-6.0-1.5","A1KOBLL83SICGQ","2022-05-27T16:17:54.437Z","phon_sim-task_switching-rhyme-same_different","","237718.79999995232","phon_sim","","{""position_1"":""through"",""position_2"":""cough"",""position_3"":""rough"",""position_4"":""dough"",""position_5"":""bough""}","experiment","","","","","","","through","cough","rough","dough","bough","","","","","","","","","","","","","","","","","","","","","","",""
"","","","","","html-keyboard-response","23","1937689","0.0-6.0-0.6","A1KOBLL83SICGQ","2022-05-27T16:17:54.437Z","phon_sim-task_switching-rhyme-same_different","","null","phon_sim","<div style=""display:grid""><h1 id=""word_1"" style=""grid-column:1; grid-row:1"">board</h1><h1 id=""word_2"" style=""visibility:hidden;grid-column:1; grid-row:1"">sleigh</h1><h1 id=""word_3"" style=""visibility:hidden;grid-column:1; grid-row:1"">friend</h1><h1 id=""word_4"" style=""visibility:hidden;grid-column:1; grid-row:1"">row</h1><h1 id=""word_5"" style=""visibility:hidden;grid-column:1; grid-row:1"">plea</h1></div>","null","experiment","board","sleigh","friend","row","plea","controlSet","","","","","","","","","","","","","","","","","","","","","","","","","","","",""
"","","","","","survey-text","24","1991573","0.0-6.0-1.6","A1KOBLL83SICGQ","2022-05-27T16:17:54.437Z","phon_sim-task_switching-rhyme-same_different","","53879.800000071526","phon_sim","","{""position_1"":"""",""position_2"":"""",""position_3"":""friend"",""position_4"":""row"",""position_5"":""plea""}","experiment","","","","","","","","","friend","row","plea","","","","","","","","","","","","","","","","","","","","","","",""
"","","","","","html-keyboard-response","25","2004576","0.0-6.0-0.7","A1KOBLL83SICGQ","2022-05-27T16:17:54.437Z","phon_sim-task_switching-rhyme-same_different","","null","phon_sim","<div style=""display:grid""><h1 id=""word_1"" style=""grid-column:1; grid-row:1"">bought</h1><h1 id=""word_2"" style=""visibility:hidden;grid-column:1; grid-row:1"">wart</h1><h1 id=""word_3"" style=""visibility:hidden;grid-column:1; grid-row:1"">sort</h1><h1 id=""word_4"" style=""visibility:hidden;grid-column:1; grid-row:1"">caught</h1><h1 id=""word_5"" style=""visibility:hidden;grid-column:1; grid-row:1"">taut</h1></div>","null","experiment","bought","wart","sort","caught","taut","phonSet","","","","","","","","","","","","","","","","","","","","","","","","","","","",""
"","","","","","survey-text","26","2084612","0.0-6.0-1.7","A1KOBLL83SICGQ","2022-05-27T16:17:54.437Z","phon_sim-task_switching-rhyme-same_different","","80031.10000002384","phon_sim","","{""position_1"":""bought"",""position_2"":""wart"",""position_3"":""sort"",""position_4"":""caught"",""position_5"":""taut""}","experiment","","","","","","","bought","wart","sort","caught","taut","","","","","","","","","","","","","","","","","","","","","","",""
"","","","","","html-keyboard-response","27","2097617","0.0-6.0-0.8","A1KOBLL83SICGQ","2022-05-27T16:17:54.437Z","phon_sim-task_switching-rhyme-same_different","","null","phon_sim","<div style=""display:grid""><h1 id=""word_1"" style=""grid-column:1; grid-row:1"">cough</h1><h1 id=""word_2"" style=""visibility:hidden;grid-column:1; grid-row:1"">bough</h1><h1 id=""word_3"" style=""visibility:hidden;grid-column:1; grid-row:1"">through</h1><h1 id=""word_4"" style=""visibility:hidden;grid-column:1; grid-row:1"">rough</h1><h1 id=""word_5"" style=""visibility:hidden;grid-column:1; grid-row:1"">dough</h1></div>","null","experiment","cough","bough","through","rough","dough","orthoSet","","","","","","","","","","","","","","","","","","","","","","","","","","","",""
"","","","","","survey-text","28","2153076","0.0-6.0-1.8","A1KOBLL83SICGQ","2022-05-27T16:17:54.437Z","phon_sim-task_switching-rhyme-same_different","","55449.60000002384","phon_sim","","{""position_1"":""cough"",""position_2"":""bough"",""position_3"":""through"",""position_4"":""rough"",""position_5"":""dough""}","experiment","","","","","","","cough","bough","through","rough","dough","","","","","","","","","","","","","","","","","","","","","","",""
"","","","","","html-keyboard-response","29","2166095","0.0-6.0-0.9","A1KOBLL83SICGQ","2022-05-27T16:17:54.437Z","phon_sim-task_switching-rhyme-same_different","","null","phon_sim","<div style=""display:grid""><h1 id=""word_1"" style=""grid-column:1; grid-row:1"">bough</h1><h1 id=""word_2"" style=""visibility:hidden;grid-column:1; grid-row:1"">cough</h1><h1 id=""word_3"" style=""visibility:hidden;grid-column:1; grid-row:1"">dough</h1><h1 id=""word_4"" style=""visibility:hidden;grid-column:1; grid-row:1"">rough</h1><h1 id=""word_5"" style=""visibility:hidden;grid-column:1; grid-row:1"">through</h1></div>","null","experiment","bough","cough","dough","rough","through","orthoSet","","","","","","","","","","","","","","","","","","","","","","","","","","","",""
"","","","","","survey-text","30","2239156","0.0-6.0-1.9","A1KOBLL83SICGQ","2022-05-27T16:17:54.437Z","phon_sim-task_switching-rhyme-same_different","","73052.89999997616","phon_sim","","{""position_1"":""bough"",""position_2"":""cough"",""position_3"":""dough"",""position_4"":""rough"",""position_5"":""through""}","experiment","","","","","","","bough","cough","dough","rough","through","","","","","","","","","","","","","","","","","","","","","","",""
"","","","","","html-keyboard-response","31","2252163","0.0-6.0-0.10","A1KOBLL83SICGQ","2022-05-27T16:17:54.437Z","phon_sim-task_switching-rhyme-same_different","","null","phon_sim","<div style=""display:grid""><h1 id=""word_1"" style=""grid-column:1; grid-row:1"">cough</h1><h1 id=""word_2"" style=""visibility:hidden;grid-column:1; grid-row:1"">bough</h1><h1 id=""word_3"" style=""visibility:hidden;grid-column:1; grid-row:1"">through</h1><h1 id=""word_4"" style=""visibility:hidden;grid-column:1; grid-row:1"">rough</h1><h1 id=""word_5"" style=""visibility:hidden;grid-column:1; grid-row:1"">dough</h1></div>","null","experiment","cough","bough","through","rough","dough","orthoSet","","","","","","","","","","","","","","","","","","","","","","","","","","","",""
"","","","","","survey-text","32","2317107","0.0-6.0-1.10","A1KOBLL83SICGQ","2022-05-27T16:17:54.437Z","phon_sim-task_switching-rhyme-same_different","","64932.5","phon_sim","","{""position_1"":""cough"",""position_2"":""bough"",""position_3"":""through"",""position_4"":""rough"",""position_5"":""dough""}","experiment","","","","","","","cough","bough","through","rough","dough","","","","","","","","","","","","","","","","","","","","","","",""
"","","","","","html-keyboard-response","33","2330122","0.0-6.0-0.11","A1KOBLL83SICGQ","2022-05-27T16:17:54.437Z","phon_sim-task_switching-rhyme-same_different","","null","phon_sim","<div style=""display:grid""><h1 id=""word_1"" style=""grid-column:1; grid-row:1"">sort</h1><h1 id=""word_2"" style=""visibility:hidden;grid-column:1; grid-row:1"">caught</h1><h1 id=""word_3"" style=""visibility:hidden;grid-column:1; grid-row:1"">taut</h1><h1 id=""word_4"" style=""visibility:hidden;grid-column:1; grid-row:1"">bought</h1><h1 id=""word_5"" style=""visibility:hidden;grid-column:1; grid-row:1"">wart</h1></div>","null","experiment","sort","caught","taut","bought","wart","phonSet","","","","","","","","","","","","","","","","","","","","","","","","","","","",""
"","","","","","survey-text","34","2409890","0.0-6.0-1.11","A1KOBLL83SICGQ","2022-05-27T16:17:54.437Z","phon_sim-task_switching-rhyme-same_different","","79762.80000007153","phon_sim","","{""position_1"":""sort"",""position_2"":""caught"",""position_3"":""taut"",""position_4"":""bought"",""position_5"":""wart""}","experiment","","","","","","","sort","caught","taut","bought","wart","","","","","","","","","","","","","","","","","","","","","","",""
"","","","","","html-keyboard-response","35","2422900","0.0-6.0-0.12","A1KOBLL83SICGQ","2022-05-27T16:17:54.437Z","phon_sim-task_switching-rhyme-same_different","","null","phon_sim","<div style=""display:grid""><h1 id=""word_1"" style=""grid-column:1; grid-row:1"">friend</h1><h1 id=""word_2"" style=""visibility:hidden;grid-column:1; grid-row:1"">sleigh</h1><h1 id=""word_3"" style=""visibility:hidden;grid-column:1; grid-row:1"">row</h1><h1 id=""word_4"" style=""visibility:hidden;grid-column:1; grid-row:1"">plea</h1><h1 id=""word_5"" style=""visibility:hidden;grid-column:1; grid-row:1"">board</h1></div>","null","experiment","friend","sleigh","row","plea","board","controlSet","","","","","","","","","","","","","","","","","","","","","","","","","","","",""
"","","","","","survey-text","36","2700272","0.0-6.0-1.12","A1KOBLL83SICGQ","2022-05-27T16:17:54.437Z","phon_sim-task_switching-rhyme-same_different","","277361.39999997616","phon_sim","","{""position_1"":""friend"",""position_2"":""sleigh"",""position_3"":""row"",""position_4"":""plea"",""position_5"":""board""}","experiment","","","","","","","friend","sleigh","row","plea","board","","","","","","","","","","","","","","","","","","","","","","",""
"","","","","","html-keyboard-response","37","2713292","0.0-6.0-0.13","A1KOBLL83SICGQ","2022-05-27T16:17:54.437Z","phon_sim-task_switching-rhyme-same_different","","null","phon_sim","<div style=""display:grid""><h1 id=""word_1"" style=""grid-column:1; grid-row:1"">wart</h1><h1 id=""word_2"" style=""visibility:hidden;grid-column:1; grid-row:1"">taut</h1><h1 id=""word_3"" style=""visibility:hidden;grid-column:1; grid-row:1"">bought</h1><h1 id=""word_4"" style=""visibility:hidden;grid-column:1; grid-row:1"">caught</h1><h1 id=""word_5"" style=""visibility:hidden;grid-column:1; grid-row:1"">sort</h1></div>","null","experiment","wart","taut","bought","caught","sort","phonSet","","","","","","","","","","","","","","","","","","","","","","","","","","","",""
"","","","","","survey-text","38","2804407","0.0-6.0-1.13","A1KOBLL83SICGQ","2022-05-27T16:17:54.437Z","phon_sim-task_switching-rhyme-same_different","","91109.70000004768","phon_sim","","{""position_1"":""wart"",""position_2"":""taut"",""position_3"":""bought"",""position_4"":""caught"",""position_5"":""sort""}","experiment","","","","","","","wart","taut","bought","caught","sort","","","","","","","","","","","","","","","","","","","","","","",""
"","","","","","html-keyboard-response","39","2817418","0.0-6.0-0.14","A1KOBLL83SICGQ","2022-05-27T16:17:54.437Z","phon_sim-task_switching-rhyme-same_different","","null","phon_sim","<div style=""display:grid""><h1 id=""word_1"" style=""grid-column:1; grid-row:1"">row</h1><h1 id=""word_2"" style=""visibility:hidden;grid-column:1; grid-row:1"">board</h1><h1 id=""word_3"" style=""visibility:hidden;grid-column:1; grid-row:1"">friend</h1><h1 id=""word_4"" style=""visibility:hidden;grid-column:1; grid-row:1"">plea</h1><h1 id=""word_5"" style=""visibility:hidden;grid-column:1; grid-row:1"">sleigh</h1></div>","null","experiment","row","board","friend","plea","sleigh","controlSet","","","","","","","","","","","","","","","","","","","","","","","","","","","",""
"","","","","","survey-text","40","3110509","0.0-6.0-1.14","A1KOBLL83SICGQ","2022-05-27T16:17:54.437Z","phon_sim-task_switching-rhyme-same_different","","293085.90000009537","phon_sim","","{""position_1"":""row"",""position_2"":""board"",""position_3"":""friend"",""position_4"":""plea"",""position_5"":""slings""}","experiment","","","","","","","row","board","friend","plea","slings","","","","","","","","","","","","","","","","","","","","","","",""
"","","","","","html-keyboard-response","41","3123513","0.0-6.0-0.15","A1KOBLL83SICGQ","2022-05-27T16:17:54.437Z","phon_sim-task_switching-rhyme-same_different","","null","phon_sim","<div style=""display:grid""><h1 id=""word_1"" style=""grid-column:1; grid-row:1"">wart</h1><h1 id=""word_2"" style=""visibility:hidden;grid-column:1; grid-row:1"">taut</h1><h1 id=""word_3"" style=""visibility:hidden;grid-column:1; grid-row:1"">caught</h1><h1 id=""word_4"" style=""visibility:hidden;grid-column:1; grid-row:1"">sort</h1><h1 id=""word_5"" style=""visibility:hidden;grid-column:1; grid-row:1"">bought</h1></div>","null","experiment","wart","taut","caught","sort","bought","phonSet","","","","","","","","","","","","","","","","","","","","","","","","","","","",""
"","","","","","survey-text","42","3242627","0.0-6.0-1.15","A1KOBLL83SICGQ","2022-05-27T16:17:54.437Z","phon_sim-task_switching-rhyme-same_different","","119105.5","phon_sim","","{""position_1"":""wart"",""position_2"":""sort"",""position_3"":""caught"",""position_4"":""sort"",""position_5"":""bought""}","experiment","","","","","","","wart","sort","caught","sort","bought","","","","","","","","","","","","","","","","","","","","","","",""
"","","","","","html-keyboard-response","43","3255643","0.0-6.0-0.16","A1KOBLL83SICGQ","2022-05-27T16:17:54.437Z","phon_sim-task_switching-rhyme-same_different","","null","phon_sim","<div style=""display:grid""><h1 id=""word_1"" style=""grid-column:1; grid-row:1"">wart</h1><h1 id=""word_2"" style=""visibility:hidden;grid-column:1; grid-row:1"">bought</h1><h1 id=""word_3"" style=""visibility:hidden;grid-column:1; grid-row:1"">taut</h1><h1 id=""word_4"" style=""visibility:hidden;grid-column:1; grid-row:1"">sort</h1><h1 id=""word_5"" style=""visibility:hidden;grid-column:1; grid-row:1"">caught</h1></div>","null","experiment","wart","bought","taut","sort","caught","phonSet","","","","","","","","","","","","","","","","","","","","","","","","","","","",""
"","","","","","survey-text","44","3331866","0.0-6.0-1.16","A1KOBLL83SICGQ","2022-05-27T16:17:54.437Z","phon_sim-task_switching-rhyme-same_different","","76213.89999997616","phon_sim","","{""position_1"":""wart"",""position_2"":""bought"",""position_3"":""taut"",""position_4"":""sort"",""position_5"":""caught""}","experiment","","","","","","","wart","bought","taut","sort","caught","","","","","","","","","","","","","","","","","","","","","","",""
"","","","","","html-keyboard-response","45","3344870","0.0-6.0-0.17","A1KOBLL83SICGQ","2022-05-27T16:17:54.437Z","phon_sim-task_switching-rhyme-same_different","","null","phon_sim","<div style=""display:grid""><h1 id=""word_1"" style=""grid-column:1; grid-row:1"">plea</h1><h1 id=""word_2"" style=""visibility:hidden;grid-column:1; grid-row:1"">friend</h1><h1 id=""word_3"" style=""visibility:hidden;grid-column:1; grid-row:1"">sleigh</h1><h1 id=""word_4"" style=""visibility:hidden;grid-column:1; grid-row:1"">board</h1><h1 id=""word_5"" style=""visibility:hidden;grid-column:1; grid-row:1"">row</h1></div>","null","experiment","plea","friend","sleigh","board","row","controlSet","","","","","","","","","","","","","","","","","","","","","","","","","","","",""
"","","","","","survey-text","46","3405787","0.0-6.0-1.17","A1KOBLL83SICGQ","2022-05-27T16:17:54.437Z","phon_sim-task_switching-rhyme-same_different","","60905.700000047684","phon_sim","","{""position_1"":""plea"",""position_2"":""friend"",""position_3"":""sleigh"",""position_4"":""board"",""position_5"":""row""}","experiment","","","","","","","plea","friend","sleigh","board","row","","","","","","","","","","","","","","","","","","","","","","",""
"","","","","","html-keyboard-response","47","3418792","0.0-6.0-0.18","A1KOBLL83SICGQ","2022-05-27T16:17:54.437Z","phon_sim-task_switching-rhyme-same_different","","null","phon_sim","<div style=""display:grid""><h1 id=""word_1"" style=""grid-column:1; grid-row:1"">bought</h1><h1 id=""word_2"" style=""visibility:hidden;grid-column:1; grid-row:1"">sort</h1><h1 id=""word_3"" style=""visibility:hidden;grid-column:1; grid-row:1"">taut</h1><h1 id=""word_4"" style=""visibility:hidden;grid-column:1; grid-row:1"">wart</h1><h1 id=""word_5"" style=""visibility:hidden;grid-column:1; grid-row:1"">caught</h1></div>","null","experiment","bought","sort","taut","wart","caught","phonSet","","","","","","","","","","","","","","","","","","","","","","","","","","","",""
"","","","","","survey-text","48","3486155","0.0-6.0-1.18","A1KOBLL83SICGQ","2022-05-27T16:17:54.437Z","phon_sim-task_switching-rhyme-same_different","","67353.69999992847","phon_sim","","{""position_1"":""bought"",""position_2"":""sort"",""position_3"":""taut"",""position_4"":""wart"",""position_5"":""caught""}","experiment","","","","","","","bought","sort","taut","wart","caught","","","","","","","","","","","","","","","","","","","","","","",""
"","","","","","html-keyboard-response","49","3499165","0.0-6.0-0.19","A1KOBLL83SICGQ","2022-05-27T16:17:54.437Z","phon_sim-task_switching-rhyme-same_different","","null","phon_sim","<div style=""display:grid""><h1 id=""word_1"" style=""grid-column:1; grid-row:1"">row</h1><h1 id=""word_2"" style=""visibility:hidden;grid-column:1; grid-row:1"">plea</h1><h1 id=""word_3"" style=""visibility:hidden;grid-column:1; grid-row:1"">friend</h1><h1 id=""word_4"" style=""visibility:hidden;grid-column:1; grid-row:1"">board</h1><h1 id=""word_5"" style=""visibility:hidden;grid-column:1; grid-row:1"">sleigh</h1></div>","null","experiment","row","plea","friend","board","sleigh","controlSet","","","","","","","","","","","","","","","","","","","","","","","","","","","",""
"","","","","","survey-text","50","3560442","0.0-6.0-1.19","A1KOBLL83SICGQ","2022-05-27T16:17:54.437Z","phon_sim-task_switching-rhyme-same_different","","61266.799999952316","phon_sim","","{""position_1"":""row"",""position_2"":""plea"",""position_3"":""friend"",""position_4"":""board"",""position_5"":""sleigh""}","experiment","","","","","","","row","plea","friend","board","sleigh","","","","","","","","","","","","","","","","","","","","","","",""
"","","","","","html-keyboard-response","51","3573450","0.0-6.0-0.20","A1KOBLL83SICGQ","2022-05-27T16:17:54.437Z","phon_sim-task_switching-rhyme-same_different","","null","phon_sim","<div style=""display:grid""><h1 id=""word_1"" style=""grid-column:1; grid-row:1"">rough</h1><h1 id=""word_2"" style=""visibility:hidden;grid-column:1; grid-row:1"">through</h1><h1 id=""word_3"" style=""visibility:hidden;grid-column:1; grid-row:1"">bough</h1><h1 id=""word_4"" style=""visibility:hidden;grid-column:1; grid-row:1"">cough</h1><h1 id=""word_5"" style=""visibility:hidden;grid-column:1; grid-row:1"">dough</h1></div>","null","experiment","rough","through","bough","cough","dough","orthoSet","","","","","","","","","","","","","","","","","","","","","","","","","","","",""
"","","","","","survey-text","52","3642472","0.0-6.0-1.20","A1KOBLL83SICGQ","2022-05-27T16:17:54.437Z","phon_sim-task_switching-rhyme-same_different","","69012.10000002384","phon_sim","","{""position_1"":""rough"",""position_2"":""through"",""position_3"":""bough"",""position_4"":""cough"",""position_5"":""dough""}","experiment","","","","","","","rough","through","bough","cough","dough","","","","","","","","","","","","","","","","","","","","","","",""
"","","","","","html-keyboard-response","53","3655491","0.0-6.0-0.21","A1KOBLL83SICGQ","2022-05-27T16:17:54.437Z","phon_sim-task_switching-rhyme-same_different","","null","phon_sim","<div style=""display:grid""><h1 id=""word_1"" style=""grid-column:1; grid-row:1"">wart</h1><h1 id=""word_2"" style=""visibility:hidden;grid-column:1; grid-row:1"">taut</h1><h1 id=""word_3"" style=""visibility:hidden;grid-column:1; grid-row:1"">caught</h1><h1 id=""word_4"" style=""visibility:hidden;grid-column:1; grid-row:1"">sort</h1><h1 id=""word_5"" style=""visibility:hidden;grid-column:1; grid-row:1"">bought</h1></div>","null","experiment","wart","taut","caught","sort","bought","phonSet","","","","","","","","","","","","","","","","","","","","","","","","","","","",""
"","","","","","survey-text","54","3716992","0.0-6.0-1.21","A1KOBLL83SICGQ","2022-05-27T16:17:54.437Z","phon_sim-task_switching-rhyme-same_different","","61494.10000002384","phon_sim","","{""position_1"":""wart"",""position_2"":""taut"",""position_3"":""caught"",""position_4"":""sort"",""position_5"":""bought""}","experiment","","","","","","","wart","taut","caught","sort","bought","","","","","","","","","","","","","","","","","","","","","","",""
"","","","","","html-keyboard-response","55","3729996","0.0-6.0-0.22","A1KOBLL83SICGQ","2022-05-27T16:17:54.437Z","phon_sim-task_switching-rhyme-same_different","","null","phon_sim","<div style=""display:grid""><h1 id=""word_1"" style=""grid-column:1; grid-row:1"">board</h1><h1 id=""word_2"" style=""visibility:hidden;grid-column:1; grid-row:1"">row</h1><h1 id=""word_3"" style=""visibility:hidden;grid-column:1; grid-row:1"">plea</h1><h1 id=""word_4"" style=""visibility:hidden;grid-column:1; grid-row:1"">sleigh</h1><h1 id=""word_5"" style=""visibility:hidden;grid-column:1; grid-row:1"">friend</h1></div>","null","experiment","board","row","plea","sleigh","friend","controlSet","","","","","","","","","","","","","","","","","","","","","","","","","","","",""
"","","","","","survey-text","56","3997294","0.0-6.0-1.22","A1KOBLL83SICGQ","2022-05-27T16:17:54.437Z","phon_sim-task_switching-rhyme-same_different","","267291.2000000477","phon_sim","","{""position_1"":""board"",""position_2"":""row"",""position_3"":""plea"",""position_4"":""sleigh"",""position_5"":""friend""}","experiment","","","","","","","board","row","plea","sleigh","friend","","","","","","","","","","","","","","","","","","","","","","",""
"","","","","","html-keyboard-response","57","4010299","0.0-6.0-0.23","A1KOBLL83SICGQ","2022-05-27T16:17:54.437Z","phon_sim-task_switching-rhyme-same_different","","null","phon_sim","<div style=""display:grid""><h1 id=""word_1"" style=""grid-column:1; grid-row:1"">cough</h1><h1 id=""word_2"" style=""visibility:hidden;grid-column:1; grid-row:1"">bough</h1><h1 id=""word_3"" style=""visibility:hidden;grid-column:1; grid-row:1"">dough</h1><h1 id=""word_4"" style=""visibility:hidden;grid-column:1; grid-row:1"">rough</h1><h1 id=""word_5"" style=""visibility:hidden;grid-column:1; grid-row:1"">through</h1></div>","null","experiment","cough","bough","dough","rough","through","orthoSet","","","","","","","","","","","","","","","","","","","","","","","","","","","",""
"","","","","","survey-text","58","4070437","0.0-6.0-1.23","A1KOBLL83SICGQ","2022-05-27T16:17:54.437Z","phon_sim-task_switching-rhyme-same_different","","60130.10000002384","phon_sim","","{""position_1"":""cough"",""position_2"":""bough"",""position_3"":""dough"",""position_4"":""rough"",""position_5"":""through""}","experiment","","","","","","","cough","bough","dough","rough","through","","","","","","","","","","","","","","","","","","","","","","",""
"","","","","","survey-multi-choice","59","4080637","0.0-7.0","A1KOBLL83SICGQ","2022-05-27T16:17:54.437Z","phon_sim-task_switching-rhyme-same_different","","10195.600000023842","phon_sim","","{""Q0"":""Yes""}","","","","","","","","","","","","","[0]","Yes","","","","","","","","","","","","","","","","","","","","",""
"","","","","","survey-text","60","4124804","0.0-8.0","A1KOBLL83SICGQ","2022-05-27T16:17:54.437Z","phon_sim-task_switching-rhyme-same_different","","44161.800000071526","phon_sim","","{""Q0"":""I used some code like first letter""}","","","","","","","","","","","","","","","I used some code like first letter","","","","","","","","","","","","","","","","","","","",""
"","","","","","instructions","61","4127988","0.0-9.0","A1KOBLL83SICGQ","2022-05-27T16:17:54.437Z","phon_sim-task_switching-rhyme-same_different","[{""page_index"":0,""viewing_time"":3181.1999999284744}]","3181.5","phon_sim","","","","","","","","","","","","","","","","","","","","","","","","","","","","","","","","","","","","",""
"","","","","","instructions","62","4234364","0.0-10.0","A1KOBLL83SICGQ","2022-05-27T16:17:54.437Z","phon_sim-task_switching-rhyme-same_different","[{""page_index"":0,""viewing_time"":106374.30000007153}]","106375.39999997616","task_switching","","","","","","","","","","","","","","","","","","","","","","","","","","","","","","","","","","","","",""
"","","","","","instructions","63","4246219","0.0-11.0","A1KOBLL83SICGQ","2022-05-27T16:17:54.437Z","phon_sim-task_switching-rhyme-same_different","[{""page_index"":0,""viewing_time"":11852.600000023842}]","11853.200000047684","task_switching","","","","","","","","","","","","","","","","","","","","","","","","","","","","","","","","","","","","",""
"","","","","","survey-text","64","4253475","0.0-12.0","A1KOBLL83SICGQ","2022-05-27T16:17:54.437Z","phon_sim-task_switching-rhyme-same_different","","7245.699999928474","task_switching","45","{""addition_ans"":""48""}","training","","","","","","","","","","","","","","","addition","48","true","add","","","","","","","","","","","","","","","",""
"","","","","","html-keyboard-response","65","4254479","0.0-13.0","A1KOBLL83SICGQ","2022-05-27T16:17:54.437Z","phon_sim-task_switching-rhyme-same_different","","null","task_switching","<div style=""color:darkgreen; font-size:60px"">Well done!</div>","null","training","","","","","","","","","","","","","","","addition","","","","","","","","","","","","","","","","","","",""
"","","","","","survey-text","66","4259795","0.0-14.0","A1KOBLL83SICGQ","2022-05-27T16:17:54.437Z","phon_sim-task_switching-rhyme-same_different","","5309.699999928474","task_switching","71","{""addition_ans"":""74""}","training","","","","","","","","","","","","","","","addition","74","true","add","","","","","","","","","","","","","","","",""
"","","","","","html-keyboard-response","67","4260802","0.0-15.0","A1KOBLL83SICGQ","2022-05-27T16:17:54.437Z","phon_sim-task_switching-rhyme-same_different","","null","task_switching","<div style=""color:darkgreen; font-size:60px"">Well done!</div>","null","training","","","","","","","","","","","","","","","addition","","","","","","","","","","","","","","","","","","",""
"","","","","","survey-text","68","4265739","0.0-16.0","A1KOBLL83SICGQ","2022-05-27T16:17:54.437Z","phon_sim-task_switching-rhyme-same_different","","4930.799999952316","task_switching","43","{""addition_ans"":""46""}","training","","","","","","","","","","","","","","","addition","46","true","add","","","","","","","","","","","","","","","",""
"","","","","","html-keyboard-response","69","4266752","0.0-17.0","A1KOBLL83SICGQ","2022-05-27T16:17:54.437Z","phon_sim-task_switching-rhyme-same_different","","null","task_switching","<div style=""color:darkgreen; font-size:60px"">Well done!</div>","null","training","","","","","","","","","","","","","","","addition","","","","","","","","","","","","","","","","","","",""
"","","","","","survey-text","70","4273855","0.0-18.0","A1KOBLL83SICGQ","2022-05-27T16:17:54.437Z","phon_sim-task_switching-rhyme-same_different","","7099.299999952316","task_switching","84","{""addition_ans"":""88""}","training","","","","","","","","","","","","","","","addition","88","false","add","","","","","","","","","","","","","","","",""
"","","","","","html-keyboard-response","71","4278858","0.0-19.0","A1KOBLL83SICGQ","2022-05-27T16:17:54.437Z","phon_sim-task_switching-rhyme-same_different","","null","task_switching","<div style=""color:darkred; font-size:40px"">Right direction but be careful with the numbers.<p> Correct answer: 87</p></div>","null","training","","","","","","","","","","","","","","","addition","","","","","","","","","","","","","","","","","","",""
"","","","","","survey-text","72","4285251","0.0-20.0","A1KOBLL83SICGQ","2022-05-27T16:17:54.437Z","phon_sim-task_switching-rhyme-same_different","","6389.600000023842","task_switching","73","{""addition_ans"":""76""}","training","","","","","","","","","","","","","","","addition","76","true","add","","","","","","","","","","","","","","","",""
"","","","","","html-keyboard-response","73","4286256","0.0-21.0","A1KOBLL83SICGQ","2022-05-27T16:17:54.437Z","phon_sim-task_switching-rhyme-same_different","","null","task_switching","<div style=""color:darkgreen; font-size:60px"">Well done!</div>","null","training","","","","","","","","","","","","","","","addition","","","","","","","","","","","","","","","","","","",""
"","","","","","survey-text","74","4294019","0.0-22.0","A1KOBLL83SICGQ","2022-05-27T16:17:54.437Z","phon_sim-task_switching-rhyme-same_different","","7758.399999976158","task_switching","17","{""addition_ans"":""20""}","training","","","","","","","","","","","","","","","addition","20","true","add","","","","","","","","","","","","","","","",""
"","","","","","html-keyboard-response","75","4295027","0.0-23.0","A1KOBLL83SICGQ","2022-05-27T16:17:54.437Z","phon_sim-task_switching-rhyme-same_different","","null","task_switching","<div style=""color:darkgreen; font-size:60px"">Well done!</div>","null","training","","","","","","","","","","","","","","","addition","","","","","","","","","","","","","","","","","","",""
"","","","","","survey-text","76","4301251","0.0-24.0","A1KOBLL83SICGQ","2022-05-27T16:17:54.437Z","phon_sim-task_switching-rhyme-same_different","","6216.299999952316","task_switching","14","{""addition_ans"":""17""}","training","","","","","","","","","","","","","","","addition","17","true","add","","","","","","","","","","","","","","","",""
"","","","","","html-keyboard-response","77","4302255","0.0-25.0","A1KOBLL83SICGQ","2022-05-27T16:17:54.437Z","phon_sim-task_switching-rhyme-same_different","","null","task_switching","<div style=""color:darkgreen; font-size:60px"">Well done!</div>","null","training","","","","","","","","","","","","","","","addition","","","","","","","","","","","","","","","","","","",""
"","","","","","survey-text","78","4307459","0.0-26.0","A1KOBLL83SICGQ","2022-05-27T16:17:54.437Z","phon_sim-task_switching-rhyme-same_different","","5200.299999952316","task_switching","37","{""addition_ans"":""40""}","training","","","","","","","","","","","","","","","addition","40","true","add","","","","","","","","","","","","","","","",""
"","","","","","html-keyboard-response","79","4308476","0.0-27.0","A1KOBLL83SICGQ","2022-05-27T16:17:54.437Z","phon_sim-task_switching-rhyme-same_different","","null","task_switching","<div style=""color:darkgreen; font-size:60px"">Well done!</div>","null","training","","","","","","","","","","","","","","","addition","","","","","","","","","","","","","","","","","","",""
"","","","","","survey-text","80","4315923","0.0-28.0","A1KOBLL83SICGQ","2022-05-27T16:17:54.437Z","phon_sim-task_switching-rhyme-same_different","","7442.5","task_switching","78","{""addition_ans"":""81""}","training","","","","","","","","","","","","","","","addition","81","true","add","","","","","","","","","","","","","","","",""
"","","","","","html-keyboard-response","81","4316941","0.0-29.0","A1KOBLL83SICGQ","2022-05-27T16:17:54.437Z","phon_sim-task_switching-rhyme-same_different","","null","task_switching","<div style=""color:darkgreen; font-size:60px"">Well done!</div>","null","training","","","","","","","","","","","","","","","addition","","","","","","","","","","","","","","","","","","",""
"","","","","","survey-text","82","4322123","0.0-30.0","A1KOBLL83SICGQ","2022-05-27T16:17:54.437Z","phon_sim-task_switching-rhyme-same_different","","5175.699999928474","task_switching","32","{""addition_ans"":""35""}","training","","","","","","","","","","","","","","","addition","35","true","add","","","","","","","","","","","","","","","",""
"","","","","","html-keyboard-response","83","4323128","0.0-31.0","A1KOBLL83SICGQ","2022-05-27T16:17:54.437Z","phon_sim-task_switching-rhyme-same_different","","null","task_switching","<div style=""color:darkgreen; font-size:60px"">Well done!</div>","null","training","","","","","","","","","","","","","","","addition","","","","","","","","","","","","","","","","","","",""
"","","","","","instructions","84","4330386","0.0-32.0","A1KOBLL83SICGQ","2022-05-27T16:17:54.437Z","phon_sim-task_switching-rhyme-same_different","[{""page_index"":0,""viewing_time"":7256.899999976158}]","7257.299999952316","task_switching","","","","","","","","","","","","","","","","","","","","","","","","","","","","","","","","","","","","",""
"","","","","","survey-text","85","4336091","0.0-33.0","A1KOBLL83SICGQ","2022-05-27T16:17:54.437Z","phon_sim-task_switching-rhyme-same_different","","5699.699999928474","task_switching","61","{""addition_ans"":""64""}","experiment","","","","","","","","","","","","","","","addition","64","true","add","","","","","","","","","","","","","","","",""
"","","","","","survey-text","86","4339787","0.0-34.0","A1KOBLL83SICGQ","2022-05-27T16:17:54.437Z","phon_sim-task_switching-rhyme-same_different","","3691.100000023842","task_switching","52","{""addition_ans"":""55""}","experiment","","","","","","","","","","","","","","","addition","55","true","add","","","","","","","","","","","","","","","",""
"","","","","","survey-text","87","4344675","0.0-35.0","A1KOBLL83SICGQ","2022-05-27T16:17:54.437Z","phon_sim-task_switching-rhyme-same_different","","4884.699999928474","task_switching","10","{""addition_ans"":""13""}","experiment","","","","","","","","","","","","","","","addition","13","true","add","","","","","","","","","","","","","","","",""
"","","","","","survey-text","88","4349795","0.0-36.0","A1KOBLL83SICGQ","2022-05-27T16:17:54.437Z","phon_sim-task_switching-rhyme-same_different","","5113.200000047684","task_switching","29","{""addition_ans"":""32""}","experiment","","","","","","","","","","","","","","","addition","32","true","add","","","","","","","","","","","","","","","",""
"","","","","","survey-text","89","4355507","0.0-37.0","A1KOBLL83SICGQ","2022-05-27T16:17:54.437Z","phon_sim-task_switching-rhyme-same_different","","5706.700000047684","task_switching","55","{""addition_ans"":""58""}","experiment","","","","","","","","","","","","","","","addition","58","true","add","","","","","","","","","","","","","","","",""
"","","","","","survey-text","90","4360683","0.0-38.0","A1KOBLL83SICGQ","2022-05-27T16:17:54.437Z","phon_sim-task_switching-rhyme-same_different","","5172.5","task_switching","96","{""addition_ans"":""99""}","experiment","","","","","","","","","","","","","","","addition","99","true","add","","","","","","","","","","","","","","","",""
"","","","","","survey-text","91","4364603","0.0-39.0","A1KOBLL83SICGQ","2022-05-27T16:17:54.437Z","phon_sim-task_switching-rhyme-same_different","","3916","task_switching","45","{""addition_ans"":""48""}","experiment","","","","","","","","","","","","","","","addition","48","true","add","","","","","","","","","","","","","","","",""
"","","","","","survey-text","92","4368747","0.0-40.0","A1KOBLL83SICGQ","2022-05-27T16:17:54.437Z","phon_sim-task_switching-rhyme-same_different","","4140.800000071526","task_switching","67","{""addition_ans"":""70""}","experiment","","","","","","","","","","","","","","","addition","70","true","add","","","","","","","","","","","","","","","",""
"","","","","","survey-text","93","4376203","0.0-41.0","A1KOBLL83SICGQ","2022-05-27T16:17:54.437Z","phon_sim-task_switching-rhyme-same_different","","7449.899999976158","task_switching","57","{""addition_ans"":""60""}","experiment","","","","","","","","","","","","","","","addition","60","true","add","","","","","","","","","","","","","","","",""
"","","","","","survey-text","94","4381643","0.0-42.0","A1KOBLL83SICGQ","2022-05-27T16:17:54.437Z","phon_sim-task_switching-rhyme-same_different","","5435.700000047684","task_switching","14","{""addition_ans"":""17""}","experiment","","","","","","","","","","","","","","","addition","17","true","add","","","","","","","","","","","","","","","",""
"","","","","","survey-text","95","4388635","0.0-43.0","A1KOBLL83SICGQ","2022-05-27T16:17:54.437Z","phon_sim-task_switching-rhyme-same_different","","6985.700000047684","task_switching","86","{""addition_ans"":""89""}","experiment","","","","","","","","","","","","","","","addition","89","true","add","","","","","","","","","","","","","","","",""
"","","","","","survey-text","96","4394755","0.0-44.0","A1KOBLL83SICGQ","2022-05-27T16:17:54.437Z","phon_sim-task_switching-rhyme-same_different","","6115.700000047684","task_switching","46","{""addition_ans"":""50""}","experiment","","","","","","","","","","","","","","","addition","50","false","add","","","","","","","","","","","","","","","",""
"","","","","","survey-text","97","4411026","0.0-45.0","A1KOBLL83SICGQ","2022-05-27T16:17:54.437Z","phon_sim-task_switching-rhyme-same_different","","16267.800000071526","task_switching","28","{""addition_ans"":""31""}","experiment","","","","","","","","","","","","","","","addition","31","true","add","","","","","","","","","","","","","","","",""
"","","","","","survey-text","98","4415610","0.0-46.0","A1KOBLL83SICGQ","2022-05-27T16:17:54.437Z","phon_sim-task_switching-rhyme-same_different","","4580.300000071526","task_switching","47","{""addition_ans"":""50""}","experiment","","","","","","","","","","","","","","","addition","50","true","add","","","","","","","","","","","","","","","",""
"","","","","","survey-text","99","4420522","0.0-47.0","A1KOBLL83SICGQ","2022-05-27T16:17:54.437Z","phon_sim-task_switching-rhyme-same_different","","4909.299999952316","task_switching","22","{""addition_ans"":""25""}","experiment","","","","","","","","","","","","","","","addition","25","true","add","","","","","","","","","","","","","","","",""
"","","","","","survey-text","100","4425754","0.0-48.0","A1KOBLL83SICGQ","2022-05-27T16:17:54.437Z","phon_sim-task_switching-rhyme-same_different","","5228.399999976158","task_switching","63","{""addition_ans"":""66""}","experiment","","","","","","","","","","","","","","","addition","66","true","add","","","","","","","","","","","","","","","",""
"","","","","","survey-text","101","4430634","0.0-49.0","A1KOBLL83SICGQ","2022-05-27T16:17:54.437Z","phon_sim-task_switching-rhyme-same_different","","4875.899999976158","task_switching","23","{""addition_ans"":""26""}","experiment","","","","","","","","","","","","","","","addition","26","true","add","","","","","","","","","","","","","","","",""
"","","","","","survey-text","102","4441585","0.0-50.0","A1KOBLL83SICGQ","2022-05-27T16:17:54.437Z","phon_sim-task_switching-rhyme-same_different","","10948.299999952316","task_switching","34","{""addition_ans"":""37""}","experiment","","","","","","","","","","","","","","","addition","37","true","add","","","","","","","","","","","","","","","",""
"","","","","","survey-text","103","4456154","0.0-51.0","A1KOBLL83SICGQ","2022-05-27T16:17:54.437Z","phon_sim-task_switching-rhyme-same_different","","14565","task_switching","15","{""addition_ans"":""18""}","experiment","","","","","","","","","","","","","","","addition","18","true","add","","","","","","","","","","","","","","","",""
"","","","","","survey-text","104","4470522","0.0-52.0","A1KOBLL83SICGQ","2022-05-27T16:17:54.437Z","phon_sim-task_switching-rhyme-same_different","","14363.300000071526","task_switching","74","{""addition_ans"":""77""}","experiment","","","","","","","","","","","","","","","addition","77","true","add","","","","","","","","","","","","","","","",""
"","","","","","survey-text","105","4501377","0.0-53.0","A1KOBLL83SICGQ","2022-05-27T16:17:54.437Z","phon_sim-task_switching-rhyme-same_different","","30851.5","task_switching","16","{""addition_ans"":""19""}","experiment","","","","","","","","","","","","","","","addition","19","true","add","","","","","","","","","","","","","","","",""
"","","","","","survey-text","106","4506417","0.0-54.0","A1KOBLL83SICGQ","2022-05-27T16:17:54.437Z","phon_sim-task_switching-rhyme-same_different","","5034.299999952316","task_switching","33","{""addition_ans"":""36""}","experiment","","","","","","","","","","","","","","","addition","36","true","add","","","","","","","","","","","","","","","",""
"","","","","","survey-text","107","4510897","0.0-55.0","A1KOBLL83SICGQ","2022-05-27T16:17:54.437Z","phon_sim-task_switching-rhyme-same_different","","4475.200000047684","task_switching","40","{""addition_ans"":""43""}","experiment","","","","","","","","","","","","","","","addition","43","true","add","","","","","","","","","","","","","","","",""
"","","","","","survey-text","108","4536169","0.0-56.0","A1KOBLL83SICGQ","2022-05-27T16:17:54.437Z","phon_sim-task_switching-rhyme-same_different","","25268.100000023842","task_switching","26","{""addition_ans"":""29""}","experiment","","","","","","","","","","","","","","","addition","29","true","add","","","","","","","","","","","","","","","",""
"","","","","","survey-text","109","4541290","0.0-57.0","A1KOBLL83SICGQ","2022-05-27T16:17:54.437Z","phon_sim-task_switching-rhyme-same_different","","5115.899999976158","task_switching","70","{""addition_ans"":""73""}","experiment","","","","","","","","","","","","","","","addition","73","true","add","","","","","","","","","","","","","","","",""
"","","","","","survey-text","110","4545857","0.0-58.0","A1KOBLL83SICGQ","2022-05-27T16:17:54.437Z","phon_sim-task_switching-rhyme-same_different","","4562.899999976158","task_switching","32","{""addition_ans"":""35""}","experiment","","","","","","","","","","","","","","","addition","35","true","add","","","","","","","","","","","","","","","",""
"","","","","","survey-text","111","4550713","0.0-59.0","A1KOBLL83SICGQ","2022-05-27T16:17:54.437Z","phon_sim-task_switching-rhyme-same_different","","4852.5","task_switching","44","{""addition_ans"":""47""}","experiment","","","","","","","","","","","","","","","addition","47","true","add","","","","","","","","","","","","","","","",""
"","","","","","survey-text","112","4555025","0.0-60.0","A1KOBLL83SICGQ","2022-05-27T16:17:54.437Z","phon_sim-task_switching-rhyme-same_different","","4309","task_switching","51","{""addition_ans"":""54""}","experiment","","","","","","","","","","","","","","","addition","54","true","add","","","","","","","","","","","","","","","",""
"","","","","","survey-text","113","4572480","0.0-61.0","A1KOBLL83SICGQ","2022-05-27T16:17:54.437Z","phon_sim-task_switching-rhyme-same_different","","17452.399999976158","task_switching","17","{""addition_ans"":""20""}","experiment","","","","","","","","","","","","","","","addition","20","true","add","","","","","","","","","","","","","","","",""
"","","","","","survey-text","114","4587169","0.0-62.0","A1KOBLL83SICGQ","2022-05-27T16:17:54.437Z","phon_sim-task_switching-rhyme-same_different","","14684.700000047684","task_switching","59","{""addition_ans"":""61""}","experiment","","","","","","","","","","","","","","","addition","61","false","add","","","","","","","","","","","","","","","",""
"","","","","","instructions","115","4599984","0.0-63.0","A1KOBLL83SICGQ","2022-05-27T16:17:54.437Z","phon_sim-task_switching-rhyme-same_different","[{""page_index"":0,""viewing_time"":12813}]","12813.5","task_switching","","","","","","","","","","","","","","","","","","","","","","","","","","","","","","","","","","","","",""
"","","","","","survey-text","116","4613552","0.0-64.0","A1KOBLL83SICGQ","2022-05-27T16:17:54.437Z","phon_sim-task_switching-rhyme-same_different","","13564.599999904633","task_switching","21","{""subtraction_ans"":""18""}","training","","","","","","","","","","","","","","","subtraction","18","true","subtract","","","","","","","","","","","","","","","",""
"","","","","","html-keyboard-response","117","4614568","0.0-65.0","A1KOBLL83SICGQ","2022-05-27T16:17:54.437Z","phon_sim-task_switching-rhyme-same_different","","null","task_switching","<div style=""color:darkgreen; font-size:60px"">Well done!</div>","null","training","","","","","","","","","","","","","","","subtraction","","","","","","","","","","","","","","","","","","",""
"","","","","","survey-text","118","4622784","0.0-66.0","A1KOBLL83SICGQ","2022-05-27T16:17:54.437Z","phon_sim-task_switching-rhyme-same_different","","8210.899999976158","task_switching","56","{""subtraction_ans"":""53""}","training","","","","","","","","","","","","","","","subtraction","53","true","subtract","","","","","","","","","","","","","","","",""
"","","","","","html-keyboard-response","119","4623800","0.0-67.0","A1KOBLL83SICGQ","2022-05-27T16:17:54.437Z","phon_sim-task_switching-rhyme-same_different","","null","task_switching","<div style=""color:darkgreen; font-size:60px"">Well done!</div>","null","training","","","","","","","","","","","","","","","subtraction","","","","","","","","","","","","","","","","","","",""
"","","","","","survey-text","120","4636352","0.0-68.0","A1KOBLL83SICGQ","2022-05-27T16:17:54.437Z","phon_sim-task_switching-rhyme-same_different","","12544.300000071526","task_switching","91","{""subtraction_ans"":""88""}","training","","","","","","","","","","","","","","","subtraction","88","true","subtract","","","","","","","","","","","","","","","",""
"","","","","","html-keyboard-response","121","4637356","0.0-69.0","A1KOBLL83SICGQ","2022-05-27T16:17:54.437Z","phon_sim-task_switching-rhyme-same_different","","null","task_switching","<div style=""color:darkgreen; font-size:60px"">Well done!</div>","null","training","","","","","","","","","","","","","","","subtraction","","","","","","","","","","","","","","","","","","",""
"","","","","","survey-text","122","4648568","0.0-70.0","A1KOBLL83SICGQ","2022-05-27T16:17:54.437Z","phon_sim-task_switching-rhyme-same_different","","11208.299999952316","task_switching","88","{""subtraction_ans"":""85""}","training","","","","","","","","","","","","","","","subtraction","85","true","subtract","","","","","","","","","","","","","","","",""
"","","","","","html-keyboard-response","123","4649572","0.0-71.0","A1KOBLL83SICGQ","2022-05-27T16:17:54.437Z","phon_sim-task_switching-rhyme-same_different","","null","task_switching","<div style=""color:darkgreen; font-size:60px"">Well done!</div>","null","training","","","","","","","","","","","","","","","subtraction","","","","","","","","","","","","","","","","","","",""
"","","","","","survey-text","124","4660640","0.0-72.0","A1KOBLL83SICGQ","2022-05-27T16:17:54.437Z","phon_sim-task_switching-rhyme-same_different","","11064.299999952316","task_switching","42","{""subtraction_ans"":""39""}","training","","","","","","","","","","","","","","","subtraction","39","true","subtract","","","","","","","","","","","","","","","",""
"","","","","","html-keyboard-response","125","4661656","0.0-73.0","A1KOBLL83SICGQ","2022-05-27T16:17:54.437Z","phon_sim-task_switching-rhyme-same_different","","null","task_switching","<div style=""color:darkgreen; font-size:60px"">Well done!</div>","null","training","","","","","","","","","","","","","","","subtraction","","","","","","","","","","","","","","","","","","",""
"","","","","","survey-text","126","4669480","0.0-74.0","A1KOBLL83SICGQ","2022-05-27T16:17:54.437Z","phon_sim-task_switching-rhyme-same_different","","7820.899999976158","task_switching","77","{""subtraction_ans"":""74""}","training","","","","","","","","","","","","","","","subtraction","74","true","subtract","","","","","","","","","","","","","","","",""
"","","","","","html-keyboard-response","127","4670485","0.0-75.0","A1KOBLL83SICGQ","2022-05-27T16:17:54.437Z","phon_sim-task_switching-rhyme-same_different","","null","task_switching","<div style=""color:darkgreen; font-size:60px"">Well done!</div>","null","training","","","","","","","","","","","","","","","subtraction","","","","","","","","","","","","","","","","","","",""
"","","","","","survey-text","128","4680992","0.0-76.0","A1KOBLL83SICGQ","2022-05-27T16:17:54.437Z","phon_sim-task_switching-rhyme-same_different","","10501.399999976158","task_switching","61","{""subtraction_ans"":""58""}","training","","","","","","","","","","","","","","","subtraction","58","true","subtract","","","","","","","","","","","","","","","",""
"","","","","","html-keyboard-response","129","4681995","0.0-77.0","A1KOBLL83SICGQ","2022-05-27T16:17:54.437Z","phon_sim-task_switching-rhyme-same_different","","null","task_switching","<div style=""color:darkgreen; font-size:60px"">Well done!</div>","null","training","","","","","","","","","","","","","","","subtraction","","","","","","","","","","","","","","","","","","",""
"","","","","","survey-text","130","4686912","0.0-78.0","A1KOBLL83SICGQ","2022-05-27T16:17:54.437Z","phon_sim-task_switching-rhyme-same_different","","4911.899999976158","task_switching","53","{""subtraction_ans"":""50""}","training","","","","","","","","","","","","","","","subtraction","50","true","subtract","","","","","","","","","","","","","","","",""
"","","","","","html-keyboard-response","131","4687915","0.0-79.0","A1KOBLL83SICGQ","2022-05-27T16:17:54.437Z","phon_sim-task_switching-rhyme-same_different","","null","task_switching","<div style=""color:darkgreen; font-size:60px"">Well done!</div>","null","training","","","","","","","","","","","","","","","subtraction","","","","","","","","","","","","","","","","","","",""
"","","","","","survey-text","132","4692664","0.0-80.0","A1KOBLL83SICGQ","2022-05-27T16:17:54.437Z","phon_sim-task_switching-rhyme-same_different","","4746.300000071526","task_switching","33","{""subtraction_ans"":""30""}","training","","","","","","","","","","","","","","","subtraction","30","true","subtract","","","","","","","","","","","","","","","",""
"","","","","","html-keyboard-response","133","4693673","0.0-81.0","A1KOBLL83SICGQ","2022-05-27T16:17:54.437Z","phon_sim-task_switching-rhyme-same_different","","null","task_switching","<div style=""color:darkgreen; font-size:60px"">Well done!</div>","null","training","","","","","","","","","","","","","","","subtraction","","","","","","","","","","","","","","","","","","",""
"","","","","","survey-text","134","4701768","0.0-82.0","A1KOBLL83SICGQ","2022-05-27T16:17:54.437Z","phon_sim-task_switching-rhyme-same_different","","8088.400000095367","task_switching","90","{""subtraction_ans"":""87""}","training","","","","","","","","","","","","","","","subtraction","87","true","subtract","","","","","","","","","","","","","","","",""
"","","","","","html-keyboard-response","135","4702770","0.0-83.0","A1KOBLL83SICGQ","2022-05-27T16:17:54.437Z","phon_sim-task_switching-rhyme-same_different","","null","task_switching","<div style=""color:darkgreen; font-size:60px"">Well done!</div>","null","training","","","","","","","","","","","","","","","subtraction","","","","","","","","","","","","","","","","","","",""
"","","","","","instructions","136","4709496","0.0-84.0","A1KOBLL83SICGQ","2022-05-27T16:17:54.437Z","phon_sim-task_switching-rhyme-same_different","[{""page_index"":0,""viewing_time"":6724.100000023842}]","6724.5","task_switching","","","","","","","","","","","","","","","","","","","","","","","","","","","","","","","","","","","","",""
"","","","","","survey-text","137","4721256","0.0-85.0","A1KOBLL83SICGQ","2022-05-27T16:17:54.437Z","phon_sim-task_switching-rhyme-same_different","","11753.899999976158","task_switching","51","{""subtraction_ans"":""48""}","experiment","","","","","","","","","","","","","","","subtraction","48","true","subtract","","","","","","","","","","","","","","","",""
"","","","","","survey-text","138","4726504","0.0-86.0","A1KOBLL83SICGQ","2022-05-27T16:17:54.437Z","phon_sim-task_switching-rhyme-same_different","","5243.100000023842","task_switching","77","{""subtraction_ans"":""74""}","experiment","","","","","","","","","","","","","","","subtraction","74","true","subtract","","","","","","","","","","","","","","","",""
"","","","","","survey-text","139","4731856","0.0-87.0","A1KOBLL83SICGQ","2022-05-27T16:17:54.437Z","phon_sim-task_switching-rhyme-same_different","","5346.399999976158","task_switching","49","{""subtraction_ans"":""46""}","experiment","","","","","","","","","","","","","","","subtraction","46","true","subtract","","","","","","","","","","","","","","","",""
"","","","","","survey-text","140","4747904","0.0-88.0","A1KOBLL83SICGQ","2022-05-27T16:17:54.437Z","phon_sim-task_switching-rhyme-same_different","","16044","task_switching","78","{""subtraction_ans"":""75""}","experiment","","","","","","","","","","","","","","","subtraction","75","true","subtract","","","","","","","","","","","","","","","",""
"","","","","","survey-text","141","4754354","0.0-89.0","A1KOBLL83SICGQ","2022-05-27T16:17:54.437Z","phon_sim-task_switching-rhyme-same_different","","6445.200000047684","task_switching","72","{""subtraction_ans"":""69""}","experiment","","","","","","","","","","","","","","","subtraction","69","true","subtract","","","","","","","","","","","","","","","",""
"","","","","","survey-text","142","4759296","0.0-90.0","A1KOBLL83SICGQ","2022-05-27T16:17:54.437Z","phon_sim-task_switching-rhyme-same_different","","4930.199999928474","task_switching","50","{""subtraction_ans"":""47""}","experiment","","","","","","","","","","","","","","","subtraction","47","true","subtract","","","","","","","","","","","","","","","",""
"","","","","","survey-text","143","4772967","0.0-91.0","A1KOBLL83SICGQ","2022-05-27T16:17:54.437Z","phon_sim-task_switching-rhyme-same_different","","13666.399999976158","task_switching","89","{""subtraction_ans"":""86""}","experiment","","","","","","","","","","","","","","","subtraction","86","true","subtract","","","","","","","","","","","","","","","",""
"","","","","","survey-text","144","4777552","0.0-92.0","A1KOBLL83SICGQ","2022-05-27T16:17:54.437Z","phon_sim-task_switching-rhyme-same_different","","4580.700000047684","task_switching","68","{""subtraction_ans"":""65""}","experiment","","","","","","","","","","","","","","","subtraction","65","true","subtract","","","","","","","","","","","","","","","",""
"","","","","","survey-text","145","4782592","0.0-93.0","A1KOBLL83SICGQ","2022-05-27T16:17:54.437Z","phon_sim-task_switching-rhyme-same_different","","5036.899999976158","task_switching","27","{""subtraction_ans"":""24""}","experiment","","","","","","","","","","","","","","","subtraction","24","true","subtract","","","","","","","","","","","","","","","",""
"","","","","","survey-text","146","4787048","0.0-94.0","A1KOBLL83SICGQ","2022-05-27T16:17:54.437Z","phon_sim-task_switching-rhyme-same_different","","4452.200000047684","task_switching","73","{""subtraction_ans"":""70""}","experiment","","","","","","","","","","","","","","","subtraction","70","true","subtract","","","","","","","","","","","","","","","",""
"","","","","","survey-text","147","4795280","0.0-95.0","A1KOBLL83SICGQ","2022-05-27T16:17:54.437Z","phon_sim-task_switching-rhyme-same_different","","8228.400000095367","task_switching","82","{""subtraction_ans"":""79""}","experiment","","","","","","","","","","","","","","","subtraction","79","true","subtract","","","","","","","","","","","","","","","",""
"","","","","","survey-text","148","4811112","0.0-96.0","A1KOBLL83SICGQ","2022-05-27T16:17:54.437Z","phon_sim-task_switching-rhyme-same_different","","15826.900000095367","task_switching","67","{""subtraction_ans"":""64""}","experiment","","","","","","","","","","","","","","","subtraction","64","true","subtract","","","","","","","","","","","","","","","",""
"","","","","","survey-text","149","4816928","0.0-97.0","A1KOBLL83SICGQ","2022-05-27T16:17:54.437Z","phon_sim-task_switching-rhyme-same_different","","5803.5","task_switching","84","{""subtraction_ans"":""81""}","experiment","","","","","","","","","","","","","","","subtraction","81","true","subtract","","","","","","","","","","","","","","","",""
"","","","","","survey-text","150","4823096","0.0-98.0","A1KOBLL83SICGQ","2022-05-27T16:17:54.437Z","phon_sim-task_switching-rhyme-same_different","","6164","task_switching","83","{""subtraction_ans"":""80""}","experiment","","","","","","","","","","","","","","","subtraction","80","true","subtract","","","","","","","","","","","","","","","",""
"","","","","","survey-text","151","4827624","0.0-99.0","A1KOBLL83SICGQ","2022-05-27T16:17:54.437Z","phon_sim-task_switching-rhyme-same_different","","4523.5","task_switching","94","{""subtraction_ans"":""91""}","experiment","","","","","","","","","","","","","","","subtraction","91","true","subtract","","","","","","","","","","","","","","","",""
"","","","","","survey-text","152","4833448","0.0-100.0","A1KOBLL83SICGQ","2022-05-27T16:17:54.437Z","phon_sim-task_switching-rhyme-same_different","","5820.300000071526","task_switching","95","{""subtraction_ans"":""92""}","experiment","","","","","","","","","","","","","","","subtraction","92","true","subtract","","","","","","","","","","","","","","","",""
"","","","","","survey-text","153","4847607","0.0-101.0","A1KOBLL83SICGQ","2022-05-27T16:17:54.437Z","phon_sim-task_switching-rhyme-same_different","","14155.600000023842","task_switching","21","{""subtraction_ans"":""18""}","experiment","","","","","","","","","","","","","","","subtraction","18","true","subtract","","","","","","","","","","","","","","","",""
"","","","","","survey-text","154","4853663","0.0-102.0","A1KOBLL83SICGQ","2022-05-27T16:17:54.437Z","phon_sim-task_switching-rhyme-same_different","","6052.399999976158","task_switching","19","{""subtraction_ans"":""16""}","experiment","","","","","","","","","","","","","","","subtraction","16","true","subtract","","","","","","","","","","","","","","","",""
"","","","","","survey-text","155","4858622","0.0-103.0","A1KOBLL83SICGQ","2022-05-27T16:17:54.437Z","phon_sim-task_switching-rhyme-same_different","","4956.899999976158","task_switching","46","{""subtraction_ans"":""43""}","experiment","","","","","","","","","","","","","","","subtraction","43","true","subtract","","","","","","","","","","","","","","","",""
"","","","","","survey-text","156","4864414","0.0-104.0","A1KOBLL83SICGQ","2022-05-27T16:17:54.437Z","phon_sim-task_switching-rhyme-same_different","","5789.099999904633","task_switching","86","{""subtraction_ans"":""83""}","experiment","","","","","","","","","","","","","","","subtraction","83","true","subtract","","","","","","","","","","","","","","","",""
"","","","","","survey-text","157","4871062","0.0-105.0","A1KOBLL83SICGQ","2022-05-27T16:17:54.437Z","phon_sim-task_switching-rhyme-same_different","","6644","task_switching","30","{""subtraction_ans"":""27""}","experiment","","","","","","","","","","","","","","","subtraction","27","true","subtract","","","","","","","","","","","","","","","",""
"","","","","","survey-text","158","4879955","0.0-106.0","A1KOBLL83SICGQ","2022-05-27T16:17:54.437Z","phon_sim-task_switching-rhyme-same_different","","8887.899999976158","task_switching","58","{""subtraction_ans"":""55""}","experiment","","","","","","","","","","","","","","","subtraction","55","true","subtract","","","","","","","","","","","","","","","",""
"","","","","","survey-text","159","4885334","0.0-107.0","A1KOBLL83SICGQ","2022-05-27T16:17:54.437Z","phon_sim-task_switching-rhyme-same_different","","5375.600000023842","task_switching","39","{""subtraction_ans"":""36""}","experiment","","","","","","","","","","","","","","","subtraction","36","true","subtract","","","","","","","","","","","","","","","",""
"","","","","","survey-text","160","4897703","0.0-108.0","A1KOBLL83SICGQ","2022-05-27T16:17:54.437Z","phon_sim-task_switching-rhyme-same_different","","12364.299999952316","task_switching","61","{""subtraction_ans"":""58""}","experiment","","","","","","","","","","","","","","","subtraction","58","true","subtract","","","","","","","","","","","","","","","",""
"","","","","","survey-text","161","4903518","0.0-109.0","A1KOBLL83SICGQ","2022-05-27T16:17:54.437Z","phon_sim-task_switching-rhyme-same_different","","5811.100000023842","task_switching","87","{""subtraction_ans"":""84""}","experiment","","","","","","","","","","","","","","","subtraction","84","true","subtract","","","","","","","","","","","","","","","",""
"","","","","","survey-text","162","4910798","0.0-110.0","A1KOBLL83SICGQ","2022-05-27T16:17:54.437Z","phon_sim-task_switching-rhyme-same_different","","7275.5","task_switching","62","{""subtraction_ans"":""59""}","experiment","","","","","","","","","","","","","","","subtraction","59","true","subtract","","","","","","","","","","","","","","","",""
"","","","","","survey-text","163","4916806","0.0-111.0","A1KOBLL83SICGQ","2022-05-27T16:17:54.437Z","phon_sim-task_switching-rhyme-same_different","","6003.799999952316","task_switching","32","{""subtraction_ans"":""29""}","experiment","","","","","","","","","","","","","","","subtraction","29","true","subtract","","","","","","","","","","","","","","","",""
"","","","","","survey-text","164","4922766","0.0-112.0","A1KOBLL83SICGQ","2022-05-27T16:17:54.437Z","phon_sim-task_switching-rhyme-same_different","","5957.5","task_switching","75","{""subtraction_ans"":""72""}","experiment","","","","","","","","","","","","","","","subtraction","72","true","subtract","","","","","","","","","","","","","","","",""
"","","","","","survey-text","165","4930774","0.0-113.0","A1KOBLL83SICGQ","2022-05-27T16:17:54.437Z","phon_sim-task_switching-rhyme-same_different","","8004.399999976158","task_switching","28","{""subtraction_ans"":""25""}","experiment","","","","","","","","","","","","","","","subtraction","25","true","subtract","","","","","","","","","","","","","","","",""
"","","","","","survey-text","166","4936766","0.0-114.0","A1KOBLL83SICGQ","2022-05-27T16:17:54.437Z","phon_sim-task_switching-rhyme-same_different","","5988.899999976158","task_switching","18","{""subtraction_ans"":""15""}","experiment","","","","","","","","","","","","","","","subtraction","15","true","subtract","","","","","","","","","","","","","","","",""
"","","","","","instructions","167","4955510","0.0-115.0","A1KOBLL83SICGQ","2022-05-27T16:17:54.437Z","phon_sim-task_switching-rhyme-same_different","[{""page_index"":0,""viewing_time"":18741.300000071526}]","18742","task_switching","","","","","","","","","","","","","","","","","","","","","","","","","","","","","","","","","","","","",""
"","","","","","survey-text","168","4962622","0.0-116.0","A1KOBLL83SICGQ","2022-05-27T16:17:54.437Z","phon_sim-task_switching-rhyme-same_different","","7108.299999952316","task_switching","90","{""colorcue_switch_ans"":""93""}","training","","","","","","","","","","","","","","","colorcue_switch","93","true","add","red","0","","","","","","","","","","","","","",""
"","","","","","html-keyboard-response","169","4963638","0.0-117.0","A1KOBLL83SICGQ","2022-05-27T16:17:54.437Z","phon_sim-task_switching-rhyme-same_different","","null","task_switching","<div style=""color:darkgreen; font-size:60px"">Well done!</div>","null","training","","","","","","","","","","","","","","","colorcue_switch","","","","","","","","","","","","","","","","","","",""
"","","","","","survey-text","170","4979038","0.0-118.0","A1KOBLL83SICGQ","2022-05-27T16:17:54.437Z","phon_sim-task_switching-rhyme-same_different","","15394.5","task_switching","91","{""colorcue_switch_ans"":""88""}","training","","","","","","","","","","","","","","","colorcue_switch","88","true","subtract","blue","1","","","","","","","","","","","","","",""
"","","","","","html-keyboard-response","171","4980042","0.0-119.0","A1KOBLL83SICGQ","2022-05-27T16:17:54.437Z","phon_sim-task_switching-rhyme-same_different","","null","task_switching","<div style=""color:darkgreen; font-size:60px"">Well done!</div>","null","training","","","","","","","","","","","","","","","colorcue_switch","","","","","","","","","","","","","","","","","","",""
"","","","","","survey-text","172","4985326","0.0-120.0","A1KOBLL83SICGQ","2022-05-27T16:17:54.437Z","phon_sim-task_switching-rhyme-same_different","","5277.299999952316","task_switching","67","{""colorcue_switch_ans"":""70""}","training","","","","","","","","","","","","","","","colorcue_switch","70","true","add","red","2","","","","","","","","","","","","","",""
"","","","","","html-keyboard-response","173","4986336","0.0-121.0","A1KOBLL83SICGQ","2022-05-27T16:17:54.437Z","phon_sim-task_switching-rhyme-same_different","","null","task_switching","<div style=""color:darkgreen; font-size:60px"">Well done!</div>","null","training","","","","","","","","","","","","","","","colorcue_switch","","","","","","","","","","","","","","","","","","",""
"","","","","","survey-text","174","4993166","0.0-122.0","A1KOBLL83SICGQ","2022-05-27T16:17:54.437Z","phon_sim-task_switching-rhyme-same_different","","6826.300000071526","task_switching","78","{""colorcue_switch_ans"":""75""}","training","","","","","","","","","","","","","","","colorcue_switch","75","true","subtract","blue","3","","","","","","","","","","","","","",""
"","","","","","html-keyboard-response","175","4994169","0.0-123.0","A1KOBLL83SICGQ","2022-05-27T16:17:54.437Z","phon_sim-task_switching-rhyme-same_different","","null","task_switching","<div style=""color:darkgreen; font-size:60px"">Well done!</div>","null","training","","","","","","","","","","","","","","","colorcue_switch","","","","","","","","","","","","","","","","","","",""
"","","","","","survey-text","176","5000526","0.0-124.0","A1KOBLL83SICGQ","2022-05-27T16:17:54.437Z","phon_sim-task_switching-rhyme-same_different","","6352.299999952316","task_switching","18","{""colorcue_switch_ans"":""21""}","training","","","","","","","","","","","","","","","colorcue_switch","21","true","add","red","4","","","","","","","","","","","","","",""
"","","","","","html-keyboard-response","177","5001534","0.0-125.0","A1KOBLL83SICGQ","2022-05-27T16:17:54.437Z","phon_sim-task_switching-rhyme-same_different","","null","task_switching","<div style=""color:darkgreen; font-size:60px"">Well done!</div>","null","training","","","","","","","","","","","","","","","colorcue_switch","","","","","","","","","","","","","","","","","","",""
"","","","","","survey-text","178","5008437","0.0-126.0","A1KOBLL83SICGQ","2022-05-27T16:17:54.437Z","phon_sim-task_switching-rhyme-same_different","","6897.900000095367","task_switching","94","{""colorcue_switch_ans"":""91""}","training","","","","","","","","","","","","","","","colorcue_switch","91","true","subtract","blue","5","","","","","","","","","","","","","",""
"","","","","","html-keyboard-response","179","5009449","0.0-127.0","A1KOBLL83SICGQ","2022-05-27T16:17:54.437Z","phon_sim-task_switching-rhyme-same_different","","null","task_switching","<div style=""color:darkgreen; font-size:60px"">Well done!</div>","null","training","","","","","","","","","","","","","","","colorcue_switch","","","","","","","","","","","","","","","","","","",""
"","","","","","survey-text","180","5015910","0.0-128.0","A1KOBLL83SICGQ","2022-05-27T16:17:54.437Z","phon_sim-task_switching-rhyme-same_different","","6455.5","task_switching","74","{""colorcue_switch_ans"":""77""}","training","","","","","","","","","","","","","","","colorcue_switch","77","true","add","red","6","","","","","","","","","","","","","",""
"","","","","","html-keyboard-response","181","5016913","0.0-129.0","A1KOBLL83SICGQ","2022-05-27T16:17:54.437Z","phon_sim-task_switching-rhyme-same_different","","null","task_switching","<div style=""color:darkgreen; font-size:60px"">Well done!</div>","null","training","","","","","","","","","","","","","","","colorcue_switch","","","","","","","","","","","","","","","","","","",""
"","","","","","survey-text","182","5022014","0.0-130.0","A1KOBLL83SICGQ","2022-05-27T16:17:54.437Z","phon_sim-task_switching-rhyme-same_different","","5095.799999952316","task_switching","37","{""colorcue_switch_ans"":""34""}","training","","","","","","","","","","","","","","","colorcue_switch","34","true","subtract","blue","7","","","","","","","","","","","","","",""
"","","","","","html-keyboard-response","183","5023016","0.0-131.0","A1KOBLL83SICGQ","2022-05-27T16:17:54.437Z","phon_sim-task_switching-rhyme-same_different","","null","task_switching","<div style=""color:darkgreen; font-size:60px"">Well done!</div>","null","training","","","","","","","","","","","","","","","colorcue_switch","","","","","","","","","","","","","","","","","","",""
"","","","","","survey-text","184","5028037","0.0-132.0","A1KOBLL83SICGQ","2022-05-27T16:17:54.437Z","phon_sim-task_switching-rhyme-same_different","","5015.899999976158","task_switching","14","{""colorcue_switch_ans"":""17""}","training","","","","","","","","","","","","","","","colorcue_switch","17","true","add","red","8","","","","","","","","","","","","","",""
"","","","","","html-keyboard-response","185","5029045","0.0-133.0","A1KOBLL83SICGQ","2022-05-27T16:17:54.437Z","phon_sim-task_switching-rhyme-same_different","","null","task_switching","<div style=""color:darkgreen; font-size:60px"">Well done!</div>","null","training","","","","","","","","","","","","","","","colorcue_switch","","","","","","","","","","","","","","","","","","",""
"","","","","","survey-text","186","5035021","0.0-134.0","A1KOBLL83SICGQ","2022-05-27T16:17:54.437Z","phon_sim-task_switching-rhyme-same_different","","5970.5","task_switching","76","{""colorcue_switch_ans"":""73""}","training","","","","","","","","","","","","","","","colorcue_switch","73","true","subtract","blue","9","","","","","","","","","","","","","",""
"","","","","","html-keyboard-response","187","5036035","0.0-135.0","A1KOBLL83SICGQ","2022-05-27T16:17:54.437Z","phon_sim-task_switching-rhyme-same_different","","null","task_switching","<div style=""color:darkgreen; font-size:60px"">Well done!</div>","null","training","","","","","","","","","","","","","","","colorcue_switch","","","","","","","","","","","","","","","","","","",""
"","","","","","instructions","188","5066725","0.0-136.0","A1KOBLL83SICGQ","2022-05-27T16:17:54.437Z","phon_sim-task_switching-rhyme-same_different","[{""page_index"":0,""viewing_time"":30688.399999976158}]","30689","task_switching","","","","","","","","","","","","","","","","","","","","","","","","","","","","","","","","","","","","",""
"","","","","","survey-text","189","5075853","0.0-137.0","A1KOBLL83SICGQ","2022-05-27T16:17:54.437Z","phon_sim-task_switching-rhyme-same_different","","9124.5","task_switching","48","{""colorcue_switch_ans"":""51""}","experiment","","","","","","","","","","","","","","","colorcue_switch","51","true","add","red","0","","","","","","","","","","","","","",""
"","","","","","survey-text","190","5087637","0.0-138.0","A1KOBLL83SICGQ","2022-05-27T16:17:54.437Z","phon_sim-task_switching-rhyme-same_different","","11779","task_switching","41","{""colorcue_switch_ans"":""38""}","experiment","","","","","","","","","","","","","","","colorcue_switch","38","true","subtract","blue","1","","","","","","","","","","","","","",""
"","","","","","survey-text","191","5094021","0.0-139.0","A1KOBLL83SICGQ","2022-05-27T16:17:54.437Z","phon_sim-task_switching-rhyme-same_different","","6380.200000047684","task_switching","24","{""colorcue_switch_ans"":""27""}","experiment","","","","","","","","","","","","","","","colorcue_switch","27","true","add","red","2","","","","","","","","","","","","","",""
"","","","","","survey-text","192","5101029","0.0-140.0","A1KOBLL83SICGQ","2022-05-27T16:17:54.437Z","phon_sim-task_switching-rhyme-same_different","","7002.100000023842","task_switching","57","{""colorcue_switch_ans"":""54""}","experiment","","","","","","","","","","","","","","","colorcue_switch","54","true","subtract","blue","3","","","","","","","","","","","","","",""
"","","","","","survey-text","193","5106733","0.0-141.0","A1KOBLL83SICGQ","2022-05-27T16:17:54.437Z","phon_sim-task_switching-rhyme-same_different","","5700.099999904633","task_switching","53","{""colorcue_switch_ans"":""56""}","experiment","","","","","","","","","","","","","","","colorcue_switch","56","true","add","red","4","","","","","","","","","","","","","",""
"","","","","","survey-text","194","5112957","0.0-142.0","A1KOBLL83SICGQ","2022-05-27T16:17:54.437Z","phon_sim-task_switching-rhyme-same_different","","6220.599999904633","task_switching","67","{""colorcue_switch_ans"":""64""}","experiment","","","","","","","","","","","","","","","colorcue_switch","64","true","subtract","blue","5","","","","","","","","","","","","","",""
"","","","","","survey-text","195","5120828","0.0-143.0","A1KOBLL83SICGQ","2022-05-27T16:17:54.437Z","phon_sim-task_switching-rhyme-same_different","","7868.099999904633","task_switching","17","{""colorcue_switch_ans"":""20""}","experiment","","","","","","","","","","","","","","","colorcue_switch","20","true","add","red","6","","","","","","","","","","","","","",""
"","","","","","survey-text","196","5128445","0.0-144.0","A1KOBLL83SICGQ","2022-05-27T16:17:54.437Z","phon_sim-task_switching-rhyme-same_different","","7612.899999976158","task_switching","60","{""colorcue_switch_ans"":""57""}","experiment","","","","","","","","","","","","","","","colorcue_switch","57","true","subtract","blue","7","","","","","","","","","","","","","",""
"","","","","","survey-text","197","5134149","0.0-145.0","A1KOBLL83SICGQ","2022-05-27T16:17:54.437Z","phon_sim-task_switching-rhyme-same_different","","5698.200000047684","task_switching","71","{""colorcue_switch_ans"":""74""}","experiment","","","","","","","","","","","","","","","colorcue_switch","74","true","add","red","8","","","","","","","","","","","","","",""
"","","","","","survey-text","198","5139438","0.0-146.0","A1KOBLL83SICGQ","2022-05-27T16:17:54.437Z","phon_sim-task_switching-rhyme-same_different","","5283.200000047684","task_switching","45","{""colorcue_switch_ans"":""42""}","experiment","","","","","","","","","","","","","","","colorcue_switch","42","true","subtract","blue","9","","","","","","","","","","","","","",""
"","","","","","survey-text","199","5143581","0.0-147.0","A1KOBLL83SICGQ","2022-05-27T16:17:54.437Z","phon_sim-task_switching-rhyme-same_different","","4138","task_switching","42","{""colorcue_switch_ans"":""45""}","experiment","","","","","","","","","","","","","","","colorcue_switch","45","true","add","red","10","","","","","","","","","","","","","",""
"","","","","","survey-text","200","5148869","0.0-148.0","A1KOBLL83SICGQ","2022-05-27T16:17:54.437Z","phon_sim-task_switching-rhyme-same_different","","5284.799999952316","task_switching","50","{""colorcue_switch_ans"":""47""}","experiment","","","","","","","","","","","","","","","colorcue_switch","47","true","subtract","blue","11","","","","","","","","","","","","","",""
"","","","","","survey-text","201","5153350","0.0-149.0","A1KOBLL83SICGQ","2022-05-27T16:17:54.437Z","phon_sim-task_switching-rhyme-same_different","","4477.200000047684","task_switching","13","{""colorcue_switch_ans"":""17""}","experiment","","","","","","","","","","","","","","","colorcue_switch","17","false","add","red","12","","","","","","","","","","","","","",""
"","","","","","survey-text","202","5159093","0.0-150.0","A1KOBLL83SICGQ","2022-05-27T16:17:54.437Z","phon_sim-task_switching-rhyme-same_different","","5738.199999928474","task_switching","84","{""colorcue_switch_ans"":""81""}","experiment","","","","","","","","","","","","","","","colorcue_switch","81","true","subtract","blue","13","","","","","","","","","","","","","",""
"","","","","","survey-text","203","5163981","0.0-151.0","A1KOBLL83SICGQ","2022-05-27T16:17:54.437Z","phon_sim-task_switching-rhyme-same_different","","4883.299999952316","task_switching","68","{""colorcue_switch_ans"":""71""}","experiment","","","","","","","","","","","","","","","colorcue_switch","71","true","add","red","14","","","","","","","","","","","","","",""
"","","","","","survey-text","204","5168973","0.0-152.0","A1KOBLL83SICGQ","2022-05-27T16:17:54.437Z","phon_sim-task_switching-rhyme-same_different","","4989.100000023842","task_switching","56","{""colorcue_switch_ans"":""53""}","experiment","","","","","","","","","","","","","","","colorcue_switch","53","true","subtract","blue","15","","","","","","","","","","","","","",""
"","","","","","survey-text","205","5174853","0.0-153.0","A1KOBLL83SICGQ","2022-05-27T16:17:54.437Z","phon_sim-task_switching-rhyme-same_different","","5876.699999928474","task_switching","28","{""colorcue_switch_ans"":""31""}","experiment","","","","","","","","","","","","","","","colorcue_switch","31","true","add","red","16","","","","","","","","","","","","","",""
"","","","","","survey-text","206","5179405","0.0-154.0","A1KOBLL83SICGQ","2022-05-27T16:17:54.437Z","phon_sim-task_switching-rhyme-same_different","","4547.199999928474","task_switching","70","{""colorcue_switch_ans"":""67""}","experiment","","","","","","","","","","","","","","","colorcue_switch","67","true","subtract","blue","17","","","","","","","","","","","","","",""
"","","","","","survey-text","207","5186374","0.0-155.0","A1KOBLL83SICGQ","2022-05-27T16:17:54.437Z","phon_sim-task_switching-rhyme-same_different","","6964.100000023842","task_switching","96","{""colorcue_switch_ans"":""99""}","experiment","","","","","","","","","","","","","","","colorcue_switch","99","true","add","red","18","","","","","","","","","","","","","",""
"","","","","","survey-text","208","5191668","0.0-156.0","A1KOBLL83SICGQ","2022-05-27T16:17:54.437Z","phon_sim-task_switching-rhyme-same_different","","5290.300000071526","task_switching","37","{""colorcue_switch_ans"":""34""}","experiment","","","","","","","","","","","","","","","colorcue_switch","34","true","subtract","blue","19","","","","","","","","","","","","","",""
"","","","","","survey-text","209","5202909","0.0-157.0","A1KOBLL83SICGQ","2022-05-27T16:17:54.437Z","phon_sim-task_switching-rhyme-same_different","","11236.899999976158","task_switching","49","{""colorcue_switch_ans"":""52""}","experiment","","","","","","","","","","","","","","","colorcue_switch","52","true","add","red","20","","","","","","","","","","","","","",""
"","","","","","survey-text","210","5209613","0.0-158.0","A1KOBLL83SICGQ","2022-05-27T16:17:54.437Z","phon_sim-task_switching-rhyme-same_different","","6700.700000047684","task_switching","85","{""colorcue_switch_ans"":""82""}","experiment","","","","","","","","","","","","","","","colorcue_switch","82","true","subtract","blue","21","","","","","","","","","","","","","",""
"","","","","","survey-text","211","5216781","0.0-159.0","A1KOBLL83SICGQ","2022-05-27T16:17:54.437Z","phon_sim-task_switching-rhyme-same_different","","7163.600000023842","task_switching","33","{""colorcue_switch_ans"":""36""}","experiment","","","","","","","","","","","","","","","colorcue_switch","36","true","add","red","22","","","","","","","","","","","","","",""
"","","","","","survey-text","212","5225821","0.0-160.0","A1KOBLL83SICGQ","2022-05-27T16:17:54.437Z","phon_sim-task_switching-rhyme-same_different","","9036.199999928474","task_switching","47","{""colorcue_switch_ans"":""44""}","experiment","","","","","","","","","","","","","","","colorcue_switch","44","true","subtract","blue","23","","","","","","","","","","","","","",""
"","","","","","survey-text","213","5235973","0.0-161.0","A1KOBLL83SICGQ","2022-05-27T16:17:54.437Z","phon_sim-task_switching-rhyme-same_different","","10148.299999952316","task_switching","27","{""colorcue_switch_ans"":""30""}","experiment","","","","","","","","","","","","","","","colorcue_switch","30","true","add","red","24","","","","","","","","","","","","","",""
"","","","","","survey-text","214","5244589","0.0-162.0","A1KOBLL83SICGQ","2022-05-27T16:17:54.437Z","phon_sim-task_switching-rhyme-same_different","","8611.800000071526","task_switching","83","{""colorcue_switch_ans"":""80""}","experiment","","","","","","","","","","","","","","","colorcue_switch","80","true","subtract","blue","25","","","","","","","","","","","","","",""
"","","","","","survey-text","215","5258852","0.0-163.0","A1KOBLL83SICGQ","2022-05-27T16:17:54.437Z","phon_sim-task_switching-rhyme-same_different","","14259.399999976158","task_switching","81","{""colorcue_switch_ans"":""84""}","experiment","","","","","","","","","","","","","","","colorcue_switch","84","true","add","red","26","","","","","","","","","","","","","",""
"","","","","","survey-text","216","5266332","0.0-164.0","A1KOBLL83SICGQ","2022-05-27T16:17:54.437Z","phon_sim-task_switching-rhyme-same_different","","7473.799999952316","task_switching","46","{""colorcue_switch_ans"":""43""}","experiment","","","","","","","","","","","","","","","colorcue_switch","43","true","subtract","blue","27","","","","","","","","","","","","","",""
"","","","","","survey-text","217","5272724","0.0-165.0","A1KOBLL83SICGQ","2022-05-27T16:17:54.437Z","phon_sim-task_switching-rhyme-same_different","","6387.600000023842","task_switching","30","{""colorcue_switch_ans"":""33""}","experiment","","","","","","","","","","","","","","","colorcue_switch","33","true","add","red","28","","","","","","","","","","","","","",""
"","","","","","survey-text","218","5288036","0.0-166.0","A1KOBLL83SICGQ","2022-05-27T16:17:54.437Z","phon_sim-task_switching-rhyme-same_different","","15308.299999952316","task_switching","54","{""colorcue_switch_ans"":""51""}","experiment","","","","","","","","","","","","","","","colorcue_switch","51","true","subtract","blue","29","","","","","","","","","","","","","",""
"","","","","","instructions","219","5307060","0.0-167.0","A1KOBLL83SICGQ","2022-05-27T16:17:54.437Z","phon_sim-task_switching-rhyme-same_different","[{""page_index"":0,""viewing_time"":19021.899999976158}]","19022.399999976158","task_switching","","","","","","","","","","","","","","","","","","","","","","","","","","","","","","","","","","","","",""
"","","","","","survey-text","220","5313652","0.0-168.0","A1KOBLL83SICGQ","2022-05-27T16:17:54.437Z","phon_sim-task_switching-rhyme-same_different","","6588.100000023842","task_switching","47","{""symbolcue_switch_ans"":""50""}","training","","","","","","","","","","","","","","","symbolcue_switch","50","true","add","","0","+","","","","","","","","","","","","",""
"","","","","","html-keyboard-response","221","5314667","0.0-169.0","A1KOBLL83SICGQ","2022-05-27T16:17:54.437Z","phon_sim-task_switching-rhyme-same_different","","null","task_switching","<div style=""color:darkgreen; font-size:60px"">Well done!</div>","null","training","","","","","","","","","","","","","","","symbolcue_switch","","","","","","","","","","","","","","","","","","",""
"","","","","","survey-text","222","5322828","0.0-170.0","A1KOBLL83SICGQ","2022-05-27T16:17:54.437Z","phon_sim-task_switching-rhyme-same_different","","8157.200000047684","task_switching","40","{""symbolcue_switch_ans"":""37""}","training","","","","","","","","","","","","","","","symbolcue_switch","37","true","subtract","","1","-","","","","","","","","","","","","",""
"","","","","","html-keyboard-response","223","5323832","0.0-171.0","A1KOBLL83SICGQ","2022-05-27T16:17:54.437Z","phon_sim-task_switching-rhyme-same_different","","null","task_switching","<div style=""color:darkgreen; font-size:60px"">Well done!</div>","null","training","","","","","","","","","","","","","","","symbolcue_switch","","","","","","","","","","","","","","","","","","",""
"","","","","","survey-text","224","5328300","0.0-172.0","A1KOBLL83SICGQ","2022-05-27T16:17:54.437Z","phon_sim-task_switching-rhyme-same_different","","4462.800000071526","task_switching","22","{""symbolcue_switch_ans"":""25""}","training","","","","","","","","","","","","","","","symbolcue_switch","25","true","add","","2","+","","","","","","","","","","","","",""
"","","","","","html-keyboard-response","225","5329308","0.0-173.0","A1KOBLL83SICGQ","2022-05-27T16:17:54.437Z","phon_sim-task_switching-rhyme-same_different","","null","task_switching","<div style=""color:darkgreen; font-size:60px"">Well done!</div>","null","training","","","","","","","","","","","","","","","symbolcue_switch","","","","","","","","","","","","","","","","","","",""
"","","","","","survey-text","226","5337204","0.0-174.0","A1KOBLL83SICGQ","2022-05-27T16:17:54.437Z","phon_sim-task_switching-rhyme-same_different","","7892.100000023842","task_switching","37","{""symbolcue_switch_ans"":""34""}","training","","","","","","","","","","","","","","","symbolcue_switch","34","true","subtract","","3","-","","","","","","","","","","","","",""
"","","","","","html-keyboard-response","227","5338214","0.0-175.0","A1KOBLL83SICGQ","2022-05-27T16:17:54.437Z","phon_sim-task_switching-rhyme-same_different","","null","task_switching","<div style=""color:darkgreen; font-size:60px"">Well done!</div>","null","training","","","","","","","","","","","","","","","symbolcue_switch","","","","","","","","","","","","","","","","","","",""
"","","","","","survey-text","228","5345900","0.0-176.0","A1KOBLL83SICGQ","2022-05-27T16:17:54.437Z","phon_sim-task_switching-rhyme-same_different","","7681.399999976158","task_switching","41","{""symbolcue_switch_ans"":""44""}","training","","","","","","","","","","","","","","","symbolcue_switch","44","true","add","","4","+","","","","","","","","","","","","",""
"","","","","","html-keyboard-response","229","5346903","0.0-177.0","A1KOBLL83SICGQ","2022-05-27T16:17:54.437Z","phon_sim-task_switching-rhyme-same_different","","null","task_switching","<div style=""color:darkgreen; font-size:60px"">Well done!</div>","null","training","","","","","","","","","","","","","","","symbolcue_switch","","","","","","","","","","","","","","","","","","",""
"","","","","","survey-text","230","5385691","0.0-178.0","A1KOBLL83SICGQ","2022-05-27T16:17:54.437Z","phon_sim-task_switching-rhyme-same_different","","38782.700000047684","task_switching","80","{""symbolcue_switch_ans"":""77""}","training","","","","","","","","","","","","","","","symbolcue_switch","77","true","subtract","","5","-","","","","","","","","","","","","",""
"","","","","","html-keyboard-response","231","5386694","0.0-179.0","A1KOBLL83SICGQ","2022-05-27T16:17:54.437Z","phon_sim-task_switching-rhyme-same_different","","null","task_switching","<div style=""color:darkgreen; font-size:60px"">Well done!</div>","null","training","","","","","","","","","","","","","","","symbolcue_switch","","","","","","","","","","","","","","","","","","",""
"","","","","","survey-text","232","5396995","0.0-180.0","A1KOBLL83SICGQ","2022-05-27T16:17:54.437Z","phon_sim-task_switching-rhyme-same_different","","10295","task_switching","28","{""symbolcue_switch_ans"":""31""}","training","","","","","","","","","","","","","","","symbolcue_switch","31","true","add","","6","+","","","","","","","","","","","","",""
"","","","","","html-keyboard-response","233","5398009","0.0-181.0","A1KOBLL83SICGQ","2022-05-27T16:17:54.437Z","phon_sim-task_switching-rhyme-same_different","","null","task_switching","<div style=""color:darkgreen; font-size:60px"">Well done!</div>","null","training","","","","","","","","","","","","","","","symbolcue_switch","","","","","","","","","","","","","","","","","","",""
"","","","","","survey-text","234","5404123","0.0-182.0","A1KOBLL83SICGQ","2022-05-27T16:17:54.437Z","phon_sim-task_switching-rhyme-same_different","","6107.699999928474","task_switching","84","{""symbolcue_switch_ans"":""81""}","training","","","","","","","","","","","","","","","symbolcue_switch","81","true","subtract","","7","-","","","","","","","","","","","","",""
"","","","","","html-keyboard-response","235","5405127","0.0-183.0","A1KOBLL83SICGQ","2022-05-27T16:17:54.437Z","phon_sim-task_switching-rhyme-same_different","","null","task_switching","<div style=""color:darkgreen; font-size:60px"">Well done!</div>","null","training","","","","","","","","","","","","","","","symbolcue_switch","","","","","","","","","","","","","","","","","","",""
"","","","","","survey-text","236","5413867","0.0-184.0","A1KOBLL83SICGQ","2022-05-27T16:17:54.437Z","phon_sim-task_switching-rhyme-same_different","","8732.800000071526","task_switching","76","{""symbolcue_switch_ans"":""79""}","training","","","","","","","","","","","","","","","symbolcue_switch","79","true","add","","8","+","","","","","","","","","","","","",""
