"success","timeout","failed_images","failed_audio","failed_video","trial_type","trial_index","time_elapsed","internal_node_id","worker_id","start_time","experiment_order","view_history","rt","experiment","stimulus","response","phase","word_1","word_2","word_3","word_4","word_5","original_word_set","response_1","response_2","response_3","response_4","response_5","question_order","talk_out_loud","strategy_free_ans","wait_time","correct","image_1","image_2","cor_key","type","condition","answer","operation","symbol_cue","trial_no","color_cue","judgment_type","stim_1","stim_2","inverted","true_pos","true_neg","false_pos","false_neg"
"true","false","[]","[]","[]","preload","0","4459","0.0-0.0","A1Q56N80RJLQ7S","2022-05-26T23:30:14.611Z","phon_sim-rhyme-task_switching-same_different","","","","","","","","","","","","","","","","","","","","","","","","","","","","","","","","","","","","","","","",""
"","","","","","instructions","1","12110","0.0-1.0","A1Q56N80RJLQ7S","2022-05-26T23:30:14.611Z","phon_sim-rhyme-task_switching-same_different","[{""page_index"":0,""viewing_time"":7650.199999988079}]","7650.5","","","","","","","","","","","","","","","","","","","","","","","","","","","","","","","","","","","","","",""
"true","","","","","fullscreen","2","14576","0.0-2.0","A1Q56N80RJLQ7S","2022-05-26T23:30:14.611Z","phon_sim-rhyme-task_switching-same_different","","","","","","","","","","","","","","","","","","","","","","","","","","","","","","","","","","","","","","","",""
"","","","","","instructions","3","21977","0.0-3.0","A1Q56N80RJLQ7S","2022-05-26T23:30:14.611Z","phon_sim-rhyme-task_switching-same_different","[{""page_index"":0,""viewing_time"":7399.799999952316}]","7400.099999964237","phon_sim","","","","","","","","","","","","","","","","","","","","","","","","","","","","","","","","","","","","",""
"","","","","","html-keyboard-response","4","34980","0.0-4.0-0.0","A1Q56N80RJLQ7S","2022-05-26T23:30:14.611Z","phon_sim-rhyme-task_switching-same_different","","null","phon_sim","<div style=""display:grid""><h1 id=""word_1"" style=""grid-column:1; grid-row:1"">mad</h1><h1 id=""word_2"" style=""visibility:hidden;grid-column:1; grid-row:1"">man</h1><h1 id=""word_3"" style=""visibility:hidden;grid-column:1; grid-row:1"">map</h1><h1 id=""word_4"" style=""visibility:hidden;grid-column:1; grid-row:1"">mat</h1><h1 id=""word_5"" style=""visibility:hidden;grid-column:1; grid-row:1"">max</h1></div>","null","training","mad","man","map","mat","max","training","","","","","","","","","","","","","","","","","","","","","","","","","","","",""
"","","","","","survey-text","5","41020","0.0-4.0-1.0","A1Q56N80RJLQ7S","2022-05-26T23:30:14.611Z","phon_sim-rhyme-task_switching-same_different","","6037.099999964237","phon_sim","","{""position_1"":""mad"",""position_2"":""man"",""position_3"":""map"",""position_4"":""mat"",""position_5"":""max""}","training","","","","","","","mad","man","map","mat","max","","","","","","","","","","","","","","","","","","","","","","",""
"","","","","","html-keyboard-response","6","46021","0.0-4.0-2.0","A1Q56N80RJLQ7S","2022-05-26T23:30:14.611Z","phon_sim-rhyme-task_switching-same_different","","null","phon_sim","<h1 id=""word_1"">mad</h1><h1 id=""word_2"">man</h1><h1 id=""word_3"">map</h1><h1 id=""word_4"">mat</h1><h1 id=""word_5"">max</h1>","null","","","","","","","","","","","","","","","","","","","","","","","","","","","","","","","","","","",""
"","","","","","html-keyboard-response","7","59023","0.0-4.0-0.1","A1Q56N80RJLQ7S","2022-05-26T23:30:14.611Z","phon_sim-rhyme-task_switching-same_different","","null","phon_sim","<div style=""display:grid""><h1 id=""word_1"" style=""grid-column:1; grid-row:1"">pen</h1><h1 id=""word_2"" style=""visibility:hidden;grid-column:1; grid-row:1"">rig</h1><h1 id=""word_3"" style=""visibility:hidden;grid-column:1; grid-row:1"">day</h1><h1 id=""word_4"" style=""visibility:hidden;grid-column:1; grid-row:1"">bar</h1><h1 id=""word_5"" style=""visibility:hidden;grid-column:1; grid-row:1"">cow</h1></div>","null","training","pen","rig","day","bar","cow","training","","","","","","","","","","","","","","","","","","","","","","","","","","","",""
"","","","","","survey-text","8","64221","0.0-4.0-1.1","A1Q56N80RJLQ7S","2022-05-26T23:30:14.611Z","phon_sim-rhyme-task_switching-same_different","","5195","phon_sim","","{""position_1"":""rig"",""position_2"":""bear"",""position_3"":""bar"",""position_4"":""pig"",""position_5"":""cow""}","training","","","","","","","rig","bear","bar","pig","cow","","","","","","","","","","","","","","","","","","","","","","",""
"","","","","","html-keyboard-response","9","69222","0.0-4.0-2.1","A1Q56N80RJLQ7S","2022-05-26T23:30:14.611Z","phon_sim-rhyme-task_switching-same_different","","null","phon_sim","<h1 id=""word_1"">pen</h1><h1 id=""word_2"">rig</h1><h1 id=""word_3"">day</h1><h1 id=""word_4"">bar</h1><h1 id=""word_5"">cow</h1>","null","","","","","","","","","","","","","","","","","","","","","","","","","","","","","","","","","","",""
"","","","","","instructions","10","70895","0.0-5.0","A1Q56N80RJLQ7S","2022-05-26T23:30:14.611Z","phon_sim-rhyme-task_switching-same_different","[{""page_index"":0,""viewing_time"":1672.5}]","1672.800000011921","","","","","","","","","","","","","","","","","","","","","","","","","","","","","","","","","","","","","",""
"","","","","","html-keyboard-response","11","83897","0.0-6.0-0.0","A1Q56N80RJLQ7S","2022-05-26T23:30:14.611Z","phon_sim-rhyme-task_switching-same_different","","null","phon_sim","<div style=""display:grid""><h1 id=""word_1"" style=""grid-column:1; grid-row:1"">sleigh</h1><h1 id=""word_2"" style=""visibility:hidden;grid-column:1; grid-row:1"">board</h1><h1 id=""word_3"" style=""visibility:hidden;grid-column:1; grid-row:1"">row</h1><h1 id=""word_4"" style=""visibility:hidden;grid-column:1; grid-row:1"">friend</h1><h1 id=""word_5"" style=""visibility:hidden;grid-column:1; grid-row:1"">plea</h1></div>","null","experiment","sleigh","board","row","friend","plea","controlSet","","","","","","","","","","","","","","","","","","","","","","","","","","","",""
"","","","","","survey-text","12","88233","0.0-6.0-1.0","A1Q56N80RJLQ7S","2022-05-26T23:30:14.611Z","phon_sim-rhyme-task_switching-same_different","","4332.899999976158","phon_sim","","{""position_1"":""sleigh"",""position_2"":""board"",""position_3"":""row"",""position_4"":""friend"",""position_5"":""plea""}","experiment","","","","","","","sleigh","board","row","friend","plea","","","","","","","","","","","","","","","","","","","","","","",""
"","","","","","html-keyboard-response","13","101235","0.0-6.0-0.1","A1Q56N80RJLQ7S","2022-05-26T23:30:14.611Z","phon_sim-rhyme-task_switching-same_different","","null","phon_sim","<div style=""display:grid""><h1 id=""word_1"" style=""grid-column:1; grid-row:1"">dough</h1><h1 id=""word_2"" style=""visibility:hidden;grid-column:1; grid-row:1"">cough</h1><h1 id=""word_3"" style=""visibility:hidden;grid-column:1; grid-row:1"">rough</h1><h1 id=""word_4"" style=""visibility:hidden;grid-column:1; grid-row:1"">bough</h1><h1 id=""word_5"" style=""visibility:hidden;grid-column:1; grid-row:1"">through</h1></div>","null","experiment","dough","cough","rough","bough","through","orthoSet","","","","","","","","","","","","","","","","","","","","","","","","","","","",""
"","","","","","survey-text","14","106677","0.0-6.0-1.1","A1Q56N80RJLQ7S","2022-05-26T23:30:14.611Z","phon_sim-rhyme-task_switching-same_different","","5439.800000011921","phon_sim","","{""position_1"":""dough"",""position_2"":""cough"",""position_3"":""rough"",""position_4"":""bough"",""position_5"":""through""}","experiment","","","","","","","dough","cough","rough","bough","through","","","","","","","","","","","","","","","","","","","","","","",""
"","","","","","html-keyboard-response","15","119679","0.0-6.0-0.2","A1Q56N80RJLQ7S","2022-05-26T23:30:14.611Z","phon_sim-rhyme-task_switching-same_different","","null","phon_sim","<div style=""display:grid""><h1 id=""word_1"" style=""grid-column:1; grid-row:1"">dough</h1><h1 id=""word_2"" style=""visibility:hidden;grid-column:1; grid-row:1"">rough</h1><h1 id=""word_3"" style=""visibility:hidden;grid-column:1; grid-row:1"">cough</h1><h1 id=""word_4"" style=""visibility:hidden;grid-column:1; grid-row:1"">bough</h1><h1 id=""word_5"" style=""visibility:hidden;grid-column:1; grid-row:1"">through</h1></div>","null","experiment","dough","rough","cough","bough","through","orthoSet","","","","","","","","","","","","","","","","","","","","","","","","","","","",""
"","","","","","survey-text","16","126450","0.0-6.0-1.2","A1Q56N80RJLQ7S","2022-05-26T23:30:14.611Z","phon_sim-rhyme-task_switching-same_different","","6768.099999964237","phon_sim","","{""position_1"":""dough"",""position_2"":""rough"",""position_3"":""cough"",""position_4"":""bough"",""position_5"":""through""}","experiment","","","","","","","dough","rough","cough","bough","through","","","","","","","","","","","","","","","","","","","","","","",""
"","","","","","html-keyboard-response","17","139452","0.0-6.0-0.3","A1Q56N80RJLQ7S","2022-05-26T23:30:14.611Z","phon_sim-rhyme-task_switching-same_different","","null","phon_sim","<div style=""display:grid""><h1 id=""word_1"" style=""grid-column:1; grid-row:1"">dough</h1><h1 id=""word_2"" style=""visibility:hidden;grid-column:1; grid-row:1"">rough</h1><h1 id=""word_3"" style=""visibility:hidden;grid-column:1; grid-row:1"">through</h1><h1 id=""word_4"" style=""visibility:hidden;grid-column:1; grid-row:1"">bough</h1><h1 id=""word_5"" style=""visibility:hidden;grid-column:1; grid-row:1"">cough</h1></div>","null","experiment","dough","rough","through","bough","cough","orthoSet","","","","","","","","","","","","","","","","","","","","","","","","","","","",""
"","","","","","survey-text","18","145985","0.0-6.0-1.3","A1Q56N80RJLQ7S","2022-05-26T23:30:14.611Z","phon_sim-rhyme-task_switching-same_different","","6530.099999964237","phon_sim","","{""position_1"":""dough"",""position_2"":""rough"",""position_3"":""through"",""position_4"":""bough"",""position_5"":""cough""}","experiment","","","","","","","dough","rough","through","bough","cough","","","","","","","","","","","","","","","","","","","","","","",""
"","","","","","html-keyboard-response","19","158987","0.0-6.0-0.4","A1Q56N80RJLQ7S","2022-05-26T23:30:14.611Z","phon_sim-rhyme-task_switching-same_different","","null","phon_sim","<div style=""display:grid""><h1 id=""word_1"" style=""grid-column:1; grid-row:1"">taut</h1><h1 id=""word_2"" style=""visibility:hidden;grid-column:1; grid-row:1"">caught</h1><h1 id=""word_3"" style=""visibility:hidden;grid-column:1; grid-row:1"">sort</h1><h1 id=""word_4"" style=""visibility:hidden;grid-column:1; grid-row:1"">wart</h1><h1 id=""word_5"" style=""visibility:hidden;grid-column:1; grid-row:1"">bought</h1></div>","null","experiment","taut","caught","sort","wart","bought","phonSet","","","","","","","","","","","","","","","","","","","","","","","","","","","",""
"","","","","","survey-text","20","167254","0.0-6.0-1.4","A1Q56N80RJLQ7S","2022-05-26T23:30:14.611Z","phon_sim-rhyme-task_switching-same_different","","8264.300000011921","phon_sim","","{""position_1"":""taught"",""position_2"":""caught"",""position_3"":""sort"",""position_4"":""wart"",""position_5"":""bought""}","experiment","","","","","","","taught","caught","sort","wart","bought","","","","","","","","","","","","","","","","","","","","","","",""
"","","","","","html-keyboard-response","21","180256","0.0-6.0-0.5","A1Q56N80RJLQ7S","2022-05-26T23:30:14.611Z","phon_sim-rhyme-task_switching-same_different","","null","phon_sim","<div style=""display:grid""><h1 id=""word_1"" style=""grid-column:1; grid-row:1"">wart</h1><h1 id=""word_2"" style=""visibility:hidden;grid-column:1; grid-row:1"">taut</h1><h1 id=""word_3"" style=""visibility:hidden;grid-column:1; grid-row:1"">caught</h1><h1 id=""word_4"" style=""visibility:hidden;grid-column:1; grid-row:1"">bought</h1><h1 id=""word_5"" style=""visibility:hidden;grid-column:1; grid-row:1"">sort</h1></div>","null","experiment","wart","taut","caught","bought","sort","phonSet","","","","","","","","","","","","","","","","","","","","","","","","","","","",""
"","","","","","survey-text","22","185169","0.0-6.0-1.5","A1Q56N80RJLQ7S","2022-05-26T23:30:14.611Z","phon_sim-rhyme-task_switching-same_different","","4910.100000023842","phon_sim","","{""position_1"":""wart"",""position_2"":""taut"",""position_3"":""caught"",""position_4"":""bought"",""position_5"":""plea""}","experiment","","","","","","","wart","taut","caught","bought","plea","","","","","","","","","","","","","","","","","","","","","","",""
"","","","","","html-keyboard-response","23","198172","0.0-6.0-0.6","A1Q56N80RJLQ7S","2022-05-26T23:30:14.611Z","phon_sim-rhyme-task_switching-same_different","","null","phon_sim","<div style=""display:grid""><h1 id=""word_1"" style=""grid-column:1; grid-row:1"">through</h1><h1 id=""word_2"" style=""visibility:hidden;grid-column:1; grid-row:1"">cough</h1><h1 id=""word_3"" style=""visibility:hidden;grid-column:1; grid-row:1"">bough</h1><h1 id=""word_4"" style=""visibility:hidden;grid-column:1; grid-row:1"">rough</h1><h1 id=""word_5"" style=""visibility:hidden;grid-column:1; grid-row:1"">dough</h1></div>","null","experiment","through","cough","bough","rough","dough","orthoSet","","","","","","","","","","","","","","","","","","","","","","","","","","","",""
"","","","","","survey-text","24","206116","0.0-6.0-1.6","A1Q56N80RJLQ7S","2022-05-26T23:30:14.611Z","phon_sim-rhyme-task_switching-same_different","","7941.300000011921","phon_sim","","{""position_1"":""through"",""position_2"":""cough"",""position_3"":""bough"",""position_4"":""rough"",""position_5"":""dough""}","experiment","","","","","","","through","cough","bough","rough","dough","","","","","","","","","","","","","","","","","","","","","","",""
"","","","","","html-keyboard-response","25","219118","0.0-6.0-0.7","A1Q56N80RJLQ7S","2022-05-26T23:30:14.611Z","phon_sim-rhyme-task_switching-same_different","","null","phon_sim","<div style=""display:grid""><h1 id=""word_1"" style=""grid-column:1; grid-row:1"">bought</h1><h1 id=""word_2"" style=""visibility:hidden;grid-column:1; grid-row:1"">wart</h1><h1 id=""word_3"" style=""visibility:hidden;grid-column:1; grid-row:1"">sort</h1><h1 id=""word_4"" style=""visibility:hidden;grid-column:1; grid-row:1"">caught</h1><h1 id=""word_5"" style=""visibility:hidden;grid-column:1; grid-row:1"">taut</h1></div>","null","experiment","bought","wart","sort","caught","taut","phonSet","","","","","","","","","","","","","","","","","","","","","","","","","","","",""
"","","","","","survey-text","26","224893","0.0-6.0-1.7","A1Q56N80RJLQ7S","2022-05-26T23:30:14.611Z","phon_sim-rhyme-task_switching-same_different","","5772.299999952316","phon_sim","","{""position_1"":""wart"",""position_2"":""sort"",""position_3"":""caught"",""position_4"":""bought"",""position_5"":""taught""}","experiment","","","","","","","wart","sort","caught","bought","taught","","","","","","","","","","","","","","","","","","","","","","",""
"","","","","","html-keyboard-response","27","237895","0.0-6.0-0.8","A1Q56N80RJLQ7S","2022-05-26T23:30:14.611Z","phon_sim-rhyme-task_switching-same_different","","null","phon_sim","<div style=""display:grid""><h1 id=""word_1"" style=""grid-column:1; grid-row:1"">friend</h1><h1 id=""word_2"" style=""visibility:hidden;grid-column:1; grid-row:1"">row</h1><h1 id=""word_3"" style=""visibility:hidden;grid-column:1; grid-row:1"">sleigh</h1><h1 id=""word_4"" style=""visibility:hidden;grid-column:1; grid-row:1"">board</h1><h1 id=""word_5"" style=""visibility:hidden;grid-column:1; grid-row:1"">plea</h1></div>","null","experiment","friend","row","sleigh","board","plea","controlSet","","","","","","","","","","","","","","","","","","","","","","","","","","","",""
"","","","","","survey-text","28","245193","0.0-6.0-1.8","A1Q56N80RJLQ7S","2022-05-26T23:30:14.611Z","phon_sim-rhyme-task_switching-same_different","","7295.199999988079","phon_sim","","{""position_1"":""friend"",""position_2"":""row"",""position_3"":""sleigh"",""position_4"":""board"",""position_5"":""plea""}","experiment","","","","","","","friend","row","sleigh","board","plea","","","","","","","","","","","","","","","","","","","","","","",""
"","","","","","html-keyboard-response","29","258195","0.0-6.0-0.9","A1Q56N80RJLQ7S","2022-05-26T23:30:14.611Z","phon_sim-rhyme-task_switching-same_different","","null","phon_sim","<div style=""display:grid""><h1 id=""word_1"" style=""grid-column:1; grid-row:1"">caught</h1><h1 id=""word_2"" style=""visibility:hidden;grid-column:1; grid-row:1"">sort</h1><h1 id=""word_3"" style=""visibility:hidden;grid-column:1; grid-row:1"">wart</h1><h1 id=""word_4"" style=""visibility:hidden;grid-column:1; grid-row:1"">bought</h1><h1 id=""word_5"" style=""visibility:hidden;grid-column:1; grid-row:1"">taut</h1></div>","null","experiment","caught","sort","wart","bought","taut","phonSet","","","","","","","","","","","","","","","","","","","","","","","","","","","",""
"","","","","","survey-text","30","263877","0.0-6.0-1.9","A1Q56N80RJLQ7S","2022-05-26T23:30:14.611Z","phon_sim-rhyme-task_switching-same_different","","5679.300000011921","phon_sim","","{""position_1"":""sort"",""position_2"":""wart"",""position_3"":""bought"",""position_4"":""taut"",""position_5"":""plea""}","experiment","","","","","","","sort","wart","bought","taut","plea","","","","","","","","","","","","","","","","","","","","","","",""
"","","","","","html-keyboard-response","31","276880","0.0-6.0-0.10","A1Q56N80RJLQ7S","2022-05-26T23:30:14.611Z","phon_sim-rhyme-task_switching-same_different","","null","phon_sim","<div style=""display:grid""><h1 id=""word_1"" style=""grid-column:1; grid-row:1"">rough</h1><h1 id=""word_2"" style=""visibility:hidden;grid-column:1; grid-row:1"">through</h1><h1 id=""word_3"" style=""visibility:hidden;grid-column:1; grid-row:1"">bough</h1><h1 id=""word_4"" style=""visibility:hidden;grid-column:1; grid-row:1"">dough</h1><h1 id=""word_5"" style=""visibility:hidden;grid-column:1; grid-row:1"">cough</h1></div>","null","experiment","rough","through","bough","dough","cough","orthoSet","","","","","","","","","","","","","","","","","","","","","","","","","","","",""
"","","","","","survey-text","32","284942","0.0-6.0-1.10","A1Q56N80RJLQ7S","2022-05-26T23:30:14.611Z","phon_sim-rhyme-task_switching-same_different","","8058.300000011921","phon_sim","","{""position_1"":""rough"",""position_2"":""through"",""position_3"":""bough"",""position_4"":""dough"",""position_5"":""cough""}","experiment","","","","","","","rough","through","bough","dough","cough","","","","","","","","","","","","","","","","","","","","","","",""
"","","","","","html-keyboard-response","33","297944","0.0-6.0-0.11","A1Q56N80RJLQ7S","2022-05-26T23:30:14.611Z","phon_sim-rhyme-task_switching-same_different","","null","phon_sim","<div style=""display:grid""><h1 id=""word_1"" style=""grid-column:1; grid-row:1"">board</h1><h1 id=""word_2"" style=""visibility:hidden;grid-column:1; grid-row:1"">plea</h1><h1 id=""word_3"" style=""visibility:hidden;grid-column:1; grid-row:1"">sleigh</h1><h1 id=""word_4"" style=""visibility:hidden;grid-column:1; grid-row:1"">friend</h1><h1 id=""word_5"" style=""visibility:hidden;grid-column:1; grid-row:1"">row</h1></div>","null","experiment","board","plea","sleigh","friend","row","controlSet","","","","","","","","","","","","","","","","","","","","","","","","","","","",""
"","","","","","survey-text","34","303214","0.0-6.0-1.11","A1Q56N80RJLQ7S","2022-05-26T23:30:14.611Z","phon_sim-rhyme-task_switching-same_different","","5267.699999988079","phon_sim","","{""position_1"":""board"",""position_2"":""plea"",""position_3"":""sleigh"",""position_4"":""friend"",""position_5"":""row""}","experiment","","","","","","","board","plea","sleigh","friend","row","","","","","","","","","","","","","","","","","","","","","","",""
"","","","","","html-keyboard-response","35","316216","0.0-6.0-0.12","A1Q56N80RJLQ7S","2022-05-26T23:30:14.611Z","phon_sim-rhyme-task_switching-same_different","","null","phon_sim","<div style=""display:grid""><h1 id=""word_1"" style=""grid-column:1; grid-row:1"">board</h1><h1 id=""word_2"" style=""visibility:hidden;grid-column:1; grid-row:1"">plea</h1><h1 id=""word_3"" style=""visibility:hidden;grid-column:1; grid-row:1"">row</h1><h1 id=""word_4"" style=""visibility:hidden;grid-column:1; grid-row:1"">friend</h1><h1 id=""word_5"" style=""visibility:hidden;grid-column:1; grid-row:1"">sleigh</h1></div>","null","experiment","board","plea","row","friend","sleigh","controlSet","","","","","","","","","","","","","","","","","","","","","","","","","","","",""
"","","","","","survey-text","36","322067","0.0-6.0-1.12","A1Q56N80RJLQ7S","2022-05-26T23:30:14.611Z","phon_sim-rhyme-task_switching-same_different","","5848.699999988079","phon_sim","","{""position_1"":""board"",""position_2"":""plea"",""position_3"":""row"",""position_4"":""friend"",""position_5"":""sleigh""}","experiment","","","","","","","board","plea","row","friend","sleigh","","","","","","","","","","","","","","","","","","","","","","",""
"","","","","","html-keyboard-response","37","335069","0.0-6.0-0.13","A1Q56N80RJLQ7S","2022-05-26T23:30:14.611Z","phon_sim-rhyme-task_switching-same_different","","null","phon_sim","<div style=""display:grid""><h1 id=""word_1"" style=""grid-column:1; grid-row:1"">sleigh</h1><h1 id=""word_2"" style=""visibility:hidden;grid-column:1; grid-row:1"">row</h1><h1 id=""word_3"" style=""visibility:hidden;grid-column:1; grid-row:1"">board</h1><h1 id=""word_4"" style=""visibility:hidden;grid-column:1; grid-row:1"">friend</h1><h1 id=""word_5"" style=""visibility:hidden;grid-column:1; grid-row:1"">plea</h1></div>","null","experiment","sleigh","row","board","friend","plea","controlSet","","","","","","","","","","","","","","","","","","","","","","","","","","","",""
"","","","","","survey-text","38","340179","0.0-6.0-1.13","A1Q56N80RJLQ7S","2022-05-26T23:30:14.611Z","phon_sim-rhyme-task_switching-same_different","","5107","phon_sim","","{""position_1"":""sleigh"",""position_2"":""row"",""position_3"":""board"",""position_4"":""friend"",""position_5"":""plea""}","experiment","","","","","","","sleigh","row","board","friend","plea","","","","","","","","","","","","","","","","","","","","","","",""
"","","","","","html-keyboard-response","39","353181","0.0-6.0-0.14","A1Q56N80RJLQ7S","2022-05-26T23:30:14.611Z","phon_sim-rhyme-task_switching-same_different","","null","phon_sim","<div style=""display:grid""><h1 id=""word_1"" style=""grid-column:1; grid-row:1"">sort</h1><h1 id=""word_2"" style=""visibility:hidden;grid-column:1; grid-row:1"">caught</h1><h1 id=""word_3"" style=""visibility:hidden;grid-column:1; grid-row:1"">taut</h1><h1 id=""word_4"" style=""visibility:hidden;grid-column:1; grid-row:1"">wart</h1><h1 id=""word_5"" style=""visibility:hidden;grid-column:1; grid-row:1"">bought</h1></div>","null","experiment","sort","caught","taut","wart","bought","phonSet","","","","","","","","","","","","","","","","","","","","","","","","","","","",""
"","","","","","survey-text","40","358756","0.0-6.0-1.14","A1Q56N80RJLQ7S","2022-05-26T23:30:14.611Z","phon_sim-rhyme-task_switching-same_different","","5571.699999988079","phon_sim","","{""position_1"":""sort"",""position_2"":""caught"",""position_3"":""taut"",""position_4"":""wart"",""position_5"":""bought""}","experiment","","","","","","","sort","caught","taut","wart","bought","","","","","","","","","","","","","","","","","","","","","","",""
"","","","","","html-keyboard-response","41","371758","0.0-6.0-0.15","A1Q56N80RJLQ7S","2022-05-26T23:30:14.611Z","phon_sim-rhyme-task_switching-same_different","","null","phon_sim","<div style=""display:grid""><h1 id=""word_1"" style=""grid-column:1; grid-row:1"">bought</h1><h1 id=""word_2"" style=""visibility:hidden;grid-column:1; grid-row:1"">taut</h1><h1 id=""word_3"" style=""visibility:hidden;grid-column:1; grid-row:1"">caught</h1><h1 id=""word_4"" style=""visibility:hidden;grid-column:1; grid-row:1"">wart</h1><h1 id=""word_5"" style=""visibility:hidden;grid-column:1; grid-row:1"">sort</h1></div>","null","experiment","bought","taut","caught","wart","sort","phonSet","","","","","","","","","","","","","","","","","","","","","","","","","","","",""
"","","","","","survey-text","42","376497","0.0-6.0-1.15","A1Q56N80RJLQ7S","2022-05-26T23:30:14.611Z","phon_sim-rhyme-task_switching-same_different","","4735.899999976158","phon_sim","","{""position_1"":""bought"",""position_2"":""taut"",""position_3"":""caught"",""position_4"":""wart"",""position_5"":""sort""}","experiment","","","","","","","bought","taut","caught","wart","sort","","","","","","","","","","","","","","","","","","","","","","",""
"","","","","","html-keyboard-response","43","389499","0.0-6.0-0.16","A1Q56N80RJLQ7S","2022-05-26T23:30:14.611Z","phon_sim-rhyme-task_switching-same_different","","null","phon_sim","<div style=""display:grid""><h1 id=""word_1"" style=""grid-column:1; grid-row:1"">row</h1><h1 id=""word_2"" style=""visibility:hidden;grid-column:1; grid-row:1"">friend</h1><h1 id=""word_3"" style=""visibility:hidden;grid-column:1; grid-row:1"">board</h1><h1 id=""word_4"" style=""visibility:hidden;grid-column:1; grid-row:1"">plea</h1><h1 id=""word_5"" style=""visibility:hidden;grid-column:1; grid-row:1"">sleigh</h1></div>","null","experiment","row","friend","board","plea","sleigh","controlSet","","","","","","","","","","","","","","","","","","","","","","","","","","","",""
"","","","","","survey-text","44","394609","0.0-6.0-1.16","A1Q56N80RJLQ7S","2022-05-26T23:30:14.611Z","phon_sim-rhyme-task_switching-same_different","","5107.300000011921","phon_sim","","{""position_1"":""sort"",""position_2"":""friend"",""position_3"":""board"",""position_4"":""plea"",""position_5"":""sleigh""}","experiment","","","","","","","sort","friend","board","plea","sleigh","","","","","","","","","","","","","","","","","","","","","","",""
"","","","","","html-keyboard-response","45","407611","0.0-6.0-0.17","A1Q56N80RJLQ7S","2022-05-26T23:30:14.611Z","phon_sim-rhyme-task_switching-same_different","","null","phon_sim","<div style=""display:grid""><h1 id=""word_1"" style=""grid-column:1; grid-row:1"">through</h1><h1 id=""word_2"" style=""visibility:hidden;grid-column:1; grid-row:1"">bough</h1><h1 id=""word_3"" style=""visibility:hidden;grid-column:1; grid-row:1"">dough</h1><h1 id=""word_4"" style=""visibility:hidden;grid-column:1; grid-row:1"">rough</h1><h1 id=""word_5"" style=""visibility:hidden;grid-column:1; grid-row:1"">cough</h1></div>","null","experiment","through","bough","dough","rough","cough","orthoSet","","","","","","","","","","","","","","","","","","","","","","","","","","","",""
"","","","","","survey-text","46","413472","0.0-6.0-1.17","A1Q56N80RJLQ7S","2022-05-26T23:30:14.611Z","phon_sim-rhyme-task_switching-same_different","","5857.900000035763","phon_sim","","{""position_1"":""through"",""position_2"":""bough"",""position_3"":""dough"",""position_4"":""rough"",""position_5"":""cough""}","experiment","","","","","","","through","bough","dough","rough","cough","","","","","","","","","","","","","","","","","","","","","","",""
"","","","","","html-keyboard-response","47","426474","0.0-6.0-0.18","A1Q56N80RJLQ7S","2022-05-26T23:30:14.611Z","phon_sim-rhyme-task_switching-same_different","","null","phon_sim","<div style=""display:grid""><h1 id=""word_1"" style=""grid-column:1; grid-row:1"">caught</h1><h1 id=""word_2"" style=""visibility:hidden;grid-column:1; grid-row:1"">wart</h1><h1 id=""word_3"" style=""visibility:hidden;grid-column:1; grid-row:1"">taut</h1><h1 id=""word_4"" style=""visibility:hidden;grid-column:1; grid-row:1"">sort</h1><h1 id=""word_5"" style=""visibility:hidden;grid-column:1; grid-row:1"">bought</h1></div>","null","experiment","caught","wart","taut","sort","bought","phonSet","","","","","","","","","","","","","","","","","","","","","","","","","","","",""
"","","","","","survey-text","48","432347","0.0-6.0-1.18","A1Q56N80RJLQ7S","2022-05-26T23:30:14.611Z","phon_sim-rhyme-task_switching-same_different","","5870","phon_sim","","{""position_1"":""cought"",""position_2"":""wart"",""position_3"":""taut"",""position_4"":""sort"",""position_5"":""bought""}","experiment","","","","","","","cought","wart","taut","sort","bought","","","","","","","","","","","","","","","","","","","","","","",""
"","","","","","html-keyboard-response","49","445349","0.0-6.0-0.19","A1Q56N80RJLQ7S","2022-05-26T23:30:14.611Z","phon_sim-rhyme-task_switching-same_different","","null","phon_sim","<div style=""display:grid""><h1 id=""word_1"" style=""grid-column:1; grid-row:1"">board</h1><h1 id=""word_2"" style=""visibility:hidden;grid-column:1; grid-row:1"">friend</h1><h1 id=""word_3"" style=""visibility:hidden;grid-column:1; grid-row:1"">row</h1><h1 id=""word_4"" style=""visibility:hidden;grid-column:1; grid-row:1"">plea</h1><h1 id=""word_5"" style=""visibility:hidden;grid-column:1; grid-row:1"">sleigh</h1></div>","null","experiment","board","friend","row","plea","sleigh","controlSet","","","","","","","","","","","","","","","","","","","","","","","","","","","",""
"","","","","","survey-text","50","450902","0.0-6.0-1.19","A1Q56N80RJLQ7S","2022-05-26T23:30:14.611Z","phon_sim-rhyme-task_switching-same_different","","5550.399999976158","phon_sim","","{""position_1"":""board"",""position_2"":""friend"",""position_3"":""row"",""position_4"":""plea"",""position_5"":""sleigh""}","experiment","","","","","","","board","friend","row","plea","sleigh","","","","","","","","","","","","","","","","","","","","","","",""
"","","","","","html-keyboard-response","51","463903","0.0-6.0-0.20","A1Q56N80RJLQ7S","2022-05-26T23:30:14.611Z","phon_sim-rhyme-task_switching-same_different","","null","phon_sim","<div style=""display:grid""><h1 id=""word_1"" style=""grid-column:1; grid-row:1"">taut</h1><h1 id=""word_2"" style=""visibility:hidden;grid-column:1; grid-row:1"">bought</h1><h1 id=""word_3"" style=""visibility:hidden;grid-column:1; grid-row:1"">sort</h1><h1 id=""word_4"" style=""visibility:hidden;grid-column:1; grid-row:1"">wart</h1><h1 id=""word_5"" style=""visibility:hidden;grid-column:1; grid-row:1"">caught</h1></div>","null","experiment","taut","bought","sort","wart","caught","phonSet","","","","","","","","","","","","","","","","","","","","","","","","","","","",""
"","","","","","survey-text","52","470642","0.0-6.0-1.20","A1Q56N80RJLQ7S","2022-05-26T23:30:14.611Z","phon_sim-rhyme-task_switching-same_different","","6734.800000011921","phon_sim","","{""position_1"":""taut"",""position_2"":""bought"",""position_3"":""sort"",""position_4"":""wart"",""position_5"":""caught""}","experiment","","","","","","","taut","bought","sort","wart","caught","","","","","","","","","","","","","","","","","","","","","","",""
"","","","","","html-keyboard-response","53","483643","0.0-6.0-0.21","A1Q56N80RJLQ7S","2022-05-26T23:30:14.611Z","phon_sim-rhyme-task_switching-same_different","","null","phon_sim","<div style=""display:grid""><h1 id=""word_1"" style=""grid-column:1; grid-row:1"">bough</h1><h1 id=""word_2"" style=""visibility:hidden;grid-column:1; grid-row:1"">through</h1><h1 id=""word_3"" style=""visibility:hidden;grid-column:1; grid-row:1"">rough</h1><h1 id=""word_4"" style=""visibility:hidden;grid-column:1; grid-row:1"">cough</h1><h1 id=""word_5"" style=""visibility:hidden;grid-column:1; grid-row:1"">dough</h1></div>","null","experiment","bough","through","rough","cough","dough","orthoSet","","","","","","","","","","","","","","","","","","","","","","","","","","","",""
"","","","","","survey-text","54","489073","0.0-6.0-1.21","A1Q56N80RJLQ7S","2022-05-26T23:30:14.611Z","phon_sim-rhyme-task_switching-same_different","","5426.800000011921","phon_sim","","{""position_1"":""bough"",""position_2"":""through"",""position_3"":""rough"",""position_4"":""cough"",""position_5"":""dough""}","experiment","","","","","","","bough","through","rough","cough","dough","","","","","","","","","","","","","","","","","","","","","","",""
"","","","","","html-keyboard-response","55","502075","0.0-6.0-0.22","A1Q56N80RJLQ7S","2022-05-26T23:30:14.611Z","phon_sim-rhyme-task_switching-same_different","","null","phon_sim","<div style=""display:grid""><h1 id=""word_1"" style=""grid-column:1; grid-row:1"">bough</h1><h1 id=""word_2"" style=""visibility:hidden;grid-column:1; grid-row:1"">cough</h1><h1 id=""word_3"" style=""visibility:hidden;grid-column:1; grid-row:1"">rough</h1><h1 id=""word_4"" style=""visibility:hidden;grid-column:1; grid-row:1"">dough</h1><h1 id=""word_5"" style=""visibility:hidden;grid-column:1; grid-row:1"">through</h1></div>","null","experiment","bough","cough","rough","dough","through","orthoSet","","","","","","","","","","","","","","","","","","","","","","","","","","","",""
"","","","","","survey-text","56","509008","0.0-6.0-1.22","A1Q56N80RJLQ7S","2022-05-26T23:30:14.611Z","phon_sim-rhyme-task_switching-same_different","","6930.199999988079","phon_sim","","{""position_1"":""bough"",""position_2"":""cough"",""position_3"":""rough"",""position_4"":""dough"",""position_5"":""through""}","experiment","","","","","","","bough","cough","rough","dough","through","","","","","","","","","","","","","","","","","","","","","","",""
"","","","","","html-keyboard-response","57","522010","0.0-6.0-0.23","A1Q56N80RJLQ7S","2022-05-26T23:30:14.611Z","phon_sim-rhyme-task_switching-same_different","","null","phon_sim","<div style=""display:grid""><h1 id=""word_1"" style=""grid-column:1; grid-row:1"">board</h1><h1 id=""word_2"" style=""visibility:hidden;grid-column:1; grid-row:1"">row</h1><h1 id=""word_3"" style=""visibility:hidden;grid-column:1; grid-row:1"">friend</h1><h1 id=""word_4"" style=""visibility:hidden;grid-column:1; grid-row:1"">sleigh</h1><h1 id=""word_5"" style=""visibility:hidden;grid-column:1; grid-row:1"">plea</h1></div>","null","experiment","board","row","friend","sleigh","plea","controlSet","","","","","","","","","","","","","","","","","","","","","","","","","","","",""
"","","","","","survey-text","58","525882","0.0-6.0-1.23","A1Q56N80RJLQ7S","2022-05-26T23:30:14.611Z","phon_sim-rhyme-task_switching-same_different","","3869.400000035763","phon_sim","","{""position_1"":""board"",""position_2"":""row"",""position_3"":""friend"",""position_4"":""sleigh"",""position_5"":""through""}","experiment","","","","","","","board","row","friend","sleigh","through","","","","","","","","","","","","","","","","","","","","","","",""
"","","","","","survey-multi-choice","59","552560","0.0-7.0","A1Q56N80RJLQ7S","2022-05-26T23:30:14.611Z","phon_sim-rhyme-task_switching-same_different","","26676.5","phon_sim","","{""Q0"":""No""}","","","","","","","","","","","","","[0]","No","","","","","","","","","","","","","","","","","","","","",""
"","","","","","survey-text","60","566185","0.0-8.0","A1Q56N80RJLQ7S","2022-05-26T23:30:14.611Z","phon_sim-rhyme-task_switching-same_different","","13623.600000023842","phon_sim","","{""Q0"":""I visualized the word and took slow breaths between words.""}","","","","","","","","","","","","","","","I visualized the word and took slow breaths between words.","","","","","","","","","","","","","","","","","","","",""
"","","","","","instructions","61","567614","0.0-9.0","A1Q56N80RJLQ7S","2022-05-26T23:30:14.611Z","phon_sim-rhyme-task_switching-same_different","[{""page_index"":0,""viewing_time"":1427.800000011921}]","1428.1000000238419","phon_sim","","","","","","","","","","","","","","","","","","","","","","","","","","","","","","","","","","","","",""
"","","","","","instructions","62","581992","0.0-10.0","A1Q56N80RJLQ7S","2022-05-26T23:30:14.611Z","phon_sim-rhyme-task_switching-same_different","[{""page_index"":0,""viewing_time"":14377}]","14377.300000011921","rhyme","","","","","","","","","","","","","","","","","","","","","","","","","","","","","","","","","","","","",""
"","","","","","html-keyboard-response","63","582743","0.0-11.0-0.0","A1Q56N80RJLQ7S","2022-05-26T23:30:14.611Z","phon_sim-rhyme-task_switching-same_different","","null","rhyme","<div style=""font-size:60px;"">+</div>","null","","","","","","","","","","","","","","","","750","","","","","","","","","","","","","","","","","","",""
"","","","","","html-keyboard-response","64","583245","0.0-11.0-1.0","A1Q56N80RJLQ7S","2022-05-26T23:30:14.611Z","phon_sim-rhyme-task_switching-same_different","","null","rhyme","<img src=""square.png"" width=""306"" height=""306"" style=""position: fixed;left:14%;top:30%""><img src=""square.png"" width=""306"" height=""306"" style=""position: fixed;left:64%;top:30%"">","null","","","","","","","","","","","","","","","","","","","","","","","","","","","","","","","","","","",""
"","","","","","categorize-html","65","586183","0.0-11.0-2.0","A1Q56N80RJLQ7S","2022-05-26T23:30:14.611Z","phon_sim-rhyme-task_switching-same_different","","1935.7000000476837","rhyme","<div style=""border: 3px solid #000000; position: fixed;left:14%;top:30%""><img src=""visual/mouse.png"" width=""300""></div><div style=""border: 3px solid #000000; position: fixed;left:64%;top:30%""><img src=""visual/dress.png"" width=""300""></div>","arrowdown","training","","","","","","","","","","","","","","","","true","visual/mouse.png","visual/dress.png","ArrowDown","NA","","","","","","","","","","","","","",""
"","","","","","html-keyboard-response","66","586934","0.0-11.0-0.1","A1Q56N80RJLQ7S","2022-05-26T23:30:14.611Z","phon_sim-rhyme-task_switching-same_different","","null","rhyme","<div style=""font-size:60px;"">+</div>","null","","","","","","","","","","","","","","","","750","","","","","","","","","","","","","","","","","","",""
"","","","","","html-keyboard-response","67","587436","0.0-11.0-1.1","A1Q56N80RJLQ7S","2022-05-26T23:30:14.611Z","phon_sim-rhyme-task_switching-same_different","","null","rhyme","<img src=""square.png"" width=""306"" height=""306"" style=""position: fixed;left:14%;top:30%""><img src=""square.png"" width=""306"" height=""306"" style=""position: fixed;left:64%;top:30%"">","null","","","","","","","","","","","","","","","","","","","","","","","","","","","","","","","","","","",""
"","","","","","categorize-html","68","590689","0.0-11.0-2.1","A1Q56N80RJLQ7S","2022-05-26T23:30:14.611Z","phon_sim-rhyme-task_switching-same_different","","2251.100000023842","rhyme","<div style=""border: 3px solid #000000; position: fixed;left:14%;top:30%""><img src=""visual/chess.png"" width=""300""></div><div style=""border: 3px solid #000000; position: fixed;left:64%;top:30%""><img src=""visual/suit.png"" width=""300""></div>","arrowdown","training","","","","","","","","","","","","","","","","true","visual/chess.png","visual/suit.png","ArrowDown","NA","","","","","","","","","","","","","",""
"","","","","","html-keyboard-response","69","591440","0.0-11.0-0.2","A1Q56N80RJLQ7S","2022-05-26T23:30:14.611Z","phon_sim-rhyme-task_switching-same_different","","null","rhyme","<div style=""font-size:60px;"">+</div>","null","","","","","","","","","","","","","","","","750","","","","","","","","","","","","","","","","","","",""
"","","","","","html-keyboard-response","70","591941","0.0-11.0-1.2","A1Q56N80RJLQ7S","2022-05-26T23:30:14.611Z","phon_sim-rhyme-task_switching-same_different","","null","rhyme","<img src=""square.png"" width=""306"" height=""306"" style=""position: fixed;left:14%;top:30%""><img src=""square.png"" width=""306"" height=""306"" style=""position: fixed;left:64%;top:30%"">","null","","","","","","","","","","","","","","","","","","","","","","","","","","","","","","","","","","",""
"","","","","","categorize-html","71","594080","0.0-11.0-2.2","A1Q56N80RJLQ7S","2022-05-26T23:30:14.611Z","phon_sim-rhyme-task_switching-same_different","","1137.300000011921","rhyme","<div style=""border: 3px solid #000000; position: fixed;left:14%;top:30%""><img src=""visual/house.png"" width=""300""></div><div style=""border: 3px solid #000000; position: fixed;left:64%;top:30%""><img src=""visual/mouse.png"" width=""300""></div>","arrowup","training","","","","","","","","","","","","","","","","true","visual/house.png","visual/mouse.png","ArrowUp","NA","","","","","","","","","","","","","",""
"","","","","","html-keyboard-response","72","595081","0.0-11.0-0.3","A1Q56N80RJLQ7S","2022-05-26T23:30:14.611Z","phon_sim-rhyme-task_switching-same_different","","null","rhyme","<div style=""font-size:60px;"">+</div>","null","","","","","","","","","","","","","","","","1000","","","","","","","","","","","","","","","","","","",""
"","","","","","html-keyboard-response","73","595583","0.0-11.0-1.3","A1Q56N80RJLQ7S","2022-05-26T23:30:14.611Z","phon_sim-rhyme-task_switching-same_different","","null","rhyme","<img src=""square.png"" width=""306"" height=""306"" style=""position: fixed;left:14%;top:30%""><img src=""square.png"" width=""306"" height=""306"" style=""position: fixed;left:64%;top:30%"">","null","","","","","","","","","","","","","","","","","","","","","","","","","","","","","","","","","","",""
"","","","","","categorize-html","74","597633","0.0-11.0-2.3","A1Q56N80RJLQ7S","2022-05-26T23:30:14.611Z","phon_sim-rhyme-task_switching-same_different","","1047.699999988079","rhyme","<div style=""border: 3px solid #000000; position: fixed;left:14%;top:30%""><img src=""visual/dress.png"" width=""300""></div><div style=""border: 3px solid #000000; position: fixed;left:64%;top:30%""><img src=""visual/chess.png"" width=""300""></div>","arrowup","training","","","","","","","","","","","","","","","","true","visual/dress.png","visual/chess.png","ArrowUp","NA","","","","","","","","","","","","","",""
"","","","","","instructions","75","599147","0.0-12.0","A1Q56N80RJLQ7S","2022-05-26T23:30:14.611Z","phon_sim-rhyme-task_switching-same_different","[{""page_index"":0,""viewing_time"":1512.8999999761581}]","1513.199999988079","","","","","","","","","","","","","","","","","","","","","","","","","","","","","","","","","","","","","",""
"","","","","","html-keyboard-response","76","599898","0.0-13.0-0.0","A1Q56N80RJLQ7S","2022-05-26T23:30:14.611Z","phon_sim-rhyme-task_switching-same_different","","null","rhyme","<div style=""font-size:60px;"">+</div>","null","","","","","","","","","","","","","","","","750","","","","","","","","","","","","","","","","","","",""
"","","","","","html-keyboard-response","77","600399","0.0-13.0-1.0","A1Q56N80RJLQ7S","2022-05-26T23:30:14.611Z","phon_sim-rhyme-task_switching-same_different","","null","rhyme","<img src=""square.png"" width=""306"" height=""306"" style=""position: fixed;left:14%;top:30%""><img src=""square.png"" width=""306"" height=""306"" style=""position: fixed;left:64%;top:30%"">","null","","","","","","","","","","","","","","","","","","","","","","","","","","","","","","","","","","",""
"","","","","","html-keyboard-response","78","602051","0.0-13.0-2.0","A1Q56N80RJLQ7S","2022-05-26T23:30:14.611Z","phon_sim-rhyme-task_switching-same_different","","1650.800000011921","rhyme","<div style=""border: 3px solid #000000; position: fixed;left:14%;top:30%""><img src=""visual/tie.png"" width=""300""></div><div style=""border: 3px solid #000000; position: fixed;left:64%;top:30%""><img src=""visual/fly.png"" width=""300""></div>","arrowup","experiment","","","","","","","","","","","","","","","","true","visual/tie.png","visual/fly.png","ArrowUp","non-ortho","","","","","","","","","","","","","",""
"","","","","","html-keyboard-response","79","602802","0.0-13.0-0.1","A1Q56N80RJLQ7S","2022-05-26T23:30:14.611Z","phon_sim-rhyme-task_switching-same_different","","null","rhyme","<div style=""font-size:60px;"">+</div>","null","","","","","","","","","","","","","","","","750","","","","","","","","","","","","","","","","","","",""
"","","","","","html-keyboard-response","80","603303","0.0-13.0-1.1","A1Q56N80RJLQ7S","2022-05-26T23:30:14.611Z","phon_sim-rhyme-task_switching-same_different","","null","rhyme","<img src=""square.png"" width=""306"" height=""306"" style=""position: fixed;left:14%;top:30%""><img src=""square.png"" width=""306"" height=""306"" style=""position: fixed;left:64%;top:30%"">","null","","","","","","","","","","","","","","","","","","","","","","","","","","","","","","","","","","",""
"","","","","","html-keyboard-response","81","604693","0.0-13.0-2.1","A1Q56N80RJLQ7S","2022-05-26T23:30:14.611Z","phon_sim-rhyme-task_switching-same_different","","1388.6000000238419","rhyme","<div style=""border: 3px solid #000000; position: fixed;left:14%;top:30%""><img src=""visual/claw.png"" width=""300""></div><div style=""border: 3px solid #000000; position: fixed;left:64%;top:30%""><img src=""visual/beer.png"" width=""300""></div>","arrowdown","experiment","","","","","","","","","","","","","","","","true","visual/claw.png","visual/beer.png","ArrowDown","NR","","","","","","","","","","","","","",""
"","","","","","html-keyboard-response","82","605444","0.0-13.0-0.2","A1Q56N80RJLQ7S","2022-05-26T23:30:14.611Z","phon_sim-rhyme-task_switching-same_different","","null","rhyme","<div style=""font-size:60px;"">+</div>","null","","","","","","","","","","","","","","","","750","","","","","","","","","","","","","","","","","","",""
"","","","","","html-keyboard-response","83","605945","0.0-13.0-1.2","A1Q56N80RJLQ7S","2022-05-26T23:30:14.611Z","phon_sim-rhyme-task_switching-same_different","","null","rhyme","<img src=""square.png"" width=""306"" height=""306"" style=""position: fixed;left:14%;top:30%""><img src=""square.png"" width=""306"" height=""306"" style=""position: fixed;left:64%;top:30%"">","null","","","","","","","","","","","","","","","","","","","","","","","","","","","","","","","","","","",""
"","","","","","html-keyboard-response","84","607113","0.0-13.0-2.2","A1Q56N80RJLQ7S","2022-05-26T23:30:14.611Z","phon_sim-rhyme-task_switching-same_different","","1166","rhyme","<div style=""border: 3px solid #000000; position: fixed;left:14%;top:30%""><img src=""visual/key.png"" width=""300""></div><div style=""border: 3px solid #000000; position: fixed;left:64%;top:30%""><img src=""visual/tree.png"" width=""300""></div>","arrowup","experiment","","","","","","","","","","","","","","","","true","visual/key.png","visual/tree.png","ArrowUp","non-ortho","","","","","","","","","","","","","",""
"","","","","","html-keyboard-response","85","607864","0.0-13.0-0.3","A1Q56N80RJLQ7S","2022-05-26T23:30:14.611Z","phon_sim-rhyme-task_switching-same_different","","null","rhyme","<div style=""font-size:60px;"">+</div>","null","","","","","","","","","","","","","","","","750","","","","","","","","","","","","","","","","","","",""
"","","","","","html-keyboard-response","86","608365","0.0-13.0-1.3","A1Q56N80RJLQ7S","2022-05-26T23:30:14.611Z","phon_sim-rhyme-task_switching-same_different","","null","rhyme","<img src=""square.png"" width=""306"" height=""306"" style=""position: fixed;left:14%;top:30%""><img src=""square.png"" width=""306"" height=""306"" style=""position: fixed;left:64%;top:30%"">","null","","","","","","","","","","","","","","","","","","","","","","","","","","","","","","","","","","",""
"","","","","","html-keyboard-response","87","609822","0.0-13.0-2.3","A1Q56N80RJLQ7S","2022-05-26T23:30:14.611Z","phon_sim-rhyme-task_switching-same_different","","1455.300000011921","rhyme","<div style=""border: 3px solid #000000; position: fixed;left:14%;top:30%""><img src=""visual/drum.png"" width=""300""></div><div style=""border: 3px solid #000000; position: fixed;left:64%;top:30%""><img src=""visual/thumb.png"" width=""300""></div>","arrowup","experiment","","","","","","","","","","","","","","","","true","visual/drum.png","visual/thumb.png","ArrowUp","non-ortho","","","","","","","","","","","","","",""
"","","","","","html-keyboard-response","88","610823","0.0-13.0-0.4","A1Q56N80RJLQ7S","2022-05-26T23:30:14.611Z","phon_sim-rhyme-task_switching-same_different","","null","rhyme","<div style=""font-size:60px;"">+</div>","null","","","","","","","","","","","","","","","","1000","","","","","","","","","","","","","","","","","","",""
"","","","","","html-keyboard-response","89","611325","0.0-13.0-1.4","A1Q56N80RJLQ7S","2022-05-26T23:30:14.611Z","phon_sim-rhyme-task_switching-same_different","","null","rhyme","<img src=""square.png"" width=""306"" height=""306"" style=""position: fixed;left:14%;top:30%""><img src=""square.png"" width=""306"" height=""306"" style=""position: fixed;left:64%;top:30%"">","null","","","","","","","","","","","","","","","","","","","","","","","","","","","","","","","","","","",""
"","","","","","html-keyboard-response","90","612947","0.0-13.0-2.4","A1Q56N80RJLQ7S","2022-05-26T23:30:14.611Z","phon_sim-rhyme-task_switching-same_different","","1620.3999999761581","rhyme","<div style=""border: 3px solid #000000; position: fixed;left:14%;top:30%""><img src=""visual/drawer.png"" width=""300""></div><div style=""border: 3px solid #000000; position: fixed;left:64%;top:30%""><img src=""visual/door.png"" width=""300""></div>","arrowup","experiment","","","","","","","","","","","","","","","","true","visual/drawer.png","visual/door.png","ArrowUp","non-ortho","","","","","","","","","","","","","",""
"","","","","","html-keyboard-response","91","613198","0.0-13.0-0.5","A1Q56N80RJLQ7S","2022-05-26T23:30:14.611Z","phon_sim-rhyme-task_switching-same_different","","null","rhyme","<div style=""font-size:60px;"">+</div>","null","","","","","","","","","","","","","","","","250","","","","","","","","","","","","","","","","","","",""
"","","","","","html-keyboard-response","92","613699","0.0-13.0-1.5","A1Q56N80RJLQ7S","2022-05-26T23:30:14.611Z","phon_sim-rhyme-task_switching-same_different","","null","rhyme","<img src=""square.png"" width=""306"" height=""306"" style=""position: fixed;left:14%;top:30%""><img src=""square.png"" width=""306"" height=""306"" style=""position: fixed;left:64%;top:30%"">","null","","","","","","","","","","","","","","","","","","","","","","","","","","","","","","","","","","",""
"","","","","","html-keyboard-response","93","614969","0.0-13.0-2.5","A1Q56N80RJLQ7S","2022-05-26T23:30:14.611Z","phon_sim-rhyme-task_switching-same_different","","1268","rhyme","<div style=""border: 3px solid #000000; position: fixed;left:14%;top:30%""><img src=""visual/shark.png"" width=""300""></div><div style=""border: 3px solid #000000; position: fixed;left:64%;top:30%""><img src=""visual/moon.png"" width=""300""></div>","arrowdown","experiment","","","","","","","","","","","","","","","","true","visual/shark.png","visual/moon.png","ArrowDown","NR","","","","","","","","","","","","","",""
"","","","","","html-keyboard-response","94","615719","0.0-13.0-0.6","A1Q56N80RJLQ7S","2022-05-26T23:30:14.611Z","phon_sim-rhyme-task_switching-same_different","","null","rhyme","<div style=""font-size:60px;"">+</div>","null","","","","","","","","","","","","","","","","750","","","","","","","","","","","","","","","","","","",""
"","","","","","html-keyboard-response","95","616221","0.0-13.0-1.6","A1Q56N80RJLQ7S","2022-05-26T23:30:14.611Z","phon_sim-rhyme-task_switching-same_different","","null","rhyme","<img src=""square.png"" width=""306"" height=""306"" style=""position: fixed;left:14%;top:30%""><img src=""square.png"" width=""306"" height=""306"" style=""position: fixed;left:64%;top:30%"">","null","","","","","","","","","","","","","","","","","","","","","","","","","","","","","","","","","","",""
"","","","","","html-keyboard-response","96","617275","0.0-13.0-2.6","A1Q56N80RJLQ7S","2022-05-26T23:30:14.611Z","phon_sim-rhyme-task_switching-same_different","","1052.1000000238419","rhyme","<div style=""border: 3px solid #000000; position: fixed;left:14%;top:30%""><img src=""visual/king.png"" width=""300""></div><div style=""border: 3px solid #000000; position: fixed;left:64%;top:30%""><img src=""visual/ring.png"" width=""300""></div>","arrowup","experiment","","","","","","","","","","","","","","","","true","visual/king.png","visual/ring.png","ArrowUp","ortho","","","","","","","","","","","","","",""
"","","","","","html-keyboard-response","97","618276","0.0-13.0-0.7","A1Q56N80RJLQ7S","2022-05-26T23:30:14.611Z","phon_sim-rhyme-task_switching-same_different","","null","rhyme","<div style=""font-size:60px;"">+</div>","null","","","","","","","","","","","","","","","","1000","","","","","","","","","","","","","","","","","","",""
"","","","","","html-keyboard-response","98","618778","0.0-13.0-1.7","A1Q56N80RJLQ7S","2022-05-26T23:30:14.611Z","phon_sim-rhyme-task_switching-same_different","","null","rhyme","<img src=""square.png"" width=""306"" height=""306"" style=""position: fixed;left:14%;top:30%""><img src=""square.png"" width=""306"" height=""306"" style=""position: fixed;left:64%;top:30%"">","null","","","","","","","","","","","","","","","","","","","","","","","","","","","","","","","","","","",""
"","","","","","html-keyboard-response","99","620201","0.0-13.0-2.7","A1Q56N80RJLQ7S","2022-05-26T23:30:14.611Z","phon_sim-rhyme-task_switching-same_different","","1421.199999988079","rhyme","<div style=""border: 3px solid #000000; position: fixed;left:14%;top:30%""><img src=""visual/soap.png"" width=""300""></div><div style=""border: 3px solid #000000; position: fixed;left:64%;top:30%""><img src=""visual/shoe.png"" width=""300""></div>","arrowdown","experiment","","","","","","","","","","","","","","","","true","visual/soap.png","visual/shoe.png","ArrowDown","NR","","","","","","","","","","","","","",""
"","","","","","html-keyboard-response","100","621202","0.0-13.0-0.8","A1Q56N80RJLQ7S","2022-05-26T23:30:14.611Z","phon_sim-rhyme-task_switching-same_different","","null","rhyme","<div style=""font-size:60px;"">+</div>","null","","","","","","","","","","","","","","","","1000","","","","","","","","","","","","","","","","","","",""
"","","","","","html-keyboard-response","101","621703","0.0-13.0-1.8","A1Q56N80RJLQ7S","2022-05-26T23:30:14.611Z","phon_sim-rhyme-task_switching-same_different","","null","rhyme","<img src=""square.png"" width=""306"" height=""306"" style=""position: fixed;left:14%;top:30%""><img src=""square.png"" width=""306"" height=""306"" style=""position: fixed;left:64%;top:30%"">","null","","","","","","","","","","","","","","","","","","","","","","","","","","","","","","","","","","",""
"","","","","","html-keyboard-response","102","623596","0.0-13.0-2.8","A1Q56N80RJLQ7S","2022-05-26T23:30:14.611Z","phon_sim-rhyme-task_switching-same_different","","1892.4000000357628","rhyme","<div style=""border: 3px solid #000000; position: fixed;left:14%;top:30%""><img src=""visual/nail.png"" width=""300""></div><div style=""border: 3px solid #000000; position: fixed;left:64%;top:30%""><img src=""visual/whale.png"" width=""300""></div>","arrowup","experiment","","","","","","","","","","","","","","","","true","visual/nail.png","visual/whale.png","ArrowUp","non-ortho","","","","","","","","","","","","","",""
"","","","","","html-keyboard-response","103","624347","0.0-13.0-0.9","A1Q56N80RJLQ7S","2022-05-26T23:30:14.611Z","phon_sim-rhyme-task_switching-same_different","","null","rhyme","<div style=""font-size:60px;"">+</div>","null","","","","","","","","","","","","","","","","750","","","","","","","","","","","","","","","","","","",""
"","","","","","html-keyboard-response","104","624848","0.0-13.0-1.9","A1Q56N80RJLQ7S","2022-05-26T23:30:14.611Z","phon_sim-rhyme-task_switching-same_different","","null","rhyme","<img src=""square.png"" width=""306"" height=""306"" style=""position: fixed;left:14%;top:30%""><img src=""square.png"" width=""306"" height=""306"" style=""position: fixed;left:64%;top:30%"">","null","","","","","","","","","","","","","","","","","","","","","","","","","","","","","","","","","","",""
"","","","","","html-keyboard-response","105","625775","0.0-13.0-2.9","A1Q56N80RJLQ7S","2022-05-26T23:30:14.611Z","phon_sim-rhyme-task_switching-same_different","","926","rhyme","<div style=""border: 3px solid #000000; position: fixed;left:14%;top:30%""><img src=""visual/cat.png"" width=""300""></div><div style=""border: 3px solid #000000; position: fixed;left:64%;top:30%""><img src=""visual/hat.png"" width=""300""></div>","arrowup","experiment","","","","","","","","","","","","","","","","true","visual/cat.png","visual/hat.png","ArrowUp","ortho","","","","","","","","","","","","","",""
"","","","","","html-keyboard-response","106","626526","0.0-13.0-0.10","A1Q56N80RJLQ7S","2022-05-26T23:30:14.611Z","phon_sim-rhyme-task_switching-same_different","","null","rhyme","<div style=""font-size:60px;"">+</div>","null","","","","","","","","","","","","","","","","750","","","","","","","","","","","","","","","","","","",""
"","","","","","html-keyboard-response","107","627027","0.0-13.0-1.10","A1Q56N80RJLQ7S","2022-05-26T23:30:14.611Z","phon_sim-rhyme-task_switching-same_different","","null","rhyme","<img src=""square.png"" width=""306"" height=""306"" style=""position: fixed;left:14%;top:30%""><img src=""square.png"" width=""306"" height=""306"" style=""position: fixed;left:64%;top:30%"">","null","","","","","","","","","","","","","","","","","","","","","","","","","","","","","","","","","","",""
"","","","","","html-keyboard-response","108","627993","0.0-13.0-2.10","A1Q56N80RJLQ7S","2022-05-26T23:30:14.611Z","phon_sim-rhyme-task_switching-same_different","","964.3999999761581","rhyme","<div style=""border: 3px solid #000000; position: fixed;left:14%;top:30%""><img src=""visual/chair.png"" width=""300""></div><div style=""border: 3px solid #000000; position: fixed;left:64%;top:30%""><img src=""visual/pear.png"" width=""300""></div>","arrowup","experiment","","","","","","","","","","","","","","","","true","visual/chair.png","visual/pear.png","ArrowUp","non-ortho","","","","","","","","","","","","","",""
"","","","","","html-keyboard-response","109","628993","0.0-13.0-0.11","A1Q56N80RJLQ7S","2022-05-26T23:30:14.611Z","phon_sim-rhyme-task_switching-same_different","","null","rhyme","<div style=""font-size:60px;"">+</div>","null","","","","","","","","","","","","","","","","1000","","","","","","","","","","","","","","","","","","",""
"","","","","","html-keyboard-response","110","629494","0.0-13.0-1.11","A1Q56N80RJLQ7S","2022-05-26T23:30:14.611Z","phon_sim-rhyme-task_switching-same_different","","null","rhyme","<img src=""square.png"" width=""306"" height=""306"" style=""position: fixed;left:14%;top:30%""><img src=""square.png"" width=""306"" height=""306"" style=""position: fixed;left:64%;top:30%"">","null","","","","","","","","","","","","","","","","","","","","","","","","","","","","","","","","","","",""
"","","","","","html-keyboard-response","111","631007","0.0-13.0-2.11","A1Q56N80RJLQ7S","2022-05-26T23:30:14.611Z","phon_sim-rhyme-task_switching-same_different","","1510.8999999761581","rhyme","<div style=""border: 3px solid #000000; position: fixed;left:14%;top:30%""><img src=""visual/pope.png"" width=""300""></div><div style=""border: 3px solid #000000; position: fixed;left:64%;top:30%""><img src=""visual/soap.png"" width=""300""></div>","arrowdown","experiment","","","","","","","","","","","","","","","","false","visual/pope.png","visual/soap.png","ArrowUp","non-ortho","","","","","","","","","","","","","",""
"","","","","","html-keyboard-response","112","631757","0.0-13.0-0.12","A1Q56N80RJLQ7S","2022-05-26T23:30:14.611Z","phon_sim-rhyme-task_switching-same_different","","null","rhyme","<div style=""font-size:60px;"">+</div>","null","","","","","","","","","","","","","","","","750","","","","","","","","","","","","","","","","","","",""
"","","","","","html-keyboard-response","113","632258","0.0-13.0-1.12","A1Q56N80RJLQ7S","2022-05-26T23:30:14.611Z","phon_sim-rhyme-task_switching-same_different","","null","rhyme","<img src=""square.png"" width=""306"" height=""306"" style=""position: fixed;left:14%;top:30%""><img src=""square.png"" width=""306"" height=""306"" style=""position: fixed;left:64%;top:30%"">","null","","","","","","","","","","","","","","","","","","","","","","","","","","","","","","","","","","",""
"","","","","","html-keyboard-response","114","633845","0.0-13.0-2.12","A1Q56N80RJLQ7S","2022-05-26T23:30:14.611Z","phon_sim-rhyme-task_switching-same_different","","1584.9000000357628","rhyme","<div style=""border: 3px solid #000000; position: fixed;left:14%;top:30%""><img src=""visual/cake.png"" width=""300""></div><div style=""border: 3px solid #000000; position: fixed;left:64%;top:30%""><img src=""visual/rake.png"" width=""300""></div>","arrowup","experiment","","","","","","","","","","","","","","","","true","visual/cake.png","visual/rake.png","ArrowUp","ortho","","","","","","","","","","","","","",""
"","","","","","html-keyboard-response","115","634095","0.0-13.0-0.13","A1Q56N80RJLQ7S","2022-05-26T23:30:14.611Z","phon_sim-rhyme-task_switching-same_different","","null","rhyme","<div style=""font-size:60px;"">+</div>","null","","","","","","","","","","","","","","","","250","","","","","","","","","","","","","","","","","","",""
"","","","","","html-keyboard-response","116","634596","0.0-13.0-1.13","A1Q56N80RJLQ7S","2022-05-26T23:30:14.611Z","phon_sim-rhyme-task_switching-same_different","","null","rhyme","<img src=""square.png"" width=""306"" height=""306"" style=""position: fixed;left:14%;top:30%""><img src=""square.png"" width=""306"" height=""306"" style=""position: fixed;left:64%;top:30%"">","null","","","","","","","","","","","","","","","","","","","","","","","","","","","","","","","","","","",""
"","","","","","html-keyboard-response","117","635819","0.0-13.0-2.13","A1Q56N80RJLQ7S","2022-05-26T23:30:14.611Z","phon_sim-rhyme-task_switching-same_different","","1221.6000000238419","rhyme","<div style=""border: 3px solid #000000; position: fixed;left:14%;top:30%""><img src=""visual/eye.png"" width=""300""></div><div style=""border: 3px solid #000000; position: fixed;left:64%;top:30%""><img src=""visual/tie.png"" width=""300""></div>","arrowup","experiment","","","","","","","","","","","","","","","","true","visual/eye.png","visual/tie.png","ArrowUp","non-ortho","","","","","","","","","","","","","",""
"","","","","","html-keyboard-response","118","636320","0.0-13.0-0.14","A1Q56N80RJLQ7S","2022-05-26T23:30:14.611Z","phon_sim-rhyme-task_switching-same_different","","null","rhyme","<div style=""font-size:60px;"">+</div>","null","","","","","","","","","","","","","","","","500","","","","","","","","","","","","","","","","","","",""
"","","","","","html-keyboard-response","119","636821","0.0-13.0-1.14","A1Q56N80RJLQ7S","2022-05-26T23:30:14.611Z","phon_sim-rhyme-task_switching-same_different","","null","rhyme","<img src=""square.png"" width=""306"" height=""306"" style=""position: fixed;left:14%;top:30%""><img src=""square.png"" width=""306"" height=""306"" style=""position: fixed;left:64%;top:30%"">","null","","","","","","","","","","","","","","","","","","","","","","","","","","","","","","","","","","",""
"","","","","","html-keyboard-response","120","637776","0.0-13.0-2.14","A1Q56N80RJLQ7S","2022-05-26T23:30:14.611Z","phon_sim-rhyme-task_switching-same_different","","954.3000000119209","rhyme","<div style=""border: 3px solid #000000; position: fixed;left:14%;top:30%""><img src=""visual/box.png"" width=""300""></div><div style=""border: 3px solid #000000; position: fixed;left:64%;top:30%""><img src=""visual/fox.png"" width=""300""></div>","arrowdown","experiment","","","","","","","","","","","","","","","","false","visual/box.png","visual/fox.png","ArrowUp","ortho","","","","","","","","","","","","","",""
"","","","","","html-keyboard-response","121","638527","0.0-13.0-0.15","A1Q56N80RJLQ7S","2022-05-26T23:30:14.611Z","phon_sim-rhyme-task_switching-same_different","","null","rhyme","<div style=""font-size:60px;"">+</div>","null","","","","","","","","","","","","","","","","750","","","","","","","","","","","","","","","","","","",""
"","","","","","html-keyboard-response","122","639028","0.0-13.0-1.15","A1Q56N80RJLQ7S","2022-05-26T23:30:14.611Z","phon_sim-rhyme-task_switching-same_different","","null","rhyme","<img src=""square.png"" width=""306"" height=""306"" style=""position: fixed;left:14%;top:30%""><img src=""square.png"" width=""306"" height=""306"" style=""position: fixed;left:64%;top:30%"">","null","","","","","","","","","","","","","","","","","","","","","","","","","","","","","","","","","","",""
"","","","","","html-keyboard-response","123","640187","0.0-13.0-2.15","A1Q56N80RJLQ7S","2022-05-26T23:30:14.611Z","phon_sim-rhyme-task_switching-same_different","","1157.5999999642372","rhyme","<div style=""border: 3px solid #000000; position: fixed;left:14%;top:30%""><img src=""visual/pear.png"" width=""300""></div><div style=""border: 3px solid #000000; position: fixed;left:64%;top:30%""><img src=""visual/rope.png"" width=""300""></div>","arrowdown","experiment","","","","","","","","","","","","","","","","true","visual/pear.png","visual/rope.png","ArrowDown","NR","","","","","","","","","","","","","",""
"","","","","","html-keyboard-response","124","641188","0.0-13.0-0.16","A1Q56N80RJLQ7S","2022-05-26T23:30:14.611Z","phon_sim-rhyme-task_switching-same_different","","null","rhyme","<div style=""font-size:60px;"">+</div>","null","","","","","","","","","","","","","","","","1000","","","","","","","","","","","","","","","","","","",""
"","","","","","html-keyboard-response","125","641689","0.0-13.0-1.16","A1Q56N80RJLQ7S","2022-05-26T23:30:14.611Z","phon_sim-rhyme-task_switching-same_different","","null","rhyme","<img src=""square.png"" width=""306"" height=""306"" style=""position: fixed;left:14%;top:30%""><img src=""square.png"" width=""306"" height=""306"" style=""position: fixed;left:64%;top:30%"">","null","","","","","","","","","","","","","","","","","","","","","","","","","","","","","","","","","","",""
"","","","","","html-keyboard-response","126","642747","0.0-13.0-2.16","A1Q56N80RJLQ7S","2022-05-26T23:30:14.611Z","phon_sim-rhyme-task_switching-same_different","","1057.8999999761581","rhyme","<div style=""border: 3px solid #000000; position: fixed;left:14%;top:30%""><img src=""visual/cat.png"" width=""300""></div><div style=""border: 3px solid #000000; position: fixed;left:64%;top:30%""><img src=""visual/sock.png"" width=""300""></div>","arrowdown","experiment","","","","","","","","","","","","","","","","true","visual/cat.png","visual/sock.png","ArrowDown","NR","","","","","","","","","","","","","",""
"","","","","","html-keyboard-response","127","643498","0.0-13.0-0.17","A1Q56N80RJLQ7S","2022-05-26T23:30:14.611Z","phon_sim-rhyme-task_switching-same_different","","null","rhyme","<div style=""font-size:60px;"">+</div>","null","","","","","","","","","","","","","","","","750","","","","","","","","","","","","","","","","","","",""
"","","","","","html-keyboard-response","128","644000","0.0-13.0-1.17","A1Q56N80RJLQ7S","2022-05-26T23:30:14.611Z","phon_sim-rhyme-task_switching-same_different","","null","rhyme","<img src=""square.png"" width=""306"" height=""306"" style=""position: fixed;left:14%;top:30%""><img src=""square.png"" width=""306"" height=""306"" style=""position: fixed;left:64%;top:30%"">","null","","","","","","","","","","","","","","","","","","","","","","","","","","","","","","","","","","",""
"","","","","","html-keyboard-response","129","645100","0.0-13.0-2.17","A1Q56N80RJLQ7S","2022-05-26T23:30:14.611Z","phon_sim-rhyme-task_switching-same_different","","1098.5","rhyme","<div style=""border: 3px solid #000000; position: fixed;left:14%;top:30%""><img src=""visual/train.png"" width=""300""></div><div style=""border: 3px solid #000000; position: fixed;left:64%;top:30%""><img src=""visual/screw.png"" width=""300""></div>","arrowdown","experiment","","","","","","","","","","","","","","","","true","visual/train.png","visual/screw.png","ArrowDown","NR","","","","","","","","","","","","","",""
"","","","","","html-keyboard-response","130","645600","0.0-13.0-0.18","A1Q56N80RJLQ7S","2022-05-26T23:30:14.611Z","phon_sim-rhyme-task_switching-same_different","","null","rhyme","<div style=""font-size:60px;"">+</div>","null","","","","","","","","","","","","","","","","500","","","","","","","","","","","","","","","","","","",""
"","","","","","html-keyboard-response","131","646102","0.0-13.0-1.18","A1Q56N80RJLQ7S","2022-05-26T23:30:14.611Z","phon_sim-rhyme-task_switching-same_different","","null","rhyme","<img src=""square.png"" width=""306"" height=""306"" style=""position: fixed;left:14%;top:30%""><img src=""square.png"" width=""306"" height=""306"" style=""position: fixed;left:64%;top:30%"">","null","","","","","","","","","","","","","","","","","","","","","","","","","","","","","","","","","","",""
"","","","","","html-keyboard-response","132","647632","0.0-13.0-2.18","A1Q56N80RJLQ7S","2022-05-26T23:30:14.611Z","phon_sim-rhyme-task_switching-same_different","","1528.300000011921","rhyme","<div style=""border: 3px solid #000000; position: fixed;left:14%;top:30%""><img src=""visual/egg.png"" width=""300""></div><div style=""border: 3px solid #000000; position: fixed;left:64%;top:30%""><img src=""visual/leg.png"" width=""300""></div>","arrowup","experiment","","","","","","","","","","","","","","","","true","visual/egg.png","visual/leg.png","ArrowUp","ortho","","","","","","","","","","","","","",""
"","","","","","html-keyboard-response","133","648132","0.0-13.0-0.19","A1Q56N80RJLQ7S","2022-05-26T23:30:14.611Z","phon_sim-rhyme-task_switching-same_different","","null","rhyme","<div style=""font-size:60px;"">+</div>","null","","","","","","","","","","","","","","","","500","","","","","","","","","","","","","","","","","","",""
"","","","","","html-keyboard-response","134","648633","0.0-13.0-1.19","A1Q56N80RJLQ7S","2022-05-26T23:30:14.611Z","phon_sim-rhyme-task_switching-same_different","","null","rhyme","<img src=""square.png"" width=""306"" height=""306"" style=""position: fixed;left:14%;top:30%""><img src=""square.png"" width=""306"" height=""306"" style=""position: fixed;left:64%;top:30%"">","null","","","","","","","","","","","","","","","","","","","","","","","","","","","","","","","","","","",""
"","","","","","html-keyboard-response","135","649569","0.0-13.0-2.19","A1Q56N80RJLQ7S","2022-05-26T23:30:14.611Z","phon_sim-rhyme-task_switching-same_different","","935","rhyme","<div style=""border: 3px solid #000000; position: fixed;left:14%;top:30%""><img src=""visual/rose.png"" width=""300""></div><div style=""border: 3px solid #000000; position: fixed;left:64%;top:30%""><img src=""visual/nose.png"" width=""300""></div>","arrowup","experiment","","","","","","","","","","","","","","","","true","visual/rose.png","visual/nose.png","ArrowUp","ortho","","","","","","","","","","","","","",""
"","","","","","html-keyboard-response","136","650570","0.0-13.0-0.20","A1Q56N80RJLQ7S","2022-05-26T23:30:14.611Z","phon_sim-rhyme-task_switching-same_different","","null","rhyme","<div style=""font-size:60px;"">+</div>","null","","","","","","","","","","","","","","","","1000","","","","","","","","","","","","","","","","","","",""
"","","","","","html-keyboard-response","137","651071","0.0-13.0-1.20","A1Q56N80RJLQ7S","2022-05-26T23:30:14.611Z","phon_sim-rhyme-task_switching-same_different","","null","rhyme","<img src=""square.png"" width=""306"" height=""306"" style=""position: fixed;left:14%;top:30%""><img src=""square.png"" width=""306"" height=""306"" style=""position: fixed;left:64%;top:30%"">","null","","","","","","","","","","","","","","","","","","","","","","","","","","","","","","","","","","",""
"","","","","","html-keyboard-response","138","654847","0.0-13.0-2.20","A1Q56N80RJLQ7S","2022-05-26T23:30:14.611Z","phon_sim-rhyme-task_switching-same_different","","3775.599999964237","rhyme","<div style=""border: 3px solid #000000; position: fixed;left:14%;top:30%""><img src=""visual/sock.png"" width=""300""></div><div style=""border: 3px solid #000000; position: fixed;left:64%;top:30%""><img src=""visual/clock.png"" width=""300""></div>","arrowup","experiment","","","","","","","","","","","","","","","","true","visual/sock.png","visual/clock.png","ArrowUp","ortho","","","","","","","","","","","","","",""
"","","","","","html-keyboard-response","139","655598","0.0-13.0-0.21","A1Q56N80RJLQ7S","2022-05-26T23:30:14.611Z","phon_sim-rhyme-task_switching-same_different","","null","rhyme","<div style=""font-size:60px;"">+</div>","null","","","","","","","","","","","","","","","","750","","","","","","","","","","","","","","","","","","",""
"","","","","","html-keyboard-response","140","656100","0.0-13.0-1.21","A1Q56N80RJLQ7S","2022-05-26T23:30:14.611Z","phon_sim-rhyme-task_switching-same_different","","null","rhyme","<img src=""square.png"" width=""306"" height=""306"" style=""position: fixed;left:14%;top:30%""><img src=""square.png"" width=""306"" height=""306"" style=""position: fixed;left:64%;top:30%"">","null","","","","","","","","","","","","","","","","","","","","","","","","","","","","","","","","","","",""
"","","","","","html-keyboard-response","141","657275","0.0-13.0-2.21","A1Q56N80RJLQ7S","2022-05-26T23:30:14.611Z","phon_sim-rhyme-task_switching-same_different","","1174.199999988079","rhyme","<div style=""border: 3px solid #000000; position: fixed;left:14%;top:30%""><img src=""visual/brain.png"" width=""300""></div><div style=""border: 3px solid #000000; position: fixed;left:64%;top:30%""><img src=""visual/clock.png"" width=""300""></div>","arrowdown","experiment","","","","","","","","","","","","","","","","true","visual/brain.png","visual/clock.png","ArrowDown","NR","","","","","","","","","","","","","",""
"","","","","","html-keyboard-response","142","657776","0.0-13.0-0.22","A1Q56N80RJLQ7S","2022-05-26T23:30:14.611Z","phon_sim-rhyme-task_switching-same_different","","null","rhyme","<div style=""font-size:60px;"">+</div>","null","","","","","","","","","","","","","","","","500","","","","","","","","","","","","","","","","","","",""
"","","","","","html-keyboard-response","143","658277","0.0-13.0-1.22","A1Q56N80RJLQ7S","2022-05-26T23:30:14.611Z","phon_sim-rhyme-task_switching-same_different","","null","rhyme","<img src=""square.png"" width=""306"" height=""306"" style=""position: fixed;left:14%;top:30%""><img src=""square.png"" width=""306"" height=""306"" style=""position: fixed;left:64%;top:30%"">","null","","","","","","","","","","","","","","","","","","","","","","","","","","","","","","","","","","",""
"","","","","","html-keyboard-response","144","659273","0.0-13.0-2.22","A1Q56N80RJLQ7S","2022-05-26T23:30:14.611Z","phon_sim-rhyme-task_switching-same_different","","994.8000000119209","rhyme","<div style=""border: 3px solid #000000; position: fixed;left:14%;top:30%""><img src=""visual/spoon.png"" width=""300""></div><div style=""border: 3px solid #000000; position: fixed;left:64%;top:30%""><img src=""visual/crab.png"" width=""300""></div>","arrowup","experiment","","","","","","","","","","","","","","","","false","visual/spoon.png","visual/crab.png","ArrowDown","NR","","","","","","","","","","","","","",""
"","","","","","html-keyboard-response","145","660274","0.0-13.0-0.23","A1Q56N80RJLQ7S","2022-05-26T23:30:14.611Z","phon_sim-rhyme-task_switching-same_different","","null","rhyme","<div style=""font-size:60px;"">+</div>","null","","","","","","","","","","","","","","","","1000","","","","","","","","","","","","","","","","","","",""
"","","","","","html-keyboard-response","146","660775","0.0-13.0-1.23","A1Q56N80RJLQ7S","2022-05-26T23:30:14.611Z","phon_sim-rhyme-task_switching-same_different","","null","rhyme","<img src=""square.png"" width=""306"" height=""306"" style=""position: fixed;left:14%;top:30%""><img src=""square.png"" width=""306"" height=""306"" style=""position: fixed;left:64%;top:30%"">","null","","","","","","","","","","","","","","","","","","","","","","","","","","","","","","","","","","",""
"","","","","","html-keyboard-response","147","661920","0.0-13.0-2.23","A1Q56N80RJLQ7S","2022-05-26T23:30:14.611Z","phon_sim-rhyme-task_switching-same_different","","1144.3999999761581","rhyme","<div style=""border: 3px solid #000000; position: fixed;left:14%;top:30%""><img src=""visual/jar.png"" width=""300""></div><div style=""border: 3px solid #000000; position: fixed;left:64%;top:30%""><img src=""visual/whale.png"" width=""300""></div>","arrowup","experiment","","","","","","","","","","","","","","","","false","visual/jar.png","visual/whale.png","ArrowDown","NR","","","","","","","","","","","","","",""
"","","","","","html-keyboard-response","148","662921","0.0-13.0-0.24","A1Q56N80RJLQ7S","2022-05-26T23:30:14.611Z","phon_sim-rhyme-task_switching-same_different","","null","rhyme","<div style=""font-size:60px;"">+</div>","null","","","","","","","","","","","","","","","","1000","","","","","","","","","","","","","","","","","","",""
"","","","","","html-keyboard-response","149","663422","0.0-13.0-1.24","A1Q56N80RJLQ7S","2022-05-26T23:30:14.611Z","phon_sim-rhyme-task_switching-same_different","","null","rhyme","<img src=""square.png"" width=""306"" height=""306"" style=""position: fixed;left:14%;top:30%""><img src=""square.png"" width=""306"" height=""306"" style=""position: fixed;left:64%;top:30%"">","null","","","","","","","","","","","","","","","","","","","","","","","","","","","","","","","","","","",""
"","","","","","html-keyboard-response","150","664768","0.0-13.0-2.24","A1Q56N80RJLQ7S","2022-05-26T23:30:14.611Z","phon_sim-rhyme-task_switching-same_different","","1345","rhyme","<div style=""border: 3px solid #000000; position: fixed;left:14%;top:30%""><img src=""visual/tree.png"" width=""300""></div><div style=""border: 3px solid #000000; position: fixed;left:64%;top:30%""><img src=""visual/door.png"" width=""300""></div>","arrowdown","experiment","","","","","","","","","","","","","","","","true","visual/tree.png","visual/door.png","ArrowDown","NR","","","","","","","","","","","","","",""
"","","","","","html-keyboard-response","151","665269","0.0-13.0-0.25","A1Q56N80RJLQ7S","2022-05-26T23:30:14.611Z","phon_sim-rhyme-task_switching-same_different","","null","rhyme","<div style=""font-size:60px;"">+</div>","null","","","","","","","","","","","","","","","","500","","","","","","","","","","","","","","","","","","",""
"","","","","","html-keyboard-response","152","665770","0.0-13.0-1.25","A1Q56N80RJLQ7S","2022-05-26T23:30:14.611Z","phon_sim-rhyme-task_switching-same_different","","null","rhyme","<img src=""square.png"" width=""306"" height=""306"" style=""position: fixed;left:14%;top:30%""><img src=""square.png"" width=""306"" height=""306"" style=""position: fixed;left:64%;top:30%"">","null","","","","","","","","","","","","","","","","","","","","","","","","","","","","","","","","","","",""
"","","","","","html-keyboard-response","153","667086","0.0-13.0-2.25","A1Q56N80RJLQ7S","2022-05-26T23:30:14.611Z","phon_sim-rhyme-task_switching-same_different","","1315.3999999761581","rhyme","<div style=""border: 3px solid #000000; position: fixed;left:14%;top:30%""><img src=""visual/bed.png"" width=""300""></div><div style=""border: 3px solid #000000; position: fixed;left:64%;top:30%""><img src=""visual/bread.png"" width=""300""></div>","arrowup","experiment","","","","","","","","","","","","","","","","true","visual/bed.png","visual/bread.png","ArrowUp","non-ortho","","","","","","","","","","","","","",""
"","","","","","html-keyboard-response","154","668087","0.0-13.0-0.26","A1Q56N80RJLQ7S","2022-05-26T23:30:14.611Z","phon_sim-rhyme-task_switching-same_different","","null","rhyme","<div style=""font-size:60px;"">+</div>","null","","","","","","","","","","","","","","","","1000","","","","","","","","","","","","","","","","","","",""
"","","","","","html-keyboard-response","155","668588","0.0-13.0-1.26","A1Q56N80RJLQ7S","2022-05-26T23:30:14.611Z","phon_sim-rhyme-task_switching-same_different","","null","rhyme","<img src=""square.png"" width=""306"" height=""306"" style=""position: fixed;left:14%;top:30%""><img src=""square.png"" width=""306"" height=""306"" style=""position: fixed;left:64%;top:30%"">","null","","","","","","","","","","","","","","","","","","","","","","","","","","","","","","","","","","",""
"","","","","","html-keyboard-response","156","669475","0.0-13.0-2.26","A1Q56N80RJLQ7S","2022-05-26T23:30:14.611Z","phon_sim-rhyme-task_switching-same_different","","885.8000000119209","rhyme","<div style=""border: 3px solid #000000; position: fixed;left:14%;top:30%""><img src=""visual/wave.png"" width=""300""></div><div style=""border: 3px solid #000000; position: fixed;left:64%;top:30%""><img src=""visual/cave.png"" width=""300""></div>","arrowup","experiment","","","","","","","","","","","","","","","","true","visual/wave.png","visual/cave.png","ArrowUp","ortho","","","","","","","","","","","","","",""
"","","","","","html-keyboard-response","157","670226","0.0-13.0-0.27","A1Q56N80RJLQ7S","2022-05-26T23:30:14.611Z","phon_sim-rhyme-task_switching-same_different","","null","rhyme","<div style=""font-size:60px;"">+</div>","null","","","","","","","","","","","","","","","","750","","","","","","","","","","","","","","","","","","",""
"","","","","","html-keyboard-response","158","670727","0.0-13.0-1.27","A1Q56N80RJLQ7S","2022-05-26T23:30:14.611Z","phon_sim-rhyme-task_switching-same_different","","null","rhyme","<img src=""square.png"" width=""306"" height=""306"" style=""position: fixed;left:14%;top:30%""><img src=""square.png"" width=""306"" height=""306"" style=""position: fixed;left:64%;top:30%"">","null","","","","","","","","","","","","","","","","","","","","","","","","","","","","","","","","","","",""
"","","","","","html-keyboard-response","159","672069","0.0-13.0-2.27","A1Q56N80RJLQ7S","2022-05-26T23:30:14.611Z","phon_sim-rhyme-task_switching-same_different","","1341.300000011921","rhyme","<div style=""border: 3px solid #000000; position: fixed;left:14%;top:30%""><img src=""visual/shark.png"" width=""300""></div><div style=""border: 3px solid #000000; position: fixed;left:64%;top:30%""><img src=""visual/park.png"" width=""300""></div>","arrowdown","experiment","","","","","","","","","","","","","","","","false","visual/shark.png","visual/park.png","ArrowUp","ortho","","","","","","","","","","","","","",""
"","","","","","html-keyboard-response","160","672570","0.0-13.0-0.28","A1Q56N80RJLQ7S","2022-05-26T23:30:14.611Z","phon_sim-rhyme-task_switching-same_different","","null","rhyme","<div style=""font-size:60px;"">+</div>","null","","","","","","","","","","","","","","","","500","","","","","","","","","","","","","","","","","","",""
"","","","","","html-keyboard-response","161","673071","0.0-13.0-1.28","A1Q56N80RJLQ7S","2022-05-26T23:30:14.611Z","phon_sim-rhyme-task_switching-same_different","","null","rhyme","<img src=""square.png"" width=""306"" height=""306"" style=""position: fixed;left:14%;top:30%""><img src=""square.png"" width=""306"" height=""306"" style=""position: fixed;left:64%;top:30%"">","null","","","","","","","","","","","","","","","","","","","","","","","","","","","","","","","","","","",""
"","","","","","html-keyboard-response","162","674229","0.0-13.0-2.28","A1Q56N80RJLQ7S","2022-05-26T23:30:14.611Z","phon_sim-rhyme-task_switching-same_different","","1157.6000000238419","rhyme","<div style=""border: 3px solid #000000; position: fixed;left:14%;top:30%""><img src=""visual/egg.png"" width=""300""></div><div style=""border: 3px solid #000000; position: fixed;left:64%;top:30%""><img src=""visual/ring.png"" width=""300""></div>","arrowdown","experiment","","","","","","","","","","","","","","","","true","visual/egg.png","visual/ring.png","ArrowDown","NR","","","","","","","","","","","","","",""
"","","","","","html-keyboard-response","163","674980","0.0-13.0-0.29","A1Q56N80RJLQ7S","2022-05-26T23:30:14.611Z","phon_sim-rhyme-task_switching-same_different","","null","rhyme","<div style=""font-size:60px;"">+</div>","null","","","","","","","","","","","","","","","","750","","","","","","","","","","","","","","","","","","",""
"","","","","","html-keyboard-response","164","675481","0.0-13.0-1.29","A1Q56N80RJLQ7S","2022-05-26T23:30:14.611Z","phon_sim-rhyme-task_switching-same_different","","null","rhyme","<img src=""square.png"" width=""306"" height=""306"" style=""position: fixed;left:14%;top:30%""><img src=""square.png"" width=""306"" height=""306"" style=""position: fixed;left:64%;top:30%"">","null","","","","","","","","","","","","","","","","","","","","","","","","","","","","","","","","","","",""
"","","","","","html-keyboard-response","165","676378","0.0-13.0-2.29","A1Q56N80RJLQ7S","2022-05-26T23:30:14.611Z","phon_sim-rhyme-task_switching-same_different","","895.8000000119209","rhyme","<div style=""border: 3px solid #000000; position: fixed;left:14%;top:30%""><img src=""visual/king.png"" width=""300""></div><div style=""border: 3px solid #000000; position: fixed;left:64%;top:30%""><img src=""visual/cab.png"" width=""300""></div>","arrowdown","experiment","","","","","","","","","","","","","","","","true","visual/king.png","visual/cab.png","ArrowDown","NR","","","","","","","","","","","","","",""
"","","","","","html-keyboard-response","166","677128","0.0-13.0-0.30","A1Q56N80RJLQ7S","2022-05-26T23:30:14.611Z","phon_sim-rhyme-task_switching-same_different","","null","rhyme","<div style=""font-size:60px;"">+</div>","null","","","","","","","","","","","","","","","","750","","","","","","","","","","","","","","","","","","",""
"","","","","","html-keyboard-response","167","677629","0.0-13.0-1.30","A1Q56N80RJLQ7S","2022-05-26T23:30:14.611Z","phon_sim-rhyme-task_switching-same_different","","null","rhyme","<img src=""square.png"" width=""306"" height=""306"" style=""position: fixed;left:14%;top:30%""><img src=""square.png"" width=""306"" height=""306"" style=""position: fixed;left:64%;top:30%"">","null","","","","","","","","","","","","","","","","","","","","","","","","","","","","","","","","","","",""
"","","","","","html-keyboard-response","168","678543","0.0-13.0-2.30","A1Q56N80RJLQ7S","2022-05-26T23:30:14.611Z","phon_sim-rhyme-task_switching-same_different","","912.5999999642372","rhyme","<div style=""border: 3px solid #000000; position: fixed;left:14%;top:30%""><img src=""visual/star.png"" width=""300""></div><div style=""border: 3px solid #000000; position: fixed;left:64%;top:30%""><img src=""visual/jar.png"" width=""300""></div>","arrowup","experiment","","","","","","","","","","","","","","","","true","visual/star.png","visual/jar.png","ArrowUp","ortho","","","","","","","","","","","","","",""
"","","","","","html-keyboard-response","169","679294","0.0-13.0-0.31","A1Q56N80RJLQ7S","2022-05-26T23:30:14.611Z","phon_sim-rhyme-task_switching-same_different","","null","rhyme","<div style=""font-size:60px;"">+</div>","null","","","","","","","","","","","","","","","","750","","","","","","","","","","","","","","","","","","",""
"","","","","","html-keyboard-response","170","679795","0.0-13.0-1.31","A1Q56N80RJLQ7S","2022-05-26T23:30:14.611Z","phon_sim-rhyme-task_switching-same_different","","null","rhyme","<img src=""square.png"" width=""306"" height=""306"" style=""position: fixed;left:14%;top:30%""><img src=""square.png"" width=""306"" height=""306"" style=""position: fixed;left:64%;top:30%"">","null","","","","","","","","","","","","","","","","","","","","","","","","","","","","","","","","","","",""
"","","","","","html-keyboard-response","171","681102","0.0-13.0-2.31","A1Q56N80RJLQ7S","2022-05-26T23:30:14.611Z","phon_sim-rhyme-task_switching-same_different","","1305.5","rhyme","<div style=""border: 3px solid #000000; position: fixed;left:14%;top:30%""><img src=""visual/drawer.png"" width=""300""></div><div style=""border: 3px solid #000000; position: fixed;left:64%;top:30%""><img src=""visual/chair.png"" width=""300""></div>","arrowdown","experiment","","","","","","","","","","","","","","","","true","visual/drawer.png","visual/chair.png","ArrowDown","NR","","","","","","","","","","","","","",""
"","","","","","html-keyboard-response","172","681353","0.0-13.0-0.32","A1Q56N80RJLQ7S","2022-05-26T23:30:14.611Z","phon_sim-rhyme-task_switching-same_different","","null","rhyme","<div style=""font-size:60px;"">+</div>","null","","","","","","","","","","","","","","","","250","","","","","","","","","","","","","","","","","","",""
"","","","","","html-keyboard-response","173","681854","0.0-13.0-1.32","A1Q56N80RJLQ7S","2022-05-26T23:30:14.611Z","phon_sim-rhyme-task_switching-same_different","","null","rhyme","<img src=""square.png"" width=""306"" height=""306"" style=""position: fixed;left:14%;top:30%""><img src=""square.png"" width=""306"" height=""306"" style=""position: fixed;left:64%;top:30%"">","null","","","","","","","","","","","","","","","","","","","","","","","","","","","","","","","","","","",""
"","","","","","html-keyboard-response","174","683210","0.0-13.0-2.32","A1Q56N80RJLQ7S","2022-05-26T23:30:14.611Z","phon_sim-rhyme-task_switching-same_different","","1355.199999988079","rhyme","<div style=""border: 3px solid #000000; position: fixed;left:14%;top:30%""><img src=""visual/bear.png"" width=""300""></div><div style=""border: 3px solid #000000; position: fixed;left:64%;top:30%""><img src=""visual/square_rhyme.png"" width=""300""></div>","arrowup","experiment","","","","","","","","","","","","","","","","true","visual/bear.png","visual/square_rhyme.png","ArrowUp","non-ortho","","","","","","","","","","","","","",""
"","","","","","html-keyboard-response","175","683461","0.0-13.0-0.33","A1Q56N80RJLQ7S","2022-05-26T23:30:14.611Z","phon_sim-rhyme-task_switching-same_different","","null","rhyme","<div style=""font-size:60px;"">+</div>","null","","","","","","","","","","","","","","","","250","","","","","","","","","","","","","","","","","","",""
"","","","","","html-keyboard-response","176","683962","0.0-13.0-1.33","A1Q56N80RJLQ7S","2022-05-26T23:30:14.611Z","phon_sim-rhyme-task_switching-same_different","","null","rhyme","<img src=""square.png"" width=""306"" height=""306"" style=""position: fixed;left:14%;top:30%""><img src=""square.png"" width=""306"" height=""306"" style=""position: fixed;left:64%;top:30%"">","null","","","","","","","","","","","","","","","","","","","","","","","","","","","","","","","","","","",""
"","","","","","html-keyboard-response","177","685057","0.0-13.0-2.33","A1Q56N80RJLQ7S","2022-05-26T23:30:14.611Z","phon_sim-rhyme-task_switching-same_different","","1094.1000000238419","rhyme","<div style=""border: 3px solid #000000; position: fixed;left:14%;top:30%""><img src=""visual/deer.png"" width=""300""></div><div style=""border: 3px solid #000000; position: fixed;left:64%;top:30%""><img src=""visual/beer.png"" width=""300""></div>","arrowup","experiment","","","","","","","","","","","","","","","","true","visual/deer.png","visual/beer.png","ArrowUp","ortho","","","","","","","","","","","","","",""
"","","","","","html-keyboard-response","178","685808","0.0-13.0-0.34","A1Q56N80RJLQ7S","2022-05-26T23:30:14.611Z","phon_sim-rhyme-task_switching-same_different","","null","rhyme","<div style=""font-size:60px;"">+</div>","null","","","","","","","","","","","","","","","","750","","","","","","","","","","","","","","","","","","",""
"","","","","","html-keyboard-response","179","686309","0.0-13.0-1.34","A1Q56N80RJLQ7S","2022-05-26T23:30:14.611Z","phon_sim-rhyme-task_switching-same_different","","null","rhyme","<img src=""square.png"" width=""306"" height=""306"" style=""position: fixed;left:14%;top:30%""><img src=""square.png"" width=""306"" height=""306"" style=""position: fixed;left:64%;top:30%"">","null","","","","","","","","","","","","","","","","","","","","","","","","","","","","","","","","","","",""
"","","","","","html-keyboard-response","180","687163","0.0-13.0-2.34","A1Q56N80RJLQ7S","2022-05-26T23:30:14.611Z","phon_sim-rhyme-task_switching-same_different","","852.8000000119209","rhyme","<div style=""border: 3px solid #000000; position: fixed;left:14%;top:30%""><img src=""visual/dart.png"" width=""300""></div><div style=""border: 3px solid #000000; position: fixed;left:64%;top:30%""><img src=""visual/tie.png"" width=""300""></div>","arrowup","experiment","","","","","","","","","","","","","","","","false","visual/dart.png","visual/tie.png","ArrowDown","NR","","","","","","","","","","","","","",""
"","","","","","html-keyboard-response","181","687664","0.0-13.0-0.35","A1Q56N80RJLQ7S","2022-05-26T23:30:14.611Z","phon_sim-rhyme-task_switching-same_different","","null","rhyme","<div style=""font-size:60px;"">+</div>","null","","","","","","","","","","","","","","","","500","","","","","","","","","","","","","","","","","","",""
"","","","","","html-keyboard-response","182","688165","0.0-13.0-1.35","A1Q56N80RJLQ7S","2022-05-26T23:30:14.611Z","phon_sim-rhyme-task_switching-same_different","","null","rhyme","<img src=""square.png"" width=""306"" height=""306"" style=""position: fixed;left:14%;top:30%""><img src=""square.png"" width=""306"" height=""306"" style=""position: fixed;left:64%;top:30%"">","null","","","","","","","","","","","","","","","","","","","","","","","","","","","","","","","","","","",""
"","","","","","html-keyboard-response","183","689115","0.0-13.0-2.35","A1Q56N80RJLQ7S","2022-05-26T23:30:14.611Z","phon_sim-rhyme-task_switching-same_different","","949","rhyme","<div style=""border: 3px solid #000000; position: fixed;left:14%;top:30%""><img src=""visual/plane.png"" width=""300""></div><div style=""border: 3px solid #000000; position: fixed;left:64%;top:30%""><img src=""visual/train.png"" width=""300""></div>","arrowdown","experiment","","","","","","","","","","","","","","","","false","visual/plane.png","visual/train.png","ArrowUp","non-ortho","","","","","","","","","","","","","",""
"","","","","","html-keyboard-response","184","689866","0.0-13.0-0.36","A1Q56N80RJLQ7S","2022-05-26T23:30:14.611Z","phon_sim-rhyme-task_switching-same_different","","null","rhyme","<div style=""font-size:60px;"">+</div>","null","","","","","","","","","","","","","","","","750","","","","","","","","","","","","","","","","","","",""
"","","","","","html-keyboard-response","185","690367","0.0-13.0-1.36","A1Q56N80RJLQ7S","2022-05-26T23:30:14.611Z","phon_sim-rhyme-task_switching-same_different","","null","rhyme","<img src=""square.png"" width=""306"" height=""306"" style=""position: fixed;left:14%;top:30%""><img src=""square.png"" width=""306"" height=""306"" style=""position: fixed;left:64%;top:30%"">","null","","","","","","","","","","","","","","","","","","","","","","","","","","","","","","","","","","",""
"","","","","","html-keyboard-response","186","692030","0.0-13.0-2.36","A1Q56N80RJLQ7S","2022-05-26T23:30:14.611Z","phon_sim-rhyme-task_switching-same_different","","1662.1000000238419","rhyme","<div style=""border: 3px solid #000000; position: fixed;left:14%;top:30%""><img src=""visual/key.png"" width=""300""></div><div style=""border: 3px solid #000000; position: fixed;left:64%;top:30%""><img src=""visual/snail.png"" width=""300""></div>","arrowdown","experiment","","","","","","","","","","","","","","","","true","visual/key.png","visual/snail.png","ArrowDown","NR","","","","","","","","","","","","","",""
"","","","","","html-keyboard-response","187","692280","0.0-13.0-0.37","A1Q56N80RJLQ7S","2022-05-26T23:30:14.611Z","phon_sim-rhyme-task_switching-same_different","","null","rhyme","<div style=""font-size:60px;"">+</div>","null","","","","","","","","","","","","","","","","250","","","","","","","","","","","","","","","","","","",""
"","","","","","html-keyboard-response","188","692781","0.0-13.0-1.37","A1Q56N80RJLQ7S","2022-05-26T23:30:14.611Z","phon_sim-rhyme-task_switching-same_different","","null","rhyme","<img src=""square.png"" width=""306"" height=""306"" style=""position: fixed;left:14%;top:30%""><img src=""square.png"" width=""306"" height=""306"" style=""position: fixed;left:64%;top:30%"">","null","","","","","","","","","","","","","","","","","","","","","","","","","","","","","","","","","","",""
"","","","","","html-keyboard-response","189","694506","0.0-13.0-2.37","A1Q56N80RJLQ7S","2022-05-26T23:30:14.611Z","phon_sim-rhyme-task_switching-same_different","","1723.9000000357628","rhyme","<div style=""border: 3px solid #000000; position: fixed;left:14%;top:30%""><img src=""visual/well.png"" width=""300""></div><div style=""border: 3px solid #000000; position: fixed;left:64%;top:30%""><img src=""visual/bell.png"" width=""300""></div>","arrowdown","experiment","","","","","","","","","","","","","","","","false","visual/well.png","visual/bell.png","ArrowUp","ortho","","","","","","","","","","","","","",""
"","","","","","html-keyboard-response","190","694757","0.0-13.0-0.38","A1Q56N80RJLQ7S","2022-05-26T23:30:14.611Z","phon_sim-rhyme-task_switching-same_different","","null","rhyme","<div style=""font-size:60px;"">+</div>","null","","","","","","","","","","","","","","","","250","","","","","","","","","","","","","","","","","","",""
"","","","","","html-keyboard-response","191","695258","0.0-13.0-1.38","A1Q56N80RJLQ7S","2022-05-26T23:30:14.611Z","phon_sim-rhyme-task_switching-same_different","","null","rhyme","<img src=""square.png"" width=""306"" height=""306"" style=""position: fixed;left:14%;top:30%""><img src=""square.png"" width=""306"" height=""306"" style=""position: fixed;left:64%;top:30%"">","null","","","","","","","","","","","","","","","","","","","","","","","","","","","","","","","","","","",""
"","","","","","html-keyboard-response","192","700259","0.0-13.0-2.38","A1Q56N80RJLQ7S","2022-05-26T23:30:14.611Z","phon_sim-rhyme-task_switching-same_different","","null","rhyme","<div style=""border: 3px solid #000000; position: fixed;left:14%;top:30%""><img src=""visual/bin.png"" width=""300""></div><div style=""border: 3px solid #000000; position: fixed;left:64%;top:30%""><img src=""visual/chin.png"" width=""300""></div>","null","experiment","","","","","","","","","","","","","","","","false","visual/bin.png","visual/chin.png","ArrowUp","ortho","","","","","","","","","","","","","",""
"","","","","","html-keyboard-response","193","701260","0.0-13.0-0.39","A1Q56N80RJLQ7S","2022-05-26T23:30:14.611Z","phon_sim-rhyme-task_switching-same_different","","null","rhyme","<div style=""font-size:60px;"">+</div>","null","","","","","","","","","","","","","","","","1000","","","","","","","","","","","","","","","","","","",""
"","","","","","html-keyboard-response","194","701761","0.0-13.0-1.39","A1Q56N80RJLQ7S","2022-05-26T23:30:14.611Z","phon_sim-rhyme-task_switching-same_different","","null","rhyme","<img src=""square.png"" width=""306"" height=""306"" style=""position: fixed;left:14%;top:30%""><img src=""square.png"" width=""306"" height=""306"" style=""position: fixed;left:64%;top:30%"">","null","","","","","","","","","","","","","","","","","","","","","","","","","","","","","","","","","","",""
"","","","","","html-keyboard-response","195","702559","0.0-13.0-2.39","A1Q56N80RJLQ7S","2022-05-26T23:30:14.611Z","phon_sim-rhyme-task_switching-same_different","","795.8000000119209","rhyme","<div style=""border: 3px solid #000000; position: fixed;left:14%;top:30%""><img src=""visual/bear.png"" width=""300""></div><div style=""border: 3px solid #000000; position: fixed;left:64%;top:30%""><img src=""visual/hair.png"" width=""300""></div>","arrowdown","experiment","","","","","","","","","","","","","","","","false","visual/bear.png","visual/hair.png","ArrowUp","non-ortho","","","","","","","","","","","","","",""
