"success","timeout","failed_images","failed_audio","failed_video","trial_type","trial_index","time_elapsed","internal_node_id","worker_id","start_time","experiment_order","view_history","rt","experiment","stimulus","response","phase","word_1","word_2","word_3","word_4","word_5","original_word_set","response_1","response_2","response_3","response_4","response_5","question_order","talk_out_loud","strategy_free_ans","wait_time","correct","image_1","image_2","cor_key","type","judgment_type","stim_1","stim_2","inverted","answer","true_neg","true_pos","false_pos","false_neg","condition","operation","trial_no","symbol_cue","color_cue"
"true","false","[]","[]","[]","preload","0","2879","0.0-0.0","AMNUNZ65OSTFO","2022-05-23T19:25:33.903Z","phon_sim-rhyme-same_different-task_switching","","","","","","","","","","","","","","","","","","","","","","","","","","","","","","","","","","","","","","","",""
"","","","","","instructions","1","28243","0.0-1.0","AMNUNZ65OSTFO","2022-05-23T19:25:33.903Z","phon_sim-rhyme-same_different-task_switching","[{""page_index"":0,""viewing_time"":25362.399999976158}]","25362.69999998808","","","","","","","","","","","","","","","","","","","","","","","","","","","","","","","","","","","","","",""
"true","","","","","fullscreen","2","32036","0.0-2.0","AMNUNZ65OSTFO","2022-05-23T19:25:33.903Z","phon_sim-rhyme-same_different-task_switching","","","","","","","","","","","","","","","","","","","","","","","","","","","","","","","","","","","","","","","",""
"","","","","","instructions","3","40543","0.0-3.0","AMNUNZ65OSTFO","2022-05-23T19:25:33.903Z","phon_sim-rhyme-same_different-task_switching","[{""page_index"":0,""viewing_time"":8506.5}]","8506.699999988079","phon_sim","","","","","","","","","","","","","","","","","","","","","","","","","","","","","","","","","","","","",""
"","","","","","html-keyboard-response","4","53547","0.0-4.0-0.0","AMNUNZ65OSTFO","2022-05-23T19:25:33.903Z","phon_sim-rhyme-same_different-task_switching","","null","phon_sim","<div style=""display:grid""><h1 id=""word_1"" style=""grid-column:1; grid-row:1"">pen</h1><h1 id=""word_2"" style=""visibility:hidden;grid-column:1; grid-row:1"">rig</h1><h1 id=""word_3"" style=""visibility:hidden;grid-column:1; grid-row:1"">day</h1><h1 id=""word_4"" style=""visibility:hidden;grid-column:1; grid-row:1"">bar</h1><h1 id=""word_5"" style=""visibility:hidden;grid-column:1; grid-row:1"">cow</h1></div>","null","training","pen","rig","day","bar","cow","training","","","","","","","","","","","","","","","","","","","","","","","","","","","",""
"","","","","","survey-text","5","63979","0.0-4.0-1.0","AMNUNZ65OSTFO","2022-05-23T19:25:33.903Z","phon_sim-rhyme-same_different-task_switching","","10424.699999988079","phon_sim","","{""position_1"":""pen"",""position_2"":""rig"",""position_3"":""day"",""position_4"":""bar"",""position_5"":""cow""}","training","","","","","","","pen","rig","day","bar","cow","","","","","","","","","","","","","","","","","","","","","","",""
"","","","","","html-keyboard-response","6","68981","0.0-4.0-2.0","AMNUNZ65OSTFO","2022-05-23T19:25:33.903Z","phon_sim-rhyme-same_different-task_switching","","null","phon_sim","<h1 id=""word_1"">pen</h1><h1 id=""word_2"">rig</h1><h1 id=""word_3"">day</h1><h1 id=""word_4"">bar</h1><h1 id=""word_5"">cow</h1>","null","","","","","","","","","","","","","","","","","","","","","","","","","","","","","","","","","","",""
"","","","","","html-keyboard-response","7","81985","0.0-4.0-0.1","AMNUNZ65OSTFO","2022-05-23T19:25:33.903Z","phon_sim-rhyme-same_different-task_switching","","null","phon_sim","<div style=""display:grid""><h1 id=""word_1"" style=""grid-column:1; grid-row:1"">mad</h1><h1 id=""word_2"" style=""visibility:hidden;grid-column:1; grid-row:1"">man</h1><h1 id=""word_3"" style=""visibility:hidden;grid-column:1; grid-row:1"">map</h1><h1 id=""word_4"" style=""visibility:hidden;grid-column:1; grid-row:1"">mat</h1><h1 id=""word_5"" style=""visibility:hidden;grid-column:1; grid-row:1"">max</h1></div>","null","training","mad","man","map","mat","max","training","","","","","","","","","","","","","","","","","","","","","","","","","","","",""
"","","","","","survey-text","8","94557","0.0-4.0-1.1","AMNUNZ65OSTFO","2022-05-23T19:25:33.903Z","phon_sim-rhyme-same_different-task_switching","","12567.699999988079","phon_sim","","{""position_1"":""mad"",""position_2"":""man"",""position_3"":""map"",""position_4"":""max"",""position_5"":""mat""}","training","","","","","","","mad","man","map","max","mat","","","","","","","","","","","","","","","","","","","","","","",""
"","","","","","html-keyboard-response","9","99559","0.0-4.0-2.1","AMNUNZ65OSTFO","2022-05-23T19:25:33.903Z","phon_sim-rhyme-same_different-task_switching","","null","phon_sim","<h1 id=""word_1"">mad</h1><h1 id=""word_2"">man</h1><h1 id=""word_3"">map</h1><h1 id=""word_4"">mat</h1><h1 id=""word_5"">max</h1>","null","","","","","","","","","","","","","","","","","","","","","","","","","","","","","","","","","","",""
"","","","","","instructions","10","102752","0.0-5.0","AMNUNZ65OSTFO","2022-05-23T19:25:33.903Z","phon_sim-rhyme-same_different-task_switching","[{""page_index"":0,""viewing_time"":3191.199999988079}]","3191.599999964237","","","","","","","","","","","","","","","","","","","","","","","","","","","","","","","","","","","","","",""
"","","","","","html-keyboard-response","11","115756","0.0-6.0-0.0","AMNUNZ65OSTFO","2022-05-23T19:25:33.903Z","phon_sim-rhyme-same_different-task_switching","","null","phon_sim","<div style=""display:grid""><h1 id=""word_1"" style=""grid-column:1; grid-row:1"">taut</h1><h1 id=""word_2"" style=""visibility:hidden;grid-column:1; grid-row:1"">wart</h1><h1 id=""word_3"" style=""visibility:hidden;grid-column:1; grid-row:1"">sort</h1><h1 id=""word_4"" style=""visibility:hidden;grid-column:1; grid-row:1"">caught</h1><h1 id=""word_5"" style=""visibility:hidden;grid-column:1; grid-row:1"">bought</h1></div>","null","experiment","taut","wart","sort","caught","bought","phonSet","","","","","","","","","","","","","","","","","","","","","","","","","","","",""
"","","","","","survey-text","12","136728","0.0-6.0-1.0","AMNUNZ65OSTFO","2022-05-23T19:25:33.903Z","phon_sim-rhyme-same_different-task_switching","","20967.799999952316","phon_sim","","{""position_1"":""taunt"",""position_2"":""taut"",""position_3"":""bought"",""position_4"":""saught"",""position_5"":""caught""}","experiment","","","","","","","taunt","taut","bought","saught","caught","","","","","","","","","","","","","","","","","","","","","","",""
"","","","","","html-keyboard-response","13","149730","0.0-6.0-0.1","AMNUNZ65OSTFO","2022-05-23T19:25:33.903Z","phon_sim-rhyme-same_different-task_switching","","null","phon_sim","<div style=""display:grid""><h1 id=""word_1"" style=""grid-column:1; grid-row:1"">wart</h1><h1 id=""word_2"" style=""visibility:hidden;grid-column:1; grid-row:1"">bought</h1><h1 id=""word_3"" style=""visibility:hidden;grid-column:1; grid-row:1"">sort</h1><h1 id=""word_4"" style=""visibility:hidden;grid-column:1; grid-row:1"">caught</h1><h1 id=""word_5"" style=""visibility:hidden;grid-column:1; grid-row:1"">taut</h1></div>","null","experiment","wart","bought","sort","caught","taut","phonSet","","","","","","","","","","","","","","","","","","","","","","","","","","","",""
"","","","","","survey-text","14","162550","0.0-6.0-1.1","AMNUNZ65OSTFO","2022-05-23T19:25:33.903Z","phon_sim-rhyme-same_different-task_switching","","12815.599999964237","phon_sim","","{""position_1"":""wart"",""position_2"":""sought"",""position_3"":""taught"",""position_4"":""caught"",""position_5"":""bought""}","experiment","","","","","","","wart","sought","taught","caught","bought","","","","","","","","","","","","","","","","","","","","","","",""
"","","","","","html-keyboard-response","15","175553","0.0-6.0-0.2","AMNUNZ65OSTFO","2022-05-23T19:25:33.903Z","phon_sim-rhyme-same_different-task_switching","","null","phon_sim","<div style=""display:grid""><h1 id=""word_1"" style=""grid-column:1; grid-row:1"">friend</h1><h1 id=""word_2"" style=""visibility:hidden;grid-column:1; grid-row:1"">plea</h1><h1 id=""word_3"" style=""visibility:hidden;grid-column:1; grid-row:1"">board</h1><h1 id=""word_4"" style=""visibility:hidden;grid-column:1; grid-row:1"">sleigh</h1><h1 id=""word_5"" style=""visibility:hidden;grid-column:1; grid-row:1"">row</h1></div>","null","experiment","friend","plea","board","sleigh","row","controlSet","","","","","","","","","","","","","","","","","","","","","","","","","","","",""
"","","","","","survey-text","16","196601","0.0-6.0-1.2","AMNUNZ65OSTFO","2022-05-23T19:25:33.903Z","phon_sim-rhyme-same_different-task_switching","","21043.19999998808","phon_sim","","{""position_1"":""friend"",""position_2"":""plea"",""position_3"":""board"",""position_4"":""sleigh"",""position_5"":""bar""}","experiment","","","","","","","friend","plea","board","sleigh","bar","","","","","","","","","","","","","","","","","","","","","","",""
"","","","","","html-keyboard-response","17","209606","0.0-6.0-0.3","AMNUNZ65OSTFO","2022-05-23T19:25:33.903Z","phon_sim-rhyme-same_different-task_switching","","null","phon_sim","<div style=""display:grid""><h1 id=""word_1"" style=""grid-column:1; grid-row:1"">row</h1><h1 id=""word_2"" style=""visibility:hidden;grid-column:1; grid-row:1"">plea</h1><h1 id=""word_3"" style=""visibility:hidden;grid-column:1; grid-row:1"">sleigh</h1><h1 id=""word_4"" style=""visibility:hidden;grid-column:1; grid-row:1"">friend</h1><h1 id=""word_5"" style=""visibility:hidden;grid-column:1; grid-row:1"">board</h1></div>","null","experiment","row","plea","sleigh","friend","board","controlSet","","","","","","","","","","","","","","","","","","","","","","","","","","","",""
"","","","","","survey-text","18","229520","0.0-6.0-1.3","AMNUNZ65OSTFO","2022-05-23T19:25:33.903Z","phon_sim-rhyme-same_different-task_switching","","19909.900000035763","phon_sim","","{""position_1"":""row"",""position_2"":""plea"",""position_3"":""sleigh"",""position_4"":""bar"",""position_5"":""board""}","experiment","","","","","","","row","plea","sleigh","bar","board","","","","","","","","","","","","","","","","","","","","","","",""
"","","","","","html-keyboard-response","19","242522","0.0-6.0-0.4","AMNUNZ65OSTFO","2022-05-23T19:25:33.903Z","phon_sim-rhyme-same_different-task_switching","","null","phon_sim","<div style=""display:grid""><h1 id=""word_1"" style=""grid-column:1; grid-row:1"">cough</h1><h1 id=""word_2"" style=""visibility:hidden;grid-column:1; grid-row:1"">dough</h1><h1 id=""word_3"" style=""visibility:hidden;grid-column:1; grid-row:1"">bough</h1><h1 id=""word_4"" style=""visibility:hidden;grid-column:1; grid-row:1"">through</h1><h1 id=""word_5"" style=""visibility:hidden;grid-column:1; grid-row:1"">rough</h1></div>","null","experiment","cough","dough","bough","through","rough","orthoSet","","","","","","","","","","","","","","","","","","","","","","","","","","","",""
"","","","","","survey-text","20","280139","0.0-6.0-1.4","AMNUNZ65OSTFO","2022-05-23T19:25:33.903Z","phon_sim-rhyme-same_different-task_switching","","37610.80000001192","phon_sim","","{""position_1"":"""",""position_2"":"""",""position_3"":""cough"",""position_4"":""bough"",""position_5"":""rough""}","experiment","","","","","","","","","cough","bough","rough","","","","","","","","","","","","","","","","","","","","","","",""
"","","","","","html-keyboard-response","21","293142","0.0-6.0-0.5","AMNUNZ65OSTFO","2022-05-23T19:25:33.903Z","phon_sim-rhyme-same_different-task_switching","","null","phon_sim","<div style=""display:grid""><h1 id=""word_1"" style=""grid-column:1; grid-row:1"">bought</h1><h1 id=""word_2"" style=""visibility:hidden;grid-column:1; grid-row:1"">sort</h1><h1 id=""word_3"" style=""visibility:hidden;grid-column:1; grid-row:1"">caught</h1><h1 id=""word_4"" style=""visibility:hidden;grid-column:1; grid-row:1"">taut</h1><h1 id=""word_5"" style=""visibility:hidden;grid-column:1; grid-row:1"">wart</h1></div>","null","experiment","bought","sort","caught","taut","wart","phonSet","","","","","","","","","","","","","","","","","","","","","","","","","","","",""
"","","","","","survey-text","22","309830","0.0-6.0-1.5","AMNUNZ65OSTFO","2022-05-23T19:25:33.903Z","phon_sim-rhyme-same_different-task_switching","","16684.599999964237","phon_sim","","{""position_1"":""bought"",""position_2"":""saught"",""position_3"":""caught"",""position_4"":""taut"",""position_5"":""wart""}","experiment","","","","","","","bought","saught","caught","taut","wart","","","","","","","","","","","","","","","","","","","","","","",""
"","","","","","html-keyboard-response","23","322833","0.0-6.0-0.6","AMNUNZ65OSTFO","2022-05-23T19:25:33.903Z","phon_sim-rhyme-same_different-task_switching","","null","phon_sim","<div style=""display:grid""><h1 id=""word_1"" style=""grid-column:1; grid-row:1"">row</h1><h1 id=""word_2"" style=""visibility:hidden;grid-column:1; grid-row:1"">board</h1><h1 id=""word_3"" style=""visibility:hidden;grid-column:1; grid-row:1"">friend</h1><h1 id=""word_4"" style=""visibility:hidden;grid-column:1; grid-row:1"">sleigh</h1><h1 id=""word_5"" style=""visibility:hidden;grid-column:1; grid-row:1"">plea</h1></div>","null","experiment","row","board","friend","sleigh","plea","controlSet","","","","","","","","","","","","","","","","","","","","","","","","","","","",""
"","","","","","survey-text","24","336711","0.0-6.0-1.6","AMNUNZ65OSTFO","2022-05-23T19:25:33.903Z","phon_sim-rhyme-same_different-task_switching","","13873.199999988079","phon_sim","","{""position_1"":""bought"",""position_2"":""caught"",""position_3"":""friend"",""position_4"":""sleigh"",""position_5"":""plea""}","experiment","","","","","","","bought","caught","friend","sleigh","plea","","","","","","","","","","","","","","","","","","","","","","",""
"","","","","","html-keyboard-response","25","349713","0.0-6.0-0.7","AMNUNZ65OSTFO","2022-05-23T19:25:33.903Z","phon_sim-rhyme-same_different-task_switching","","null","phon_sim","<div style=""display:grid""><h1 id=""word_1"" style=""grid-column:1; grid-row:1"">caught</h1><h1 id=""word_2"" style=""visibility:hidden;grid-column:1; grid-row:1"">bought</h1><h1 id=""word_3"" style=""visibility:hidden;grid-column:1; grid-row:1"">taut</h1><h1 id=""word_4"" style=""visibility:hidden;grid-column:1; grid-row:1"">wart</h1><h1 id=""word_5"" style=""visibility:hidden;grid-column:1; grid-row:1"">sort</h1></div>","null","experiment","caught","bought","taut","wart","sort","phonSet","","","","","","","","","","","","","","","","","","","","","","","","","","","",""
"","","","","","survey-text","26","363989","0.0-6.0-1.7","AMNUNZ65OSTFO","2022-05-23T19:25:33.903Z","phon_sim-rhyme-same_different-task_switching","","14270.5","phon_sim","","{""position_1"":""baught"",""position_2"":""caught"",""position_3"":""sought"",""position_4"":""wart"",""position_5"":""sort""}","experiment","","","","","","","baught","caught","sought","wart","sort","","","","","","","","","","","","","","","","","","","","","","",""
"","","","","","html-keyboard-response","27","376993","0.0-6.0-0.8","AMNUNZ65OSTFO","2022-05-23T19:25:33.903Z","phon_sim-rhyme-same_different-task_switching","","null","phon_sim","<div style=""display:grid""><h1 id=""word_1"" style=""grid-column:1; grid-row:1"">through</h1><h1 id=""word_2"" style=""visibility:hidden;grid-column:1; grid-row:1"">bough</h1><h1 id=""word_3"" style=""visibility:hidden;grid-column:1; grid-row:1"">cough</h1><h1 id=""word_4"" style=""visibility:hidden;grid-column:1; grid-row:1"">rough</h1><h1 id=""word_5"" style=""visibility:hidden;grid-column:1; grid-row:1"">dough</h1></div>","null","experiment","through","bough","cough","rough","dough","orthoSet","","","","","","","","","","","","","","","","","","","","","","","","","","","",""
"","","","","","survey-text","28","411705","0.0-6.0-1.8","AMNUNZ65OSTFO","2022-05-23T19:25:33.903Z","phon_sim-rhyme-same_different-task_switching","","34704","phon_sim","","{""position_1"":""through"",""position_2"":""bough"",""position_3"":""saught"",""position_4"":""sort"",""position_5"":""dough""}","experiment","","","","","","","through","bough","saught","sort","dough","","","","","","","","","","","","","","","","","","","","","","",""
"","","","","","html-keyboard-response","29","424709","0.0-6.0-0.9","AMNUNZ65OSTFO","2022-05-23T19:25:33.903Z","phon_sim-rhyme-same_different-task_switching","","null","phon_sim","<div style=""display:grid""><h1 id=""word_1"" style=""grid-column:1; grid-row:1"">sleigh</h1><h1 id=""word_2"" style=""visibility:hidden;grid-column:1; grid-row:1"">board</h1><h1 id=""word_3"" style=""visibility:hidden;grid-column:1; grid-row:1"">row</h1><h1 id=""word_4"" style=""visibility:hidden;grid-column:1; grid-row:1"">plea</h1><h1 id=""word_5"" style=""visibility:hidden;grid-column:1; grid-row:1"">friend</h1></div>","null","experiment","sleigh","board","row","plea","friend","controlSet","","","","","","","","","","","","","","","","","","","","","","","","","","","",""
"","","","","","survey-text","30","442359","0.0-6.0-1.9","AMNUNZ65OSTFO","2022-05-23T19:25:33.903Z","phon_sim-rhyme-same_different-task_switching","","17644.899999976158","phon_sim","","{""position_1"":""sleigh"",""position_2"":""board"",""position_3"":""row"",""position_4"":""friend"",""position_5"":""plea""}","experiment","","","","","","","sleigh","board","row","friend","plea","","","","","","","","","","","","","","","","","","","","","","",""
"","","","","","html-keyboard-response","31","455361","0.0-6.0-0.10","AMNUNZ65OSTFO","2022-05-23T19:25:33.903Z","phon_sim-rhyme-same_different-task_switching","","null","phon_sim","<div style=""display:grid""><h1 id=""word_1"" style=""grid-column:1; grid-row:1"">wart</h1><h1 id=""word_2"" style=""visibility:hidden;grid-column:1; grid-row:1"">taut</h1><h1 id=""word_3"" style=""visibility:hidden;grid-column:1; grid-row:1"">caught</h1><h1 id=""word_4"" style=""visibility:hidden;grid-column:1; grid-row:1"">sort</h1><h1 id=""word_5"" style=""visibility:hidden;grid-column:1; grid-row:1"">bought</h1></div>","null","experiment","wart","taut","caught","sort","bought","phonSet","","","","","","","","","","","","","","","","","","","","","","","","","","","",""
"","","","","","survey-text","32","486775","0.0-6.0-1.10","AMNUNZ65OSTFO","2022-05-23T19:25:33.903Z","phon_sim-rhyme-same_different-task_switching","","31408.80000001192","phon_sim","","{""position_1"":""wart"",""position_2"":""taut"",""position_3"":""caught"",""position_4"":""sought"",""position_5"":""bought""}","experiment","","","","","","","wart","taut","caught","sought","bought","","","","","","","","","","","","","","","","","","","","","","",""
"","","","","","html-keyboard-response","33","499779","0.0-6.0-0.11","AMNUNZ65OSTFO","2022-05-23T19:25:33.903Z","phon_sim-rhyme-same_different-task_switching","","null","phon_sim","<div style=""display:grid""><h1 id=""word_1"" style=""grid-column:1; grid-row:1"">dough</h1><h1 id=""word_2"" style=""visibility:hidden;grid-column:1; grid-row:1"">cough</h1><h1 id=""word_3"" style=""visibility:hidden;grid-column:1; grid-row:1"">bough</h1><h1 id=""word_4"" style=""visibility:hidden;grid-column:1; grid-row:1"">rough</h1><h1 id=""word_5"" style=""visibility:hidden;grid-column:1; grid-row:1"">through</h1></div>","null","experiment","dough","cough","bough","rough","through","orthoSet","","","","","","","","","","","","","","","","","","","","","","","","","","","",""
"","","","","","survey-text","34","552229","0.0-6.0-1.11","AMNUNZ65OSTFO","2022-05-23T19:25:33.903Z","phon_sim-rhyme-same_different-task_switching","","52446.10000002384","phon_sim","","{""position_1"":"""",""position_2"":"""",""position_3"":""cough"",""position_4"":""bough"",""position_5"":""through""}","experiment","","","","","","","","","cough","bough","through","","","","","","","","","","","","","","","","","","","","","","",""
"","","","","","html-keyboard-response","35","565232","0.0-6.0-0.12","AMNUNZ65OSTFO","2022-05-23T19:25:33.903Z","phon_sim-rhyme-same_different-task_switching","","null","phon_sim","<div style=""display:grid""><h1 id=""word_1"" style=""grid-column:1; grid-row:1"">plea</h1><h1 id=""word_2"" style=""visibility:hidden;grid-column:1; grid-row:1"">row</h1><h1 id=""word_3"" style=""visibility:hidden;grid-column:1; grid-row:1"">friend</h1><h1 id=""word_4"" style=""visibility:hidden;grid-column:1; grid-row:1"">board</h1><h1 id=""word_5"" style=""visibility:hidden;grid-column:1; grid-row:1"">sleigh</h1></div>","null","experiment","plea","row","friend","board","sleigh","controlSet","","","","","","","","","","","","","","","","","","","","","","","","","","","",""
"","","","","","survey-text","36","579237","0.0-6.0-1.12","AMNUNZ65OSTFO","2022-05-23T19:25:33.903Z","phon_sim-rhyme-same_different-task_switching","","14000.900000035763","phon_sim","","{""position_1"":""plea"",""position_2"":""bough"",""position_3"":""friend"",""position_4"":""row"",""position_5"":""sleigh""}","experiment","","","","","","","plea","bough","friend","row","sleigh","","","","","","","","","","","","","","","","","","","","","","",""
"","","","","","html-keyboard-response","37","592240","0.0-6.0-0.13","AMNUNZ65OSTFO","2022-05-23T19:25:33.903Z","phon_sim-rhyme-same_different-task_switching","","null","phon_sim","<div style=""display:grid""><h1 id=""word_1"" style=""grid-column:1; grid-row:1"">rough</h1><h1 id=""word_2"" style=""visibility:hidden;grid-column:1; grid-row:1"">cough</h1><h1 id=""word_3"" style=""visibility:hidden;grid-column:1; grid-row:1"">dough</h1><h1 id=""word_4"" style=""visibility:hidden;grid-column:1; grid-row:1"">through</h1><h1 id=""word_5"" style=""visibility:hidden;grid-column:1; grid-row:1"">bough</h1></div>","null","experiment","rough","cough","dough","through","bough","orthoSet","","","","","","","","","","","","","","","","","","","","","","","","","","","",""
"","","","","","survey-text","38","613078","0.0-6.0-1.13","AMNUNZ65OSTFO","2022-05-23T19:25:33.903Z","phon_sim-rhyme-same_different-task_switching","","20832.900000035763","phon_sim","","{""position_1"":""row"",""position_2"":""dough"",""position_3"":""cough"",""position_4"":""through"",""position_5"":""bough""}","experiment","","","","","","","row","dough","cough","through","bough","","","","","","","","","","","","","","","","","","","","","","",""
"","","","","","html-keyboard-response","39","626080","0.0-6.0-0.14","AMNUNZ65OSTFO","2022-05-23T19:25:33.903Z","phon_sim-rhyme-same_different-task_switching","","null","phon_sim","<div style=""display:grid""><h1 id=""word_1"" style=""grid-column:1; grid-row:1"">dough</h1><h1 id=""word_2"" style=""visibility:hidden;grid-column:1; grid-row:1"">rough</h1><h1 id=""word_3"" style=""visibility:hidden;grid-column:1; grid-row:1"">bough</h1><h1 id=""word_4"" style=""visibility:hidden;grid-column:1; grid-row:1"">cough</h1><h1 id=""word_5"" style=""visibility:hidden;grid-column:1; grid-row:1"">through</h1></div>","null","experiment","dough","rough","bough","cough","through","orthoSet","","","","","","","","","","","","","","","","","","","","","","","","","","","",""
"","","","","","survey-text","40","683632","0.0-6.0-1.14","AMNUNZ65OSTFO","2022-05-23T19:25:33.903Z","phon_sim-rhyme-same_different-task_switching","","57545.89999997616","phon_sim","","{""position_1"":"""",""position_2"":"""",""position_3"":""dough"",""position_4"":""cough"",""position_5"":""through""}","experiment","","","","","","","","","dough","cough","through","","","","","","","","","","","","","","","","","","","","","","",""
"","","","","","html-keyboard-response","41","696634","0.0-6.0-0.15","AMNUNZ65OSTFO","2022-05-23T19:25:33.903Z","phon_sim-rhyme-same_different-task_switching","","null","phon_sim","<div style=""display:grid""><h1 id=""word_1"" style=""grid-column:1; grid-row:1"">through</h1><h1 id=""word_2"" style=""visibility:hidden;grid-column:1; grid-row:1"">dough</h1><h1 id=""word_3"" style=""visibility:hidden;grid-column:1; grid-row:1"">bough</h1><h1 id=""word_4"" style=""visibility:hidden;grid-column:1; grid-row:1"">rough</h1><h1 id=""word_5"" style=""visibility:hidden;grid-column:1; grid-row:1"">cough</h1></div>","null","experiment","through","dough","bough","rough","cough","orthoSet","","","","","","","","","","","","","","","","","","","","","","","","","","","",""
"","","","","","survey-text","42","736740","0.0-6.0-1.15","AMNUNZ65OSTFO","2022-05-23T19:25:33.903Z","phon_sim-rhyme-same_different-task_switching","","40102","phon_sim","","{""position_1"":""dough"",""position_2"":""through"",""position_3"":"""",""position_4"":""rough"",""position_5"":""cough""}","experiment","","","","","","","dough","through","","rough","cough","","","","","","","","","","","","","","","","","","","","","","",""
"","","","","","html-keyboard-response","43","749742","0.0-6.0-0.16","AMNUNZ65OSTFO","2022-05-23T19:25:33.903Z","phon_sim-rhyme-same_different-task_switching","","null","phon_sim","<div style=""display:grid""><h1 id=""word_1"" style=""grid-column:1; grid-row:1"">bought</h1><h1 id=""word_2"" style=""visibility:hidden;grid-column:1; grid-row:1"">caught</h1><h1 id=""word_3"" style=""visibility:hidden;grid-column:1; grid-row:1"">taut</h1><h1 id=""word_4"" style=""visibility:hidden;grid-column:1; grid-row:1"">wart</h1><h1 id=""word_5"" style=""visibility:hidden;grid-column:1; grid-row:1"">sort</h1></div>","null","experiment","bought","caught","taut","wart","sort","phonSet","","","","","","","","","","","","","","","","","","","","","","","","","","","",""
"","","","","","survey-text","44","774879","0.0-6.0-1.16","AMNUNZ65OSTFO","2022-05-23T19:25:33.903Z","phon_sim-rhyme-same_different-task_switching","","25131.69999998808","phon_sim","","{""position_1"":""bought"",""position_2"":""caught"",""position_3"":""tart"",""position_4"":""sort"",""position_5"":""through""}","experiment","","","","","","","bought","caught","tart","sort","through","","","","","","","","","","","","","","","","","","","","","","",""
"","","","","","html-keyboard-response","45","787883","0.0-6.0-0.17","AMNUNZ65OSTFO","2022-05-23T19:25:33.903Z","phon_sim-rhyme-same_different-task_switching","","null","phon_sim","<div style=""display:grid""><h1 id=""word_1"" style=""grid-column:1; grid-row:1"">caught</h1><h1 id=""word_2"" style=""visibility:hidden;grid-column:1; grid-row:1"">sort</h1><h1 id=""word_3"" style=""visibility:hidden;grid-column:1; grid-row:1"">bought</h1><h1 id=""word_4"" style=""visibility:hidden;grid-column:1; grid-row:1"">taut</h1><h1 id=""word_5"" style=""visibility:hidden;grid-column:1; grid-row:1"">wart</h1></div>","null","experiment","caught","sort","bought","taut","wart","phonSet","","","","","","","","","","","","","","","","","","","","","","","","","","","",""
"","","","","","survey-text","46","806762","0.0-6.0-1.17","AMNUNZ65OSTFO","2022-05-23T19:25:33.903Z","phon_sim-rhyme-same_different-task_switching","","18874.5","phon_sim","","{""position_1"":""caught"",""position_2"":""sort"",""position_3"":""bought"",""position_4"":""tart"",""position_5"":""sought""}","experiment","","","","","","","caught","sort","bought","tart","sought","","","","","","","","","","","","","","","","","","","","","","",""
"","","","","","html-keyboard-response","47","819764","0.0-6.0-0.18","AMNUNZ65OSTFO","2022-05-23T19:25:33.903Z","phon_sim-rhyme-same_different-task_switching","","null","phon_sim","<div style=""display:grid""><h1 id=""word_1"" style=""grid-column:1; grid-row:1"">board</h1><h1 id=""word_2"" style=""visibility:hidden;grid-column:1; grid-row:1"">friend</h1><h1 id=""word_3"" style=""visibility:hidden;grid-column:1; grid-row:1"">sleigh</h1><h1 id=""word_4"" style=""visibility:hidden;grid-column:1; grid-row:1"">row</h1><h1 id=""word_5"" style=""visibility:hidden;grid-column:1; grid-row:1"">plea</h1></div>","null","experiment","board","friend","sleigh","row","plea","controlSet","","","","","","","","","","","","","","","","","","","","","","","","","","","",""
"","","","","","survey-text","48","830126","0.0-6.0-1.18","AMNUNZ65OSTFO","2022-05-23T19:25:33.903Z","phon_sim-rhyme-same_different-task_switching","","10357","phon_sim","","{""position_1"":""board"",""position_2"":""sleigh"",""position_3"":""friend"",""position_4"":""row"",""position_5"":""plea""}","experiment","","","","","","","board","sleigh","friend","row","plea","","","","","","","","","","","","","","","","","","","","","","",""
"","","","","","html-keyboard-response","49","843129","0.0-6.0-0.19","AMNUNZ65OSTFO","2022-05-23T19:25:33.903Z","phon_sim-rhyme-same_different-task_switching","","null","phon_sim","<div style=""display:grid""><h1 id=""word_1"" style=""grid-column:1; grid-row:1"">plea</h1><h1 id=""word_2"" style=""visibility:hidden;grid-column:1; grid-row:1"">sleigh</h1><h1 id=""word_3"" style=""visibility:hidden;grid-column:1; grid-row:1"">row</h1><h1 id=""word_4"" style=""visibility:hidden;grid-column:1; grid-row:1"">board</h1><h1 id=""word_5"" style=""visibility:hidden;grid-column:1; grid-row:1"">friend</h1></div>","null","experiment","plea","sleigh","row","board","friend","controlSet","","","","","","","","","","","","","","","","","","","","","","","","","","","",""
"","","","","","survey-text","50","853954","0.0-6.0-1.19","AMNUNZ65OSTFO","2022-05-23T19:25:33.903Z","phon_sim-rhyme-same_different-task_switching","","10820.5","phon_sim","","{""position_1"":""row"",""position_2"":""sleigh"",""position_3"":""plea"",""position_4"":""friend"",""position_5"":""board""}","experiment","","","","","","","row","sleigh","plea","friend","board","","","","","","","","","","","","","","","","","","","","","","",""
"","","","","","html-keyboard-response","51","866957","0.0-6.0-0.20","AMNUNZ65OSTFO","2022-05-23T19:25:33.903Z","phon_sim-rhyme-same_different-task_switching","","null","phon_sim","<div style=""display:grid""><h1 id=""word_1"" style=""grid-column:1; grid-row:1"">dough</h1><h1 id=""word_2"" style=""visibility:hidden;grid-column:1; grid-row:1"">bough</h1><h1 id=""word_3"" style=""visibility:hidden;grid-column:1; grid-row:1"">through</h1><h1 id=""word_4"" style=""visibility:hidden;grid-column:1; grid-row:1"">rough</h1><h1 id=""word_5"" style=""visibility:hidden;grid-column:1; grid-row:1"">cough</h1></div>","null","experiment","dough","bough","through","rough","cough","orthoSet","","","","","","","","","","","","","","","","","","","","","","","","","","","",""
"","","","","","survey-text","52","883504","0.0-6.0-1.20","AMNUNZ65OSTFO","2022-05-23T19:25:33.903Z","phon_sim-rhyme-same_different-task_switching","","16542.600000023842","phon_sim","","{""position_1"":""board"",""position_2"":""through"",""position_3"":""dough"",""position_4"":""cough"",""position_5"":""sought""}","experiment","","","","","","","board","through","dough","cough","sought","","","","","","","","","","","","","","","","","","","","","","",""
"","","","","","html-keyboard-response","53","896507","0.0-6.0-0.21","AMNUNZ65OSTFO","2022-05-23T19:25:33.903Z","phon_sim-rhyme-same_different-task_switching","","null","phon_sim","<div style=""display:grid""><h1 id=""word_1"" style=""grid-column:1; grid-row:1"">cough</h1><h1 id=""word_2"" style=""visibility:hidden;grid-column:1; grid-row:1"">through</h1><h1 id=""word_3"" style=""visibility:hidden;grid-column:1; grid-row:1"">rough</h1><h1 id=""word_4"" style=""visibility:hidden;grid-column:1; grid-row:1"">dough</h1><h1 id=""word_5"" style=""visibility:hidden;grid-column:1; grid-row:1"">bough</h1></div>","null","experiment","cough","through","rough","dough","bough","orthoSet","","","","","","","","","","","","","","","","","","","","","","","","","","","",""
"","","","","","survey-text","54","922549","0.0-6.0-1.21","AMNUNZ65OSTFO","2022-05-23T19:25:33.903Z","phon_sim-rhyme-same_different-task_switching","","26038.400000035763","phon_sim","","{""position_1"":""cough"",""position_2"":""caught"",""position_3"":""through"",""position_4"":""dough"",""position_5"":""bough""}","experiment","","","","","","","cough","caught","through","dough","bough","","","","","","","","","","","","","","","","","","","","","","",""
"","","","","","html-keyboard-response","55","935553","0.0-6.0-0.22","AMNUNZ65OSTFO","2022-05-23T19:25:33.903Z","phon_sim-rhyme-same_different-task_switching","","null","phon_sim","<div style=""display:grid""><h1 id=""word_1"" style=""grid-column:1; grid-row:1"">plea</h1><h1 id=""word_2"" style=""visibility:hidden;grid-column:1; grid-row:1"">row</h1><h1 id=""word_3"" style=""visibility:hidden;grid-column:1; grid-row:1"">board</h1><h1 id=""word_4"" style=""visibility:hidden;grid-column:1; grid-row:1"">sleigh</h1><h1 id=""word_5"" style=""visibility:hidden;grid-column:1; grid-row:1"">friend</h1></div>","null","experiment","plea","row","board","sleigh","friend","controlSet","","","","","","","","","","","","","","","","","","","","","","","","","","","",""
"","","","","","survey-text","56","952813","0.0-6.0-1.22","AMNUNZ65OSTFO","2022-05-23T19:25:33.903Z","phon_sim-rhyme-same_different-task_switching","","17254.5","phon_sim","","{""position_1"":""plea"",""position_2"":""row"",""position_3"":""board"",""position_4"":""sleigh"",""position_5"":""friend""}","experiment","","","","","","","plea","row","board","sleigh","friend","","","","","","","","","","","","","","","","","","","","","","",""
"","","","","","html-keyboard-response","57","965816","0.0-6.0-0.23","AMNUNZ65OSTFO","2022-05-23T19:25:33.903Z","phon_sim-rhyme-same_different-task_switching","","null","phon_sim","<div style=""display:grid""><h1 id=""word_1"" style=""grid-column:1; grid-row:1"">wart</h1><h1 id=""word_2"" style=""visibility:hidden;grid-column:1; grid-row:1"">sort</h1><h1 id=""word_3"" style=""visibility:hidden;grid-column:1; grid-row:1"">caught</h1><h1 id=""word_4"" style=""visibility:hidden;grid-column:1; grid-row:1"">taut</h1><h1 id=""word_5"" style=""visibility:hidden;grid-column:1; grid-row:1"">bought</h1></div>","null","experiment","wart","sort","caught","taut","bought","phonSet","","","","","","","","","","","","","","","","","","","","","","","","","","","",""
"","","","","","survey-text","58","987572","0.0-6.0-1.23","AMNUNZ65OSTFO","2022-05-23T19:25:33.903Z","phon_sim-rhyme-same_different-task_switching","","21751","phon_sim","","{""position_1"":""plea"",""position_2"":""friend"",""position_3"":""row"",""position_4"":""sought"",""position_5"":""bought""}","experiment","","","","","","","plea","friend","row","sought","bought","","","","","","","","","","","","","","","","","","","","","","",""
"","","","","","survey-multi-choice","59","990096","0.0-7.0","AMNUNZ65OSTFO","2022-05-23T19:25:33.903Z","phon_sim-rhyme-same_different-task_switching","","2521.699999988079","phon_sim","","{""Q0"":""No""}","","","","","","","","","","","","","[0]","No","","","","","","","","","","","","","","","","","","","","",""
"","","","","","survey-text","60","1019116","0.0-8.0","AMNUNZ65OSTFO","2022-05-23T19:25:33.903Z","phon_sim-rhyme-same_different-task_switching","","29013.700000047684","phon_sim","","{""Q0"":""I am struggling to remember these words in the exact order. I am unaware of any strategies that I used.""}","","","","","","","","","","","","","","","I am struggling to remember these words in the exact order. I am unaware of any strategies that I used.","","","","","","","","","","","","","","","","","","","",""
"","","","","","instructions","61","1020187","0.0-9.0","AMNUNZ65OSTFO","2022-05-23T19:25:33.903Z","phon_sim-rhyme-same_different-task_switching","[{""page_index"":0,""viewing_time"":1069.7999999523163}]","1070.2999999523163","phon_sim","","","","","","","","","","","","","","","","","","","","","","","","","","","","","","","","","","","","",""
"","","","","","instructions","62","1039704","0.0-10.0","AMNUNZ65OSTFO","2022-05-23T19:25:33.903Z","phon_sim-rhyme-same_different-task_switching","[{""page_index"":0,""viewing_time"":19515}]","19516.100000023842","rhyme","","","","","","","","","","","","","","","","","","","","","","","","","","","","","","","","","","","","",""
"","","","","","html-keyboard-response","63","1040206","0.0-11.0-0.0","AMNUNZ65OSTFO","2022-05-23T19:25:33.903Z","phon_sim-rhyme-same_different-task_switching","","null","rhyme","<div style=""font-size:60px;"">+</div>","null","","","","","","","","","","","","","","","","500","","","","","","","","","","","","","","","","","","",""
"","","","","","html-keyboard-response","64","1040709","0.0-11.0-1.0","AMNUNZ65OSTFO","2022-05-23T19:25:33.903Z","phon_sim-rhyme-same_different-task_switching","","null","rhyme","<img src=""square.png"" width=""306"" height=""306"" style=""position: fixed;left:14%;top:30%""><img src=""square.png"" width=""306"" height=""306"" style=""position: fixed;left:64%;top:30%"">","null","","","","","","","","","","","","","","","","","","","","","","","","","","","","","","","","","","",""
"","","","","","categorize-html","65","1043507","0.0-11.0-2.0","AMNUNZ65OSTFO","2022-05-23T19:25:33.903Z","phon_sim-rhyme-same_different-task_switching","","1793","rhyme","<div style=""border: 3px solid #000000; position: fixed;left:14%;top:30%""><img src=""visual/chess.png"" width=""300""></div><div style=""border: 3px solid #000000; position: fixed;left:64%;top:30%""><img src=""visual/suit.png"" width=""300""></div>","arrowdown","training","","","","","","","","","","","","","","","","true","visual/chess.png","visual/suit.png","ArrowDown","NA","","","","","","","","","","","","","",""
"","","","","","html-keyboard-response","66","1044509","0.0-11.0-0.1","AMNUNZ65OSTFO","2022-05-23T19:25:33.903Z","phon_sim-rhyme-same_different-task_switching","","null","rhyme","<div style=""font-size:60px;"">+</div>","null","","","","","","","","","","","","","","","","1000","","","","","","","","","","","","","","","","","","",""
"","","","","","html-keyboard-response","67","1045012","0.0-11.0-1.1","AMNUNZ65OSTFO","2022-05-23T19:25:33.903Z","phon_sim-rhyme-same_different-task_switching","","null","rhyme","<img src=""square.png"" width=""306"" height=""306"" style=""position: fixed;left:14%;top:30%""><img src=""square.png"" width=""306"" height=""306"" style=""position: fixed;left:64%;top:30%"">","null","","","","","","","","","","","","","","","","","","","","","","","","","","","","","","","","","","",""
"","","","","","categorize-html","68","1047037","0.0-11.0-2.1","AMNUNZ65OSTFO","2022-05-23T19:25:33.903Z","phon_sim-rhyme-same_different-task_switching","","1020.7000000476837","rhyme","<div style=""border: 3px solid #000000; position: fixed;left:14%;top:30%""><img src=""visual/house.png"" width=""300""></div><div style=""border: 3px solid #000000; position: fixed;left:64%;top:30%""><img src=""visual/mouse.png"" width=""300""></div>","arrowup","training","","","","","","","","","","","","","","","","true","visual/house.png","visual/mouse.png","ArrowUp","NA","","","","","","","","","","","","","",""
"","","","","","html-keyboard-response","69","1047539","0.0-11.0-0.2","AMNUNZ65OSTFO","2022-05-23T19:25:33.903Z","phon_sim-rhyme-same_different-task_switching","","null","rhyme","<div style=""font-size:60px;"">+</div>","null","","","","","","","","","","","","","","","","500","","","","","","","","","","","","","","","","","","",""
"","","","","","html-keyboard-response","70","1048043","0.0-11.0-1.2","AMNUNZ65OSTFO","2022-05-23T19:25:33.903Z","phon_sim-rhyme-same_different-task_switching","","null","rhyme","<img src=""square.png"" width=""306"" height=""306"" style=""position: fixed;left:14%;top:30%""><img src=""square.png"" width=""306"" height=""306"" style=""position: fixed;left:64%;top:30%"">","null","","","","","","","","","","","","","","","","","","","","","","","","","","","","","","","","","","",""
"","","","","","categorize-html","71","1050240","0.0-11.0-2.2","AMNUNZ65OSTFO","2022-05-23T19:25:33.903Z","phon_sim-rhyme-same_different-task_switching","","1193.7000000476837","rhyme","<div style=""border: 3px solid #000000; position: fixed;left:14%;top:30%""><img src=""visual/mouse.png"" width=""300""></div><div style=""border: 3px solid #000000; position: fixed;left:64%;top:30%""><img src=""visual/dress.png"" width=""300""></div>","arrowdown","training","","","","","","","","","","","","","","","","true","visual/mouse.png","visual/dress.png","ArrowDown","NA","","","","","","","","","","","","","",""
"","","","","","html-keyboard-response","72","1050742","0.0-11.0-0.3","AMNUNZ65OSTFO","2022-05-23T19:25:33.903Z","phon_sim-rhyme-same_different-task_switching","","null","rhyme","<div style=""font-size:60px;"">+</div>","null","","","","","","","","","","","","","","","","500","","","","","","","","","","","","","","","","","","",""
"","","","","","html-keyboard-response","73","1051245","0.0-11.0-1.3","AMNUNZ65OSTFO","2022-05-23T19:25:33.903Z","phon_sim-rhyme-same_different-task_switching","","null","rhyme","<img src=""square.png"" width=""306"" height=""306"" style=""position: fixed;left:14%;top:30%""><img src=""square.png"" width=""306"" height=""306"" style=""position: fixed;left:64%;top:30%"">","null","","","","","","","","","","","","","","","","","","","","","","","","","","","","","","","","","","",""
"","","","","","categorize-html","74","1053765","0.0-11.0-2.3","AMNUNZ65OSTFO","2022-05-23T19:25:33.903Z","phon_sim-rhyme-same_different-task_switching","","1516.5","rhyme","<div style=""border: 3px solid #000000; position: fixed;left:14%;top:30%""><img src=""visual/dress.png"" width=""300""></div><div style=""border: 3px solid #000000; position: fixed;left:64%;top:30%""><img src=""visual/chess.png"" width=""300""></div>","arrowup","training","","","","","","","","","","","","","","","","true","visual/dress.png","visual/chess.png","ArrowUp","NA","","","","","","","","","","","","","",""
"","","","","","instructions","75","1054890","0.0-12.0","AMNUNZ65OSTFO","2022-05-23T19:25:33.903Z","phon_sim-rhyme-same_different-task_switching","[{""page_index"":0,""viewing_time"":1124}]","1124.5","","","","","","","","","","","","","","","","","","","","","","","","","","","","","","","","","","","","","",""
"","","","","","html-keyboard-response","76","1055892","0.0-13.0-0.0","AMNUNZ65OSTFO","2022-05-23T19:25:33.903Z","phon_sim-rhyme-same_different-task_switching","","null","rhyme","<div style=""font-size:60px;"">+</div>","null","","","","","","","","","","","","","","","","1000","","","","","","","","","","","","","","","","","","",""
"","","","","","html-keyboard-response","77","1056395","0.0-13.0-1.0","AMNUNZ65OSTFO","2022-05-23T19:25:33.903Z","phon_sim-rhyme-same_different-task_switching","","null","rhyme","<img src=""square.png"" width=""306"" height=""306"" style=""position: fixed;left:14%;top:30%""><img src=""square.png"" width=""306"" height=""306"" style=""position: fixed;left:64%;top:30%"">","null","","","","","","","","","","","","","","","","","","","","","","","","","","","","","","","","","","",""
"","","","","","html-keyboard-response","78","1057873","0.0-13.0-2.0","AMNUNZ65OSTFO","2022-05-23T19:25:33.903Z","phon_sim-rhyme-same_different-task_switching","","1474.699999988079","rhyme","<div style=""border: 3px solid #000000; position: fixed;left:14%;top:30%""><img src=""visual/drum.png"" width=""300""></div><div style=""border: 3px solid #000000; position: fixed;left:64%;top:30%""><img src=""visual/thumb.png"" width=""300""></div>","arrowup","experiment","","","","","","","","","","","","","","","","true","visual/drum.png","visual/thumb.png","ArrowUp","non-ortho","","","","","","","","","","","","","",""
"","","","","","html-keyboard-response","79","1058875","0.0-13.0-0.1","AMNUNZ65OSTFO","2022-05-23T19:25:33.903Z","phon_sim-rhyme-same_different-task_switching","","null","rhyme","<div style=""font-size:60px;"">+</div>","null","","","","","","","","","","","","","","","","1000","","","","","","","","","","","","","","","","","","",""
"","","","","","html-keyboard-response","80","1059377","0.0-13.0-1.1","AMNUNZ65OSTFO","2022-05-23T19:25:33.903Z","phon_sim-rhyme-same_different-task_switching","","null","rhyme","<img src=""square.png"" width=""306"" height=""306"" style=""position: fixed;left:14%;top:30%""><img src=""square.png"" width=""306"" height=""306"" style=""position: fixed;left:64%;top:30%"">","null","","","","","","","","","","","","","","","","","","","","","","","","","","","","","","","","","","",""
"","","","","","html-keyboard-response","81","1060465","0.0-13.0-2.1","AMNUNZ65OSTFO","2022-05-23T19:25:33.903Z","phon_sim-rhyme-same_different-task_switching","","1086","rhyme","<div style=""border: 3px solid #000000; position: fixed;left:14%;top:30%""><img src=""visual/king.png"" width=""300""></div><div style=""border: 3px solid #000000; position: fixed;left:64%;top:30%""><img src=""visual/ring.png"" width=""300""></div>","arrowup","experiment","","","","","","","","","","","","","","","","true","visual/king.png","visual/ring.png","ArrowUp","ortho","","","","","","","","","","","","","",""
"","","","","","html-keyboard-response","82","1061216","0.0-13.0-0.2","AMNUNZ65OSTFO","2022-05-23T19:25:33.903Z","phon_sim-rhyme-same_different-task_switching","","null","rhyme","<div style=""font-size:60px;"">+</div>","null","","","","","","","","","","","","","","","","750","","","","","","","","","","","","","","","","","","",""
"","","","","","html-keyboard-response","83","1061719","0.0-13.0-1.2","AMNUNZ65OSTFO","2022-05-23T19:25:33.903Z","phon_sim-rhyme-same_different-task_switching","","null","rhyme","<img src=""square.png"" width=""306"" height=""306"" style=""position: fixed;left:14%;top:30%""><img src=""square.png"" width=""306"" height=""306"" style=""position: fixed;left:64%;top:30%"">","null","","","","","","","","","","","","","","","","","","","","","","","","","","","","","","","","","","",""
"","","","","","html-keyboard-response","84","1063055","0.0-13.0-2.2","AMNUNZ65OSTFO","2022-05-23T19:25:33.903Z","phon_sim-rhyme-same_different-task_switching","","1334.5","rhyme","<div style=""border: 3px solid #000000; position: fixed;left:14%;top:30%""><img src=""visual/nail.png"" width=""300""></div><div style=""border: 3px solid #000000; position: fixed;left:64%;top:30%""><img src=""visual/whale.png"" width=""300""></div>","arrowup","experiment","","","","","","","","","","","","","","","","true","visual/nail.png","visual/whale.png","ArrowUp","non-ortho","","","","","","","","","","","","","",""
"","","","","","html-keyboard-response","85","1063807","0.0-13.0-0.3","AMNUNZ65OSTFO","2022-05-23T19:25:33.903Z","phon_sim-rhyme-same_different-task_switching","","null","rhyme","<div style=""font-size:60px;"">+</div>","null","","","","","","","","","","","","","","","","750","","","","","","","","","","","","","","","","","","",""
"","","","","","html-keyboard-response","86","1064309","0.0-13.0-1.3","AMNUNZ65OSTFO","2022-05-23T19:25:33.903Z","phon_sim-rhyme-same_different-task_switching","","null","rhyme","<img src=""square.png"" width=""306"" height=""306"" style=""position: fixed;left:14%;top:30%""><img src=""square.png"" width=""306"" height=""306"" style=""position: fixed;left:64%;top:30%"">","null","","","","","","","","","","","","","","","","","","","","","","","","","","","","","","","","","","",""
"","","","","","html-keyboard-response","87","1066061","0.0-13.0-2.3","AMNUNZ65OSTFO","2022-05-23T19:25:33.903Z","phon_sim-rhyme-same_different-task_switching","","1750","rhyme","<div style=""border: 3px solid #000000; position: fixed;left:14%;top:30%""><img src=""visual/dart.png"" width=""300""></div><div style=""border: 3px solid #000000; position: fixed;left:64%;top:30%""><img src=""visual/tie.png"" width=""300""></div>","arrowdown","experiment","","","","","","","","","","","","","","","","true","visual/dart.png","visual/tie.png","ArrowDown","NR","","","","","","","","","","","","","",""
"","","","","","html-keyboard-response","88","1066814","0.0-13.0-0.4","AMNUNZ65OSTFO","2022-05-23T19:25:33.903Z","phon_sim-rhyme-same_different-task_switching","","null","rhyme","<div style=""font-size:60px;"">+</div>","null","","","","","","","","","","","","","","","","750","","","","","","","","","","","","","","","","","","",""
"","","","","","html-keyboard-response","89","1067316","0.0-13.0-1.4","AMNUNZ65OSTFO","2022-05-23T19:25:33.903Z","phon_sim-rhyme-same_different-task_switching","","null","rhyme","<img src=""square.png"" width=""306"" height=""306"" style=""position: fixed;left:14%;top:30%""><img src=""square.png"" width=""306"" height=""306"" style=""position: fixed;left:64%;top:30%"">","null","","","","","","","","","","","","","","","","","","","","","","","","","","","","","","","","","","",""
"","","","","","html-keyboard-response","90","1068909","0.0-13.0-2.4","AMNUNZ65OSTFO","2022-05-23T19:25:33.903Z","phon_sim-rhyme-same_different-task_switching","","1592.2000000476837","rhyme","<div style=""border: 3px solid #000000; position: fixed;left:14%;top:30%""><img src=""visual/egg.png"" width=""300""></div><div style=""border: 3px solid #000000; position: fixed;left:64%;top:30%""><img src=""visual/ring.png"" width=""300""></div>","arrowdown","experiment","","","","","","","","","","","","","","","","true","visual/egg.png","visual/ring.png","ArrowDown","NR","","","","","","","","","","","","","",""
"","","","","","html-keyboard-response","91","1069161","0.0-13.0-0.5","AMNUNZ65OSTFO","2022-05-23T19:25:33.903Z","phon_sim-rhyme-same_different-task_switching","","null","rhyme","<div style=""font-size:60px;"">+</div>","null","","","","","","","","","","","","","","","","250","","","","","","","","","","","","","","","","","","",""
"","","","","","html-keyboard-response","92","1069663","0.0-13.0-1.5","AMNUNZ65OSTFO","2022-05-23T19:25:33.903Z","phon_sim-rhyme-same_different-task_switching","","null","rhyme","<img src=""square.png"" width=""306"" height=""306"" style=""position: fixed;left:14%;top:30%""><img src=""square.png"" width=""306"" height=""306"" style=""position: fixed;left:64%;top:30%"">","null","","","","","","","","","","","","","","","","","","","","","","","","","","","","","","","","","","",""
"","","","","","html-keyboard-response","93","1071340","0.0-13.0-2.5","AMNUNZ65OSTFO","2022-05-23T19:25:33.903Z","phon_sim-rhyme-same_different-task_switching","","1674.8999999761581","rhyme","<div style=""border: 3px solid #000000; position: fixed;left:14%;top:30%""><img src=""visual/train.png"" width=""300""></div><div style=""border: 3px solid #000000; position: fixed;left:64%;top:30%""><img src=""visual/screw.png"" width=""300""></div>","arrowdown","experiment","","","","","","","","","","","","","","","","true","visual/train.png","visual/screw.png","ArrowDown","NR","","","","","","","","","","","","","",""
"","","","","","html-keyboard-response","94","1072092","0.0-13.0-0.6","AMNUNZ65OSTFO","2022-05-23T19:25:33.903Z","phon_sim-rhyme-same_different-task_switching","","null","rhyme","<div style=""font-size:60px;"">+</div>","null","","","","","","","","","","","","","","","","750","","","","","","","","","","","","","","","","","","",""
"","","","","","html-keyboard-response","95","1072594","0.0-13.0-1.6","AMNUNZ65OSTFO","2022-05-23T19:25:33.903Z","phon_sim-rhyme-same_different-task_switching","","null","rhyme","<img src=""square.png"" width=""306"" height=""306"" style=""position: fixed;left:14%;top:30%""><img src=""square.png"" width=""306"" height=""306"" style=""position: fixed;left:64%;top:30%"">","null","","","","","","","","","","","","","","","","","","","","","","","","","","","","","","","","","","",""
"","","","","","html-keyboard-response","96","1073795","0.0-13.0-2.6","AMNUNZ65OSTFO","2022-05-23T19:25:33.903Z","phon_sim-rhyme-same_different-task_switching","","1198.199999988079","rhyme","<div style=""border: 3px solid #000000; position: fixed;left:14%;top:30%""><img src=""visual/tie.png"" width=""300""></div><div style=""border: 3px solid #000000; position: fixed;left:64%;top:30%""><img src=""visual/fly.png"" width=""300""></div>","arrowup","experiment","","","","","","","","","","","","","","","","true","visual/tie.png","visual/fly.png","ArrowUp","non-ortho","","","","","","","","","","","","","",""
"","","","","","html-keyboard-response","97","1074547","0.0-13.0-0.7","AMNUNZ65OSTFO","2022-05-23T19:25:33.903Z","phon_sim-rhyme-same_different-task_switching","","null","rhyme","<div style=""font-size:60px;"">+</div>","null","","","","","","","","","","","","","","","","750","","","","","","","","","","","","","","","","","","",""
"","","","","","html-keyboard-response","98","1075049","0.0-13.0-1.7","AMNUNZ65OSTFO","2022-05-23T19:25:33.903Z","phon_sim-rhyme-same_different-task_switching","","null","rhyme","<img src=""square.png"" width=""306"" height=""306"" style=""position: fixed;left:14%;top:30%""><img src=""square.png"" width=""306"" height=""306"" style=""position: fixed;left:64%;top:30%"">","null","","","","","","","","","","","","","","","","","","","","","","","","","","","","","","","","","","",""
"","","","","","html-keyboard-response","99","1076511","0.0-13.0-2.7","AMNUNZ65OSTFO","2022-05-23T19:25:33.903Z","phon_sim-rhyme-same_different-task_switching","","1458.5","rhyme","<div style=""border: 3px solid #000000; position: fixed;left:14%;top:30%""><img src=""visual/star.png"" width=""300""></div><div style=""border: 3px solid #000000; position: fixed;left:64%;top:30%""><img src=""visual/jar.png"" width=""300""></div>","arrowup","experiment","","","","","","","","","","","","","","","","true","visual/star.png","visual/jar.png","ArrowUp","ortho","","","","","","","","","","","","","",""
"","","","","","html-keyboard-response","100","1077262","0.0-13.0-0.8","AMNUNZ65OSTFO","2022-05-23T19:25:33.903Z","phon_sim-rhyme-same_different-task_switching","","null","rhyme","<div style=""font-size:60px;"">+</div>","null","","","","","","","","","","","","","","","","750","","","","","","","","","","","","","","","","","","",""
"","","","","","html-keyboard-response","101","1077766","0.0-13.0-1.8","AMNUNZ65OSTFO","2022-05-23T19:25:33.903Z","phon_sim-rhyme-same_different-task_switching","","null","rhyme","<img src=""square.png"" width=""306"" height=""306"" style=""position: fixed;left:14%;top:30%""><img src=""square.png"" width=""306"" height=""306"" style=""position: fixed;left:64%;top:30%"">","null","","","","","","","","","","","","","","","","","","","","","","","","","","","","","","","","","","",""
"","","","","","html-keyboard-response","102","1079260","0.0-13.0-2.8","AMNUNZ65OSTFO","2022-05-23T19:25:33.903Z","phon_sim-rhyme-same_different-task_switching","","1492.300000011921","rhyme","<div style=""border: 3px solid #000000; position: fixed;left:14%;top:30%""><img src=""visual/flag.png"" width=""300""></div><div style=""border: 3px solid #000000; position: fixed;left:64%;top:30%""><img src=""visual/bag.png"" width=""300""></div>","arrowup","experiment","","","","","","","","","","","","","","","","true","visual/flag.png","visual/bag.png","ArrowUp","ortho","","","","","","","","","","","","","",""
"","","","","","html-keyboard-response","103","1080261","0.0-13.0-0.9","AMNUNZ65OSTFO","2022-05-23T19:25:33.903Z","phon_sim-rhyme-same_different-task_switching","","null","rhyme","<div style=""font-size:60px;"">+</div>","null","","","","","","","","","","","","","","","","1000","","","","","","","","","","","","","","","","","","",""
"","","","","","html-keyboard-response","104","1080763","0.0-13.0-1.9","AMNUNZ65OSTFO","2022-05-23T19:25:33.903Z","phon_sim-rhyme-same_different-task_switching","","null","rhyme","<img src=""square.png"" width=""306"" height=""306"" style=""position: fixed;left:14%;top:30%""><img src=""square.png"" width=""306"" height=""306"" style=""position: fixed;left:64%;top:30%"">","null","","","","","","","","","","","","","","","","","","","","","","","","","","","","","","","","","","",""
"","","","","","html-keyboard-response","105","1082089","0.0-13.0-2.9","AMNUNZ65OSTFO","2022-05-23T19:25:33.903Z","phon_sim-rhyme-same_different-task_switching","","1324","rhyme","<div style=""border: 3px solid #000000; position: fixed;left:14%;top:30%""><img src=""visual/bear.png"" width=""300""></div><div style=""border: 3px solid #000000; position: fixed;left:64%;top:30%""><img src=""visual/hair.png"" width=""300""></div>","arrowup","experiment","","","","","","","","","","","","","","","","true","visual/bear.png","visual/hair.png","ArrowUp","non-ortho","","","","","","","","","","","","","",""
"","","","","","html-keyboard-response","106","1082340","0.0-13.0-0.10","AMNUNZ65OSTFO","2022-05-23T19:25:33.903Z","phon_sim-rhyme-same_different-task_switching","","null","rhyme","<div style=""font-size:60px;"">+</div>","null","","","","","","","","","","","","","","","","250","","","","","","","","","","","","","","","","","","",""
"","","","","","html-keyboard-response","107","1082842","0.0-13.0-1.10","AMNUNZ65OSTFO","2022-05-23T19:25:33.903Z","phon_sim-rhyme-same_different-task_switching","","null","rhyme","<img src=""square.png"" width=""306"" height=""306"" style=""position: fixed;left:14%;top:30%""><img src=""square.png"" width=""306"" height=""306"" style=""position: fixed;left:64%;top:30%"">","null","","","","","","","","","","","","","","","","","","","","","","","","","","","","","","","","","","",""
"","","","","","html-keyboard-response","108","1084135","0.0-13.0-2.10","AMNUNZ65OSTFO","2022-05-23T19:25:33.903Z","phon_sim-rhyme-same_different-task_switching","","1289.5999999642372","rhyme","<div style=""border: 3px solid #000000; position: fixed;left:14%;top:30%""><img src=""visual/box.png"" width=""300""></div><div style=""border: 3px solid #000000; position: fixed;left:64%;top:30%""><img src=""visual/fox.png"" width=""300""></div>","arrowup","experiment","","","","","","","","","","","","","","","","true","visual/box.png","visual/fox.png","ArrowUp","ortho","","","","","","","","","","","","","",""
"","","","","","html-keyboard-response","109","1084886","0.0-13.0-0.11","AMNUNZ65OSTFO","2022-05-23T19:25:33.903Z","phon_sim-rhyme-same_different-task_switching","","null","rhyme","<div style=""font-size:60px;"">+</div>","null","","","","","","","","","","","","","","","","750","","","","","","","","","","","","","","","","","","",""
"","","","","","html-keyboard-response","110","1085389","0.0-13.0-1.11","AMNUNZ65OSTFO","2022-05-23T19:25:33.903Z","phon_sim-rhyme-same_different-task_switching","","null","rhyme","<img src=""square.png"" width=""306"" height=""306"" style=""position: fixed;left:14%;top:30%""><img src=""square.png"" width=""306"" height=""306"" style=""position: fixed;left:64%;top:30%"">","null","","","","","","","","","","","","","","","","","","","","","","","","","","","","","","","","","","",""
"","","","","","html-keyboard-response","111","1086893","0.0-13.0-2.11","AMNUNZ65OSTFO","2022-05-23T19:25:33.903Z","phon_sim-rhyme-same_different-task_switching","","1502.6000000238419","rhyme","<div style=""border: 3px solid #000000; position: fixed;left:14%;top:30%""><img src=""visual/claw.png"" width=""300""></div><div style=""border: 3px solid #000000; position: fixed;left:64%;top:30%""><img src=""visual/beer.png"" width=""300""></div>","arrowdown","experiment","","","","","","","","","","","","","","","","true","visual/claw.png","visual/beer.png","ArrowDown","NR","","","","","","","","","","","","","",""
"","","","","","html-keyboard-response","112","1087395","0.0-13.0-0.12","AMNUNZ65OSTFO","2022-05-23T19:25:33.903Z","phon_sim-rhyme-same_different-task_switching","","null","rhyme","<div style=""font-size:60px;"">+</div>","null","","","","","","","","","","","","","","","","500","","","","","","","","","","","","","","","","","","",""
"","","","","","html-keyboard-response","113","1087909","0.0-13.0-1.12","AMNUNZ65OSTFO","2022-05-23T19:25:33.903Z","phon_sim-rhyme-same_different-task_switching","","null","rhyme","<img src=""square.png"" width=""306"" height=""306"" style=""position: fixed;left:14%;top:30%""><img src=""square.png"" width=""306"" height=""306"" style=""position: fixed;left:64%;top:30%"">","null","","","","","","","","","","","","","","","","","","","","","","","","","","","","","","","","","","",""
"","","","","","html-keyboard-response","114","1090131","0.0-13.0-2.12","AMNUNZ65OSTFO","2022-05-23T19:25:33.903Z","phon_sim-rhyme-same_different-task_switching","","2219.300000011921","rhyme","<div style=""border: 3px solid #000000; position: fixed;left:14%;top:30%""><img src=""visual/pope.png"" width=""300""></div><div style=""border: 3px solid #000000; position: fixed;left:64%;top:30%""><img src=""visual/soap.png"" width=""300""></div>","arrowup","experiment","","","","","","","","","","","","","","","","true","visual/pope.png","visual/soap.png","ArrowUp","non-ortho","","","","","","","","","","","","","",""
"","","","","","html-keyboard-response","115","1090883","0.0-13.0-0.13","AMNUNZ65OSTFO","2022-05-23T19:25:33.903Z","phon_sim-rhyme-same_different-task_switching","","null","rhyme","<div style=""font-size:60px;"">+</div>","null","","","","","","","","","","","","","","","","750","","","","","","","","","","","","","","","","","","",""
"","","","","","html-keyboard-response","116","1091385","0.0-13.0-1.13","AMNUNZ65OSTFO","2022-05-23T19:25:33.903Z","phon_sim-rhyme-same_different-task_switching","","null","rhyme","<img src=""square.png"" width=""306"" height=""306"" style=""position: fixed;left:14%;top:30%""><img src=""square.png"" width=""306"" height=""306"" style=""position: fixed;left:64%;top:30%"">","null","","","","","","","","","","","","","","","","","","","","","","","","","","","","","","","","","","",""
"","","","","","html-keyboard-response","117","1092771","0.0-13.0-2.13","AMNUNZ65OSTFO","2022-05-23T19:25:33.903Z","phon_sim-rhyme-same_different-task_switching","","1384","rhyme","<div style=""border: 3px solid #000000; position: fixed;left:14%;top:30%""><img src=""visual/saw.png"" width=""300""></div><div style=""border: 3px solid #000000; position: fixed;left:64%;top:30%""><img src=""visual/claw.png"" width=""300""></div>","arrowup","experiment","","","","","","","","","","","","","","","","true","visual/saw.png","visual/claw.png","ArrowUp","ortho","","","","","","","","","","","","","",""
"","","","","","html-keyboard-response","118","1093785","0.0-13.0-0.14","AMNUNZ65OSTFO","2022-05-23T19:25:33.903Z","phon_sim-rhyme-same_different-task_switching","","null","rhyme","<div style=""font-size:60px;"">+</div>","null","","","","","","","","","","","","","","","","1000","","","","","","","","","","","","","","","","","","",""
"","","","","","html-keyboard-response","119","1094287","0.0-13.0-1.14","AMNUNZ65OSTFO","2022-05-23T19:25:33.903Z","phon_sim-rhyme-same_different-task_switching","","null","rhyme","<img src=""square.png"" width=""306"" height=""306"" style=""position: fixed;left:14%;top:30%""><img src=""square.png"" width=""306"" height=""306"" style=""position: fixed;left:64%;top:30%"">","null","","","","","","","","","","","","","","","","","","","","","","","","","","","","","","","","","","",""
"","","","","","html-keyboard-response","120","1095932","0.0-13.0-2.14","AMNUNZ65OSTFO","2022-05-23T19:25:33.903Z","phon_sim-rhyme-same_different-task_switching","","1642.800000011921","rhyme","<div style=""border: 3px solid #000000; position: fixed;left:14%;top:30%""><img src=""visual/shark.png"" width=""300""></div><div style=""border: 3px solid #000000; position: fixed;left:64%;top:30%""><img src=""visual/park.png"" width=""300""></div>","arrowdown","experiment","","","","","","","","","","","","","","","","false","visual/shark.png","visual/park.png","ArrowUp","ortho","","","","","","","","","","","","","",""
"","","","","","html-keyboard-response","121","1096684","0.0-13.0-0.15","AMNUNZ65OSTFO","2022-05-23T19:25:33.903Z","phon_sim-rhyme-same_different-task_switching","","null","rhyme","<div style=""font-size:60px;"">+</div>","null","","","","","","","","","","","","","","","","750","","","","","","","","","","","","","","","","","","",""
"","","","","","html-keyboard-response","122","1097201","0.0-13.0-1.15","AMNUNZ65OSTFO","2022-05-23T19:25:33.903Z","phon_sim-rhyme-same_different-task_switching","","null","rhyme","<img src=""square.png"" width=""306"" height=""306"" style=""position: fixed;left:14%;top:30%""><img src=""square.png"" width=""306"" height=""306"" style=""position: fixed;left:64%;top:30%"">","null","","","","","","","","","","","","","","","","","","","","","","","","","","","","","","","","","","",""
"","","","","","html-keyboard-response","123","1098320","0.0-13.0-2.15","AMNUNZ65OSTFO","2022-05-23T19:25:33.903Z","phon_sim-rhyme-same_different-task_switching","","1117","rhyme","<div style=""border: 3px solid #000000; position: fixed;left:14%;top:30%""><img src=""visual/spoon.png"" width=""300""></div><div style=""border: 3px solid #000000; position: fixed;left:64%;top:30%""><img src=""visual/moon.png"" width=""300""></div>","arrowup","experiment","","","","","","","","","","","","","","","","true","visual/spoon.png","visual/moon.png","ArrowUp","ortho","","","","","","","","","","","","","",""
"","","","","","html-keyboard-response","124","1098571","0.0-13.0-0.16","AMNUNZ65OSTFO","2022-05-23T19:25:33.903Z","phon_sim-rhyme-same_different-task_switching","","null","rhyme","<div style=""font-size:60px;"">+</div>","null","","","","","","","","","","","","","","","","250","","","","","","","","","","","","","","","","","","",""
"","","","","","html-keyboard-response","125","1099074","0.0-13.0-1.16","AMNUNZ65OSTFO","2022-05-23T19:25:33.903Z","phon_sim-rhyme-same_different-task_switching","","null","rhyme","<img src=""square.png"" width=""306"" height=""306"" style=""position: fixed;left:14%;top:30%""><img src=""square.png"" width=""306"" height=""306"" style=""position: fixed;left:64%;top:30%"">","null","","","","","","","","","","","","","","","","","","","","","","","","","","","","","","","","","","",""
"","","","","","html-keyboard-response","126","1100315","0.0-13.0-2.16","AMNUNZ65OSTFO","2022-05-23T19:25:33.903Z","phon_sim-rhyme-same_different-task_switching","","1239.1000000238419","rhyme","<div style=""border: 3px solid #000000; position: fixed;left:14%;top:30%""><img src=""visual/spoon.png"" width=""300""></div><div style=""border: 3px solid #000000; position: fixed;left:64%;top:30%""><img src=""visual/crab.png"" width=""300""></div>","arrowdown","experiment","","","","","","","","","","","","","","","","true","visual/spoon.png","visual/crab.png","ArrowDown","NR","","","","","","","","","","","","","",""
"","","","","","html-keyboard-response","127","1100568","0.0-13.0-0.17","AMNUNZ65OSTFO","2022-05-23T19:25:33.903Z","phon_sim-rhyme-same_different-task_switching","","null","rhyme","<div style=""font-size:60px;"">+</div>","null","","","","","","","","","","","","","","","","250","","","","","","","","","","","","","","","","","","",""
"","","","","","html-keyboard-response","128","1101070","0.0-13.0-1.17","AMNUNZ65OSTFO","2022-05-23T19:25:33.903Z","phon_sim-rhyme-same_different-task_switching","","null","rhyme","<img src=""square.png"" width=""306"" height=""306"" style=""position: fixed;left:14%;top:30%""><img src=""square.png"" width=""306"" height=""306"" style=""position: fixed;left:64%;top:30%"">","null","","","","","","","","","","","","","","","","","","","","","","","","","","","","","","","","","","",""
"","","","","","html-keyboard-response","129","1102767","0.0-13.0-2.17","AMNUNZ65OSTFO","2022-05-23T19:25:33.903Z","phon_sim-rhyme-same_different-task_switching","","1694.8999999761581","rhyme","<div style=""border: 3px solid #000000; position: fixed;left:14%;top:30%""><img src=""visual/plane.png"" width=""300""></div><div style=""border: 3px solid #000000; position: fixed;left:64%;top:30%""><img src=""visual/train.png"" width=""300""></div>","arrowup","experiment","","","","","","","","","","","","","","","","true","visual/plane.png","visual/train.png","ArrowUp","non-ortho","","","","","","","","","","","","","",""
"","","","","","html-keyboard-response","130","1103520","0.0-13.0-0.18","AMNUNZ65OSTFO","2022-05-23T19:25:33.903Z","phon_sim-rhyme-same_different-task_switching","","null","rhyme","<div style=""font-size:60px;"">+</div>","null","","","","","","","","","","","","","","","","750","","","","","","","","","","","","","","","","","","",""
"","","","","","html-keyboard-response","131","1104022","0.0-13.0-1.18","AMNUNZ65OSTFO","2022-05-23T19:25:33.903Z","phon_sim-rhyme-same_different-task_switching","","null","rhyme","<img src=""square.png"" width=""306"" height=""306"" style=""position: fixed;left:14%;top:30%""><img src=""square.png"" width=""306"" height=""306"" style=""position: fixed;left:64%;top:30%"">","null","","","","","","","","","","","","","","","","","","","","","","","","","","","","","","","","","","",""
"","","","","","html-keyboard-response","132","1105249","0.0-13.0-2.18","AMNUNZ65OSTFO","2022-05-23T19:25:33.903Z","phon_sim-rhyme-same_different-task_switching","","1225.0999999642372","rhyme","<div style=""border: 3px solid #000000; position: fixed;left:14%;top:30%""><img src=""visual/cat.png"" width=""300""></div><div style=""border: 3px solid #000000; position: fixed;left:64%;top:30%""><img src=""visual/hat.png"" width=""300""></div>","arrowup","experiment","","","","","","","","","","","","","","","","true","visual/cat.png","visual/hat.png","ArrowUp","ortho","","","","","","","","","","","","","",""
"","","","","","html-keyboard-response","133","1105750","0.0-13.0-0.19","AMNUNZ65OSTFO","2022-05-23T19:25:33.903Z","phon_sim-rhyme-same_different-task_switching","","null","rhyme","<div style=""font-size:60px;"">+</div>","null","","","","","","","","","","","","","","","","500","","","","","","","","","","","","","","","","","","",""
"","","","","","html-keyboard-response","134","1106253","0.0-13.0-1.19","AMNUNZ65OSTFO","2022-05-23T19:25:33.903Z","phon_sim-rhyme-same_different-task_switching","","null","rhyme","<img src=""square.png"" width=""306"" height=""306"" style=""position: fixed;left:14%;top:30%""><img src=""square.png"" width=""306"" height=""306"" style=""position: fixed;left:64%;top:30%"">","null","","","","","","","","","","","","","","","","","","","","","","","","","","","","","","","","","","",""
"","","","","","html-keyboard-response","135","1108358","0.0-13.0-2.19","AMNUNZ65OSTFO","2022-05-23T19:25:33.903Z","phon_sim-rhyme-same_different-task_switching","","2103.2000000476837","rhyme","<div style=""border: 3px solid #000000; position: fixed;left:14%;top:30%""><img src=""visual/cake.png"" width=""300""></div><div style=""border: 3px solid #000000; position: fixed;left:64%;top:30%""><img src=""visual/rake.png"" width=""300""></div>","arrowdown","experiment","","","","","","","","","","","","","","","","false","visual/cake.png","visual/rake.png","ArrowUp","ortho","","","","","","","","","","","","","",""
"","","","","","html-keyboard-response","136","1109359","0.0-13.0-0.20","AMNUNZ65OSTFO","2022-05-23T19:25:33.903Z","phon_sim-rhyme-same_different-task_switching","","null","rhyme","<div style=""font-size:60px;"">+</div>","null","","","","","","","","","","","","","","","","1000","","","","","","","","","","","","","","","","","","",""
"","","","","","html-keyboard-response","137","1109862","0.0-13.0-1.20","AMNUNZ65OSTFO","2022-05-23T19:25:33.903Z","phon_sim-rhyme-same_different-task_switching","","null","rhyme","<img src=""square.png"" width=""306"" height=""306"" style=""position: fixed;left:14%;top:30%""><img src=""square.png"" width=""306"" height=""306"" style=""position: fixed;left:64%;top:30%"">","null","","","","","","","","","","","","","","","","","","","","","","","","","","","","","","","","","","",""
"","","","","","html-keyboard-response","138","1111497","0.0-13.0-2.20","AMNUNZ65OSTFO","2022-05-23T19:25:33.903Z","phon_sim-rhyme-same_different-task_switching","","1633.5","rhyme","<div style=""border: 3px solid #000000; position: fixed;left:14%;top:30%""><img src=""visual/egg.png"" width=""300""></div><div style=""border: 3px solid #000000; position: fixed;left:64%;top:30%""><img src=""visual/leg.png"" width=""300""></div>","arrowup","experiment","","","","","","","","","","","","","","","","true","visual/egg.png","visual/leg.png","ArrowUp","ortho","","","","","","","","","","","","","",""
"","","","","","html-keyboard-response","139","1111750","0.0-13.0-0.21","AMNUNZ65OSTFO","2022-05-23T19:25:33.903Z","phon_sim-rhyme-same_different-task_switching","","null","rhyme","<div style=""font-size:60px;"">+</div>","null","","","","","","","","","","","","","","","","250","","","","","","","","","","","","","","","","","","",""
"","","","","","html-keyboard-response","140","1112266","0.0-13.0-1.21","AMNUNZ65OSTFO","2022-05-23T19:25:33.903Z","phon_sim-rhyme-same_different-task_switching","","null","rhyme","<img src=""square.png"" width=""306"" height=""306"" style=""position: fixed;left:14%;top:30%""><img src=""square.png"" width=""306"" height=""306"" style=""position: fixed;left:64%;top:30%"">","null","","","","","","","","","","","","","","","","","","","","","","","","","","","","","","","","","","",""
"","","","","","html-keyboard-response","141","1114748","0.0-13.0-2.21","AMNUNZ65OSTFO","2022-05-23T19:25:33.903Z","phon_sim-rhyme-same_different-task_switching","","2479.800000011921","rhyme","<div style=""border: 3px solid #000000; position: fixed;left:14%;top:30%""><img src=""visual/wheel.png"" width=""300""></div><div style=""border: 3px solid #000000; position: fixed;left:64%;top:30%""><img src=""visual/seal.png"" width=""300""></div>","arrowup","experiment","","","","","","","","","","","","","","","","true","visual/wheel.png","visual/seal.png","ArrowUp","non-ortho","","","","","","","","","","","","","",""
"","","","","","html-keyboard-response","142","1115749","0.0-13.0-0.22","AMNUNZ65OSTFO","2022-05-23T19:25:33.903Z","phon_sim-rhyme-same_different-task_switching","","null","rhyme","<div style=""font-size:60px;"">+</div>","null","","","","","","","","","","","","","","","","1000","","","","","","","","","","","","","","","","","","",""
"","","","","","html-keyboard-response","143","1116252","0.0-13.0-1.22","AMNUNZ65OSTFO","2022-05-23T19:25:33.903Z","phon_sim-rhyme-same_different-task_switching","","null","rhyme","<img src=""square.png"" width=""306"" height=""306"" style=""position: fixed;left:14%;top:30%""><img src=""square.png"" width=""306"" height=""306"" style=""position: fixed;left:64%;top:30%"">","null","","","","","","","","","","","","","","","","","","","","","","","","","","","","","","","","","","",""
"","","","","","html-keyboard-response","144","1117650","0.0-13.0-2.22","AMNUNZ65OSTFO","2022-05-23T19:25:33.903Z","phon_sim-rhyme-same_different-task_switching","","1396.0999999642372","rhyme","<div style=""border: 3px solid #000000; position: fixed;left:14%;top:30%""><img src=""visual/soap.png"" width=""300""></div><div style=""border: 3px solid #000000; position: fixed;left:64%;top:30%""><img src=""visual/rope.png"" width=""300""></div>","arrowup","experiment","","","","","","","","","","","","","","","","true","visual/soap.png","visual/rope.png","ArrowUp","non-ortho","","","","","","","","","","","","","",""
"","","","","","html-keyboard-response","145","1117902","0.0-13.0-0.23","AMNUNZ65OSTFO","2022-05-23T19:25:33.903Z","phon_sim-rhyme-same_different-task_switching","","null","rhyme","<div style=""font-size:60px;"">+</div>","null","","","","","","","","","","","","","","","","250","","","","","","","","","","","","","","","","","","",""
"","","","","","html-keyboard-response","146","1118404","0.0-13.0-1.23","AMNUNZ65OSTFO","2022-05-23T19:25:33.903Z","phon_sim-rhyme-same_different-task_switching","","null","rhyme","<img src=""square.png"" width=""306"" height=""306"" style=""position: fixed;left:14%;top:30%""><img src=""square.png"" width=""306"" height=""306"" style=""position: fixed;left:64%;top:30%"">","null","","","","","","","","","","","","","","","","","","","","","","","","","","","","","","","","","","",""
"","","","","","html-keyboard-response","147","1120212","0.0-13.0-2.23","AMNUNZ65OSTFO","2022-05-23T19:25:33.903Z","phon_sim-rhyme-same_different-task_switching","","1806.5","rhyme","<div style=""border: 3px solid #000000; position: fixed;left:14%;top:30%""><img src=""visual/bin.png"" width=""300""></div><div style=""border: 3px solid #000000; position: fixed;left:64%;top:30%""><img src=""visual/chin.png"" width=""300""></div>","arrowdown","experiment","","","","","","","","","","","","","","","","false","visual/bin.png","visual/chin.png","ArrowUp","ortho","","","","","","","","","","","","","",""
"","","","","","html-keyboard-response","148","1121213","0.0-13.0-0.24","AMNUNZ65OSTFO","2022-05-23T19:25:33.903Z","phon_sim-rhyme-same_different-task_switching","","null","rhyme","<div style=""font-size:60px;"">+</div>","null","","","","","","","","","","","","","","","","1000","","","","","","","","","","","","","","","","","","",""
"","","","","","html-keyboard-response","149","1121716","0.0-13.0-1.24","AMNUNZ65OSTFO","2022-05-23T19:25:33.903Z","phon_sim-rhyme-same_different-task_switching","","null","rhyme","<img src=""square.png"" width=""306"" height=""306"" style=""position: fixed;left:14%;top:30%""><img src=""square.png"" width=""306"" height=""306"" style=""position: fixed;left:64%;top:30%"">","null","","","","","","","","","","","","","","","","","","","","","","","","","","","","","","","","","","",""
"","","","","","html-keyboard-response","150","1124398","0.0-13.0-2.24","AMNUNZ65OSTFO","2022-05-23T19:25:33.903Z","phon_sim-rhyme-same_different-task_switching","","2680.300000011921","rhyme","<div style=""border: 3px solid #000000; position: fixed;left:14%;top:30%""><img src=""visual/bear.png"" width=""300""></div><div style=""border: 3px solid #000000; position: fixed;left:64%;top:30%""><img src=""visual/square_rhyme.png"" width=""300""></div>","arrowup","experiment","","","","","","","","","","","","","","","","true","visual/bear.png","visual/square_rhyme.png","ArrowUp","non-ortho","","","","","","","","","","","","","",""
"","","","","","html-keyboard-response","151","1125400","0.0-13.0-0.25","AMNUNZ65OSTFO","2022-05-23T19:25:33.903Z","phon_sim-rhyme-same_different-task_switching","","null","rhyme","<div style=""font-size:60px;"">+</div>","null","","","","","","","","","","","","","","","","1000","","","","","","","","","","","","","","","","","","",""
"","","","","","html-keyboard-response","152","1125902","0.0-13.0-1.25","AMNUNZ65OSTFO","2022-05-23T19:25:33.903Z","phon_sim-rhyme-same_different-task_switching","","null","rhyme","<img src=""square.png"" width=""306"" height=""306"" style=""position: fixed;left:14%;top:30%""><img src=""square.png"" width=""306"" height=""306"" style=""position: fixed;left:64%;top:30%"">","null","","","","","","","","","","","","","","","","","","","","","","","","","","","","","","","","","","",""
"","","","","","html-keyboard-response","153","1127943","0.0-13.0-2.25","AMNUNZ65OSTFO","2022-05-23T19:25:33.903Z","phon_sim-rhyme-same_different-task_switching","","2038.6000000238419","rhyme","<div style=""border: 3px solid #000000; position: fixed;left:14%;top:30%""><img src=""visual/drawer.png"" width=""300""></div><div style=""border: 3px solid #000000; position: fixed;left:64%;top:30%""><img src=""visual/chair.png"" width=""300""></div>","arrowdown","experiment","","","","","","","","","","","","","","","","true","visual/drawer.png","visual/chair.png","ArrowDown","NR","","","","","","","","","","","","","",""
"","","","","","html-keyboard-response","154","1128444","0.0-13.0-0.26","AMNUNZ65OSTFO","2022-05-23T19:25:33.903Z","phon_sim-rhyme-same_different-task_switching","","null","rhyme","<div style=""font-size:60px;"">+</div>","null","","","","","","","","","","","","","","","","500","","","","","","","","","","","","","","","","","","",""
"","","","","","html-keyboard-response","155","1128946","0.0-13.0-1.26","AMNUNZ65OSTFO","2022-05-23T19:25:33.903Z","phon_sim-rhyme-same_different-task_switching","","null","rhyme","<img src=""square.png"" width=""306"" height=""306"" style=""position: fixed;left:14%;top:30%""><img src=""square.png"" width=""306"" height=""306"" style=""position: fixed;left:64%;top:30%"">","null","","","","","","","","","","","","","","","","","","","","","","","","","","","","","","","","","","",""
"","","","","","html-keyboard-response","156","1130756","0.0-13.0-2.26","AMNUNZ65OSTFO","2022-05-23T19:25:33.903Z","phon_sim-rhyme-same_different-task_switching","","1807.4000000357628","rhyme","<div style=""border: 3px solid #000000; position: fixed;left:14%;top:30%""><img src=""visual/sock.png"" width=""300""></div><div style=""border: 3px solid #000000; position: fixed;left:64%;top:30%""><img src=""visual/clock.png"" width=""300""></div>","arrowup","experiment","","","","","","","","","","","","","","","","true","visual/sock.png","visual/clock.png","ArrowUp","ortho","","","","","","","","","","","","","",""
"","","","","","html-keyboard-response","157","1131756","0.0-13.0-0.27","AMNUNZ65OSTFO","2022-05-23T19:25:33.903Z","phon_sim-rhyme-same_different-task_switching","","null","rhyme","<div style=""font-size:60px;"">+</div>","null","","","","","","","","","","","","","","","","1000","","","","","","","","","","","","","","","","","","",""
"","","","","","html-keyboard-response","158","1132259","0.0-13.0-1.27","AMNUNZ65OSTFO","2022-05-23T19:25:33.903Z","phon_sim-rhyme-same_different-task_switching","","null","rhyme","<img src=""square.png"" width=""306"" height=""306"" style=""position: fixed;left:14%;top:30%""><img src=""square.png"" width=""306"" height=""306"" style=""position: fixed;left:64%;top:30%"">","null","","","","","","","","","","","","","","","","","","","","","","","","","","","","","","","","","","",""
"","","","","","html-keyboard-response","159","1134455","0.0-13.0-2.27","AMNUNZ65OSTFO","2022-05-23T19:25:33.903Z","phon_sim-rhyme-same_different-task_switching","","2193.099999964237","rhyme","<div style=""border: 3px solid #000000; position: fixed;left:14%;top:30%""><img src=""visual/wave.png"" width=""300""></div><div style=""border: 3px solid #000000; position: fixed;left:64%;top:30%""><img src=""visual/cave.png"" width=""300""></div>","arrowdown","experiment","","","","","","","","","","","","","","","","false","visual/wave.png","visual/cave.png","ArrowUp","ortho","","","","","","","","","","","","","",""
"","","","","","html-keyboard-response","160","1135206","0.0-13.0-0.28","AMNUNZ65OSTFO","2022-05-23T19:25:33.903Z","phon_sim-rhyme-same_different-task_switching","","null","rhyme","<div style=""font-size:60px;"">+</div>","null","","","","","","","","","","","","","","","","750","","","","","","","","","","","","","","","","","","",""
"","","","","","html-keyboard-response","161","1135722","0.0-13.0-1.28","AMNUNZ65OSTFO","2022-05-23T19:25:33.903Z","phon_sim-rhyme-same_different-task_switching","","null","rhyme","<img src=""square.png"" width=""306"" height=""306"" style=""position: fixed;left:14%;top:30%""><img src=""square.png"" width=""306"" height=""306"" style=""position: fixed;left:64%;top:30%"">","null","","","","","","","","","","","","","","","","","","","","","","","","","","","","","","","","","","",""
"","","","","","html-keyboard-response","162","1137301","0.0-13.0-2.28","AMNUNZ65OSTFO","2022-05-23T19:25:33.903Z","phon_sim-rhyme-same_different-task_switching","","1577.1000000238419","rhyme","<div style=""border: 3px solid #000000; position: fixed;left:14%;top:30%""><img src=""visual/brain.png"" width=""300""></div><div style=""border: 3px solid #000000; position: fixed;left:64%;top:30%""><img src=""visual/clock.png"" width=""300""></div>","arrowdown","experiment","","","","","","","","","","","","","","","","true","visual/brain.png","visual/clock.png","ArrowDown","NR","","","","","","","","","","","","","",""
"","","","","","html-keyboard-response","163","1137817","0.0-13.0-0.29","AMNUNZ65OSTFO","2022-05-23T19:25:33.903Z","phon_sim-rhyme-same_different-task_switching","","null","rhyme","<div style=""font-size:60px;"">+</div>","null","","","","","","","","","","","","","","","","500","","","","","","","","","","","","","","","","","","",""
"","","","","","html-keyboard-response","164","1138320","0.0-13.0-1.29","AMNUNZ65OSTFO","2022-05-23T19:25:33.903Z","phon_sim-rhyme-same_different-task_switching","","null","rhyme","<img src=""square.png"" width=""306"" height=""306"" style=""position: fixed;left:14%;top:30%""><img src=""square.png"" width=""306"" height=""306"" style=""position: fixed;left:64%;top:30%"">","null","","","","","","","","","","","","","","","","","","","","","","","","","","","","","","","","","","",""
"","","","","","html-keyboard-response","165","1140062","0.0-13.0-2.29","AMNUNZ65OSTFO","2022-05-23T19:25:33.903Z","phon_sim-rhyme-same_different-task_switching","","1739.6000000238419","rhyme","<div style=""border: 3px solid #000000; position: fixed;left:14%;top:30%""><img src=""visual/drawer.png"" width=""300""></div><div style=""border: 3px solid #000000; position: fixed;left:64%;top:30%""><img src=""visual/door.png"" width=""300""></div>","arrowdown","experiment","","","","","","","","","","","","","","","","false","visual/drawer.png","visual/door.png","ArrowUp","non-ortho","","","","","","","","","","","","","",""
"","","","","","html-keyboard-response","166","1140563","0.0-13.0-0.30","AMNUNZ65OSTFO","2022-05-23T19:25:33.903Z","phon_sim-rhyme-same_different-task_switching","","null","rhyme","<div style=""font-size:60px;"">+</div>","null","","","","","","","","","","","","","","","","500","","","","","","","","","","","","","","","","","","",""
"","","","","","html-keyboard-response","167","1141065","0.0-13.0-1.30","AMNUNZ65OSTFO","2022-05-23T19:25:33.903Z","phon_sim-rhyme-same_different-task_switching","","null","rhyme","<img src=""square.png"" width=""306"" height=""306"" style=""position: fixed;left:14%;top:30%""><img src=""square.png"" width=""306"" height=""306"" style=""position: fixed;left:64%;top:30%"">","null","","","","","","","","","","","","","","","","","","","","","","","","","","","","","","","","","","",""
"","","","","","html-keyboard-response","168","1142269","0.0-13.0-2.30","AMNUNZ65OSTFO","2022-05-23T19:25:33.903Z","phon_sim-rhyme-same_different-task_switching","","1202.300000011921","rhyme","<div style=""border: 3px solid #000000; position: fixed;left:14%;top:30%""><img src=""visual/snail.png"" width=""300""></div><div style=""border: 3px solid #000000; position: fixed;left:64%;top:30%""><img src=""visual/whale.png"" width=""300""></div>","arrowup","experiment","","","","","","","","","","","","","","","","true","visual/snail.png","visual/whale.png","ArrowUp","non-ortho","","","","","","","","","","","","","",""
"","","","","","html-keyboard-response","169","1142521","0.0-13.0-0.31","AMNUNZ65OSTFO","2022-05-23T19:25:33.903Z","phon_sim-rhyme-same_different-task_switching","","null","rhyme","<div style=""font-size:60px;"">+</div>","null","","","","","","","","","","","","","","","","250","","","","","","","","","","","","","","","","","","",""
"","","","","","html-keyboard-response","170","1143023","0.0-13.0-1.31","AMNUNZ65OSTFO","2022-05-23T19:25:33.903Z","phon_sim-rhyme-same_different-task_switching","","null","rhyme","<img src=""square.png"" width=""306"" height=""306"" style=""position: fixed;left:14%;top:30%""><img src=""square.png"" width=""306"" height=""306"" style=""position: fixed;left:64%;top:30%"">","null","","","","","","","","","","","","","","","","","","","","","","","","","","","","","","","","","","",""
"","","","","","html-keyboard-response","171","1145126","0.0-13.0-2.31","AMNUNZ65OSTFO","2022-05-23T19:25:33.903Z","phon_sim-rhyme-same_different-task_switching","","2100.800000011921","rhyme","<div style=""border: 3px solid #000000; position: fixed;left:14%;top:30%""><img src=""visual/bed.png"" width=""300""></div><div style=""border: 3px solid #000000; position: fixed;left:64%;top:30%""><img src=""visual/bread.png"" width=""300""></div>","arrowup","experiment","","","","","","","","","","","","","","","","true","visual/bed.png","visual/bread.png","ArrowUp","non-ortho","","","","","","","","","","","","","",""
"","","","","","html-keyboard-response","172","1146128","0.0-13.0-0.32","AMNUNZ65OSTFO","2022-05-23T19:25:33.903Z","phon_sim-rhyme-same_different-task_switching","","null","rhyme","<div style=""font-size:60px;"">+</div>","null","","","","","","","","","","","","","","","","1000","","","","","","","","","","","","","","","","","","",""
"","","","","","html-keyboard-response","173","1146630","0.0-13.0-1.32","AMNUNZ65OSTFO","2022-05-23T19:25:33.903Z","phon_sim-rhyme-same_different-task_switching","","null","rhyme","<img src=""square.png"" width=""306"" height=""306"" style=""position: fixed;left:14%;top:30%""><img src=""square.png"" width=""306"" height=""306"" style=""position: fixed;left:64%;top:30%"">","null","","","","","","","","","","","","","","","","","","","","","","","","","","","","","","","","","","",""
"","","","","","html-keyboard-response","174","1147863","0.0-13.0-2.32","AMNUNZ65OSTFO","2022-05-23T19:25:33.903Z","phon_sim-rhyme-same_different-task_switching","","1231.5999999642372","rhyme","<div style=""border: 3px solid #000000; position: fixed;left:14%;top:30%""><img src=""visual/king.png"" width=""300""></div><div style=""border: 3px solid #000000; position: fixed;left:64%;top:30%""><img src=""visual/cab.png"" width=""300""></div>","arrowdown","experiment","","","","","","","","","","","","","","","","true","visual/king.png","visual/cab.png","ArrowDown","NR","","","","","","","","","","","","","",""
"","","","","","html-keyboard-response","175","1148615","0.0-13.0-0.33","AMNUNZ65OSTFO","2022-05-23T19:25:33.903Z","phon_sim-rhyme-same_different-task_switching","","null","rhyme","<div style=""font-size:60px;"">+</div>","null","","","","","","","","","","","","","","","","750","","","","","","","","","","","","","","","","","","",""
"","","","","","html-keyboard-response","176","1149117","0.0-13.0-1.33","AMNUNZ65OSTFO","2022-05-23T19:25:33.903Z","phon_sim-rhyme-same_different-task_switching","","null","rhyme","<img src=""square.png"" width=""306"" height=""306"" style=""position: fixed;left:14%;top:30%""><img src=""square.png"" width=""306"" height=""306"" style=""position: fixed;left:64%;top:30%"">","null","","","","","","","","","","","","","","","","","","","","","","","","","","","","","","","","","","",""
"","","","","","html-keyboard-response","177","1150713","0.0-13.0-2.33","AMNUNZ65OSTFO","2022-05-23T19:25:33.903Z","phon_sim-rhyme-same_different-task_switching","","1594.800000011921","rhyme","<div style=""border: 3px solid #000000; position: fixed;left:14%;top:30%""><img src=""visual/bone.png"" width=""300""></div><div style=""border: 3px solid #000000; position: fixed;left:64%;top:30%""><img src=""visual/cone.png"" width=""300""></div>","arrowup","experiment","","","","","","","","","","","","","","","","true","visual/bone.png","visual/cone.png","ArrowUp","ortho","","","","","","","","","","","","","",""
"","","","","","html-keyboard-response","178","1150964","0.0-13.0-0.34","AMNUNZ65OSTFO","2022-05-23T19:25:33.903Z","phon_sim-rhyme-same_different-task_switching","","null","rhyme","<div style=""font-size:60px;"">+</div>","null","","","","","","","","","","","","","","","","250","","","","","","","","","","","","","","","","","","",""
"","","","","","html-keyboard-response","179","1151467","0.0-13.0-1.34","AMNUNZ65OSTFO","2022-05-23T19:25:33.903Z","phon_sim-rhyme-same_different-task_switching","","null","rhyme","<img src=""square.png"" width=""306"" height=""306"" style=""position: fixed;left:14%;top:30%""><img src=""square.png"" width=""306"" height=""306"" style=""position: fixed;left:64%;top:30%"">","null","","","","","","","","","","","","","","","","","","","","","","","","","","","","","","","","","","",""
"","","","","","html-keyboard-response","180","1154289","0.0-13.0-2.34","AMNUNZ65OSTFO","2022-05-23T19:25:33.903Z","phon_sim-rhyme-same_different-task_switching","","2819.300000011921","rhyme","<div style=""border: 3px solid #000000; position: fixed;left:14%;top:30%""><img src=""visual/cab.png"" width=""300""></div><div style=""border: 3px solid #000000; position: fixed;left:64%;top:30%""><img src=""visual/crab.png"" width=""300""></div>","arrowup","experiment","","","","","","","","","","","","","","","","true","visual/cab.png","visual/crab.png","ArrowUp","ortho","","","","","","","","","","","","","",""
"","","","","","html-keyboard-response","181","1154790","0.0-13.0-0.35","AMNUNZ65OSTFO","2022-05-23T19:25:33.903Z","phon_sim-rhyme-same_different-task_switching","","null","rhyme","<div style=""font-size:60px;"">+</div>","null","","","","","","","","","","","","","","","","500","","","","","","","","","","","","","","","","","","",""
"","","","","","html-keyboard-response","182","1155291","0.0-13.0-1.35","AMNUNZ65OSTFO","2022-05-23T19:25:33.903Z","phon_sim-rhyme-same_different-task_switching","","null","rhyme","<img src=""square.png"" width=""306"" height=""306"" style=""position: fixed;left:14%;top:30%""><img src=""square.png"" width=""306"" height=""306"" style=""position: fixed;left:64%;top:30%"">","null","","","","","","","","","","","","","","","","","","","","","","","","","","","","","","","","","","",""
"","","","","","html-keyboard-response","183","1158115","0.0-13.0-2.35","AMNUNZ65OSTFO","2022-05-23T19:25:33.903Z","phon_sim-rhyme-same_different-task_switching","","2820.899999976158","rhyme","<div style=""border: 3px solid #000000; position: fixed;left:14%;top:30%""><img src=""visual/well.png"" width=""300""></div><div style=""border: 3px solid #000000; position: fixed;left:64%;top:30%""><img src=""visual/bell.png"" width=""300""></div>","arrowup","experiment","","","","","","","","","","","","","","","","true","visual/well.png","visual/bell.png","ArrowUp","ortho","","","","","","","","","","","","","",""
"","","","","","html-keyboard-response","184","1159117","0.0-13.0-0.36","AMNUNZ65OSTFO","2022-05-23T19:25:33.903Z","phon_sim-rhyme-same_different-task_switching","","null","rhyme","<div style=""font-size:60px;"">+</div>","null","","","","","","","","","","","","","","","","1000","","","","","","","","","","","","","","","","","","",""
"","","","","","html-keyboard-response","185","1159619","0.0-13.0-1.36","AMNUNZ65OSTFO","2022-05-23T19:25:33.903Z","phon_sim-rhyme-same_different-task_switching","","null","rhyme","<img src=""square.png"" width=""306"" height=""306"" style=""position: fixed;left:14%;top:30%""><img src=""square.png"" width=""306"" height=""306"" style=""position: fixed;left:64%;top:30%"">","null","","","","","","","","","","","","","","","","","","","","","","","","","","","","","","","","","","",""
"","","","","","html-keyboard-response","186","1160689","0.0-13.0-2.36","AMNUNZ65OSTFO","2022-05-23T19:25:33.903Z","phon_sim-rhyme-same_different-task_switching","","1068.1000000238419","rhyme","<div style=""border: 3px solid #000000; position: fixed;left:14%;top:30%""><img src=""visual/chain.png"" width=""300""></div><div style=""border: 3px solid #000000; position: fixed;left:64%;top:30%""><img src=""visual/brain.png"" width=""300""></div>","arrowup","experiment","","","","","","","","","","","","","","","","true","visual/chain.png","visual/brain.png","ArrowUp","ortho","","","","","","","","","","","","","",""
"","","","","","html-keyboard-response","187","1160941","0.0-13.0-0.37","AMNUNZ65OSTFO","2022-05-23T19:25:33.903Z","phon_sim-rhyme-same_different-task_switching","","null","rhyme","<div style=""font-size:60px;"">+</div>","null","","","","","","","","","","","","","","","","250","","","","","","","","","","","","","","","","","","",""
"","","","","","html-keyboard-response","188","1161443","0.0-13.0-1.37","AMNUNZ65OSTFO","2022-05-23T19:25:33.903Z","phon_sim-rhyme-same_different-task_switching","","null","rhyme","<img src=""square.png"" width=""306"" height=""306"" style=""position: fixed;left:14%;top:30%""><img src=""square.png"" width=""306"" height=""306"" style=""position: fixed;left:64%;top:30%"">","null","","","","","","","","","","","","","","","","","","","","","","","","","","","","","","","","","","",""
"","","","","","html-keyboard-response","189","1163056","0.0-13.0-2.37","AMNUNZ65OSTFO","2022-05-23T19:25:33.903Z","phon_sim-rhyme-same_different-task_switching","","1611.5","rhyme","<div style=""border: 3px solid #000000; position: fixed;left:14%;top:30%""><img src=""visual/key.png"" width=""300""></div><div style=""border: 3px solid #000000; position: fixed;left:64%;top:30%""><img src=""visual/tree.png"" width=""300""></div>","arrowup","experiment","","","","","","","","","","","","","","","","true","visual/key.png","visual/tree.png","ArrowUp","non-ortho","","","","","","","","","","","","","",""
"","","","","","html-keyboard-response","190","1163807","0.0-13.0-0.38","AMNUNZ65OSTFO","2022-05-23T19:25:33.903Z","phon_sim-rhyme-same_different-task_switching","","null","rhyme","<div style=""font-size:60px;"">+</div>","null","","","","","","","","","","","","","","","","750","","","","","","","","","","","","","","","","","","",""
"","","","","","html-keyboard-response","191","1164310","0.0-13.0-1.38","AMNUNZ65OSTFO","2022-05-23T19:25:33.903Z","phon_sim-rhyme-same_different-task_switching","","null","rhyme","<img src=""square.png"" width=""306"" height=""306"" style=""position: fixed;left:14%;top:30%""><img src=""square.png"" width=""306"" height=""306"" style=""position: fixed;left:64%;top:30%"">","null","","","","","","","","","","","","","","","","","","","","","","","","","","","","","","","","","","",""
"","","","","","html-keyboard-response","192","1165658","0.0-13.0-2.38","AMNUNZ65OSTFO","2022-05-23T19:25:33.903Z","phon_sim-rhyme-same_different-task_switching","","1345.199999988079","rhyme","<div style=""border: 3px solid #000000; position: fixed;left:14%;top:30%""><img src=""visual/plane.png"" width=""300""></div><div style=""border: 3px solid #000000; position: fixed;left:64%;top:30%""><img src=""visual/chain.png"" width=""300""></div>","arrowup","experiment","","","","","","","","","","","","","","","","true","visual/plane.png","visual/chain.png","ArrowUp","non-ortho","","","","","","","","","","","","","",""
"","","","","","html-keyboard-response","193","1165909","0.0-13.0-0.39","AMNUNZ65OSTFO","2022-05-23T19:25:33.903Z","phon_sim-rhyme-same_different-task_switching","","null","rhyme","<div style=""font-size:60px;"">+</div>","null","","","","","","","","","","","","","","","","250","","","","","","","","","","","","","","","","","","",""
"","","","","","html-keyboard-response","194","1166411","0.0-13.0-1.39","AMNUNZ65OSTFO","2022-05-23T19:25:33.903Z","phon_sim-rhyme-same_different-task_switching","","null","rhyme","<img src=""square.png"" width=""306"" height=""306"" style=""position: fixed;left:14%;top:30%""><img src=""square.png"" width=""306"" height=""306"" style=""position: fixed;left:64%;top:30%"">","null","","","","","","","","","","","","","","","","","","","","","","","","","","","","","","","","","","",""
"","","","","","html-keyboard-response","195","1167752","0.0-13.0-2.39","AMNUNZ65OSTFO","2022-05-23T19:25:33.903Z","phon_sim-rhyme-same_different-task_switching","","1338.7999999523163","rhyme","<div style=""border: 3px solid #000000; position: fixed;left:14%;top:30%""><img src=""visual/dart.png"" width=""300""></div><div style=""border: 3px solid #000000; position: fixed;left:64%;top:30%""><img src=""visual/heart.png"" width=""300""></div>","arrowup","experiment","","","","","","","","","","","","","","","","true","visual/dart.png","visual/heart.png","ArrowUp","non-ortho","","","","","","","","","","","","","",""
"","","","","","html-keyboard-response","196","1168253","0.0-13.0-0.40","AMNUNZ65OSTFO","2022-05-23T19:25:33.903Z","phon_sim-rhyme-same_different-task_switching","","null","rhyme","<div style=""font-size:60px;"">+</div>","null","","","","","","","","","","","","","","","","500","","","","","","","","","","","","","","","","","","",""
