"success","timeout","failed_images","failed_audio","failed_video","trial_type","trial_index","time_elapsed","internal_node_id","worker_id","start_time","experiment_order","view_history","rt","experiment","response","phase","stimulus","condition","answer","correct","operation","trial_no","color_cue","symbol_cue","question_order","talk_out_loud","strategy_free_ans","wait_time","image_1","image_2","cor_key","type","word_1","word_2","word_3","word_4","word_5","original_word_set","response_1","response_2","response_3","response_4","response_5","judgment_type","stim_1","stim_2","inverted","false_pos","true_pos","false_neg","true_neg"
"true","false","[]","[]","[]","preload","0","2500","0.0-0.0","A2YB18JHC2C7GF","2022-05-19T09:15:18.725Z","task_switching-rhyme-phon_sim-same_different","","","","","","","","","","","","","","","","","","","","","","","","","","","","","","","","","","","","","","","",""
"","","","","","instructions","1","12840","0.0-1.0","A2YB18JHC2C7GF","2022-05-19T09:15:18.725Z","task_switching-rhyme-phon_sim-same_different","[{""page_index"":0,""viewing_time"":10338}]","10338.200000047684","","","","","","","","","","","","","","","","","","","","","","","","","","","","","","","","","","","","","",""
"true","","","","","fullscreen","2","17678","0.0-2.0","A2YB18JHC2C7GF","2022-05-19T09:15:18.725Z","task_switching-rhyme-phon_sim-same_different","","","","","","","","","","","","","","","","","","","","","","","","","","","","","","","","","","","","","","","",""
"","","","","","instructions","3","69711","0.0-3.0","A2YB18JHC2C7GF","2022-05-19T09:15:18.725Z","task_switching-rhyme-phon_sim-same_different","[{""page_index"":0,""viewing_time"":52032.200000047684}]","52032.299999952316","task_switching","","","","","","","","","","","","","","","","","","","","","","","","","","","","","","","","","","","","",""
"","","","","","instructions","4","79135","0.0-4.0","A2YB18JHC2C7GF","2022-05-19T09:15:18.725Z","task_switching-rhyme-phon_sim-same_different","[{""page_index"":0,""viewing_time"":9422.5}]","9422.700000047684","task_switching","","","","","","","","","","","","","","","","","","","","","","","","","","","","","","","","","","","","",""
"","","","","","survey-text","5","84848","0.0-5.0","A2YB18JHC2C7GF","2022-05-19T09:15:18.725Z","task_switching-rhyme-phon_sim-same_different","","5704.600000143051","task_switching","{""subtraction_ans"":""24""}","training","27","subtraction","24","true","subtract","","","","","","","","","","","","","","","","","","","","","","","","","","","","","",""
"","","","","","html-keyboard-response","6","85855","0.0-6.0","A2YB18JHC2C7GF","2022-05-19T09:15:18.725Z","task_switching-rhyme-phon_sim-same_different","","null","task_switching","null","training","<div style=""color:darkgreen; font-size:60px"">Well done!</div>","subtraction","","","","","","","","","","","","","","","","","","","","","","","","","","","","","","","","",""
"","","","","","survey-text","7","90856","0.0-7.0","A2YB18JHC2C7GF","2022-05-19T09:15:18.725Z","task_switching-rhyme-phon_sim-same_different","","4994.200000047684","task_switching","{""subtraction_ans"":""90""}","training","93","subtraction","90","true","subtract","","","","","","","","","","","","","","","","","","","","","","","","","","","","","",""
"","","","","","html-keyboard-response","8","91871","0.0-8.0","A2YB18JHC2C7GF","2022-05-19T09:15:18.725Z","task_switching-rhyme-phon_sim-same_different","","null","task_switching","null","training","<div style=""color:darkgreen; font-size:60px"">Well done!</div>","subtraction","","","","","","","","","","","","","","","","","","","","","","","","","","","","","","","","",""
"","","","","","survey-text","9","96839","0.0-9.0","A2YB18JHC2C7GF","2022-05-19T09:15:18.725Z","task_switching-rhyme-phon_sim-same_different","","4963.100000143051","task_switching","{""subtraction_ans"":""41""}","training","44","subtraction","41","true","subtract","","","","","","","","","","","","","","","","","","","","","","","","","","","","","",""
"","","","","","html-keyboard-response","10","97852","0.0-10.0","A2YB18JHC2C7GF","2022-05-19T09:15:18.725Z","task_switching-rhyme-phon_sim-same_different","","null","task_switching","null","training","<div style=""color:darkgreen; font-size:60px"">Well done!</div>","subtraction","","","","","","","","","","","","","","","","","","","","","","","","","","","","","","","","",""
"","","","","","survey-text","11","104551","0.0-11.0","A2YB18JHC2C7GF","2022-05-19T09:15:18.725Z","task_switching-rhyme-phon_sim-same_different","","6693.300000190735","task_switching","{""subtraction_ans"":""58""}","training","61","subtraction","58","true","subtract","","","","","","","","","","","","","","","","","","","","","","","","","","","","","",""
"","","","","","html-keyboard-response","12","105555","0.0-12.0","A2YB18JHC2C7GF","2022-05-19T09:15:18.725Z","task_switching-rhyme-phon_sim-same_different","","null","task_switching","null","training","<div style=""color:darkgreen; font-size:60px"">Well done!</div>","subtraction","","","","","","","","","","","","","","","","","","","","","","","","","","","","","","","","",""
"","","","","","survey-text","13","109855","0.0-13.0","A2YB18JHC2C7GF","2022-05-19T09:15:18.725Z","task_switching-rhyme-phon_sim-same_different","","4294.5","task_switching","{""subtraction_ans"":""95""}","training","98","subtraction","95","true","subtract","","","","","","","","","","","","","","","","","","","","","","","","","","","","","",""
"","","","","","html-keyboard-response","14","110869","0.0-14.0","A2YB18JHC2C7GF","2022-05-19T09:15:18.725Z","task_switching-rhyme-phon_sim-same_different","","null","task_switching","null","training","<div style=""color:darkgreen; font-size:60px"">Well done!</div>","subtraction","","","","","","","","","","","","","","","","","","","","","","","","","","","","","","","","",""
"","","","","","survey-text","15","115727","0.0-15.0","A2YB18JHC2C7GF","2022-05-19T09:15:18.725Z","task_switching-rhyme-phon_sim-same_different","","4854","task_switching","{""subtraction_ans"":""20""}","training","23","subtraction","20","true","subtract","","","","","","","","","","","","","","","","","","","","","","","","","","","","","",""
"","","","","","html-keyboard-response","16","116733","0.0-16.0","A2YB18JHC2C7GF","2022-05-19T09:15:18.725Z","task_switching-rhyme-phon_sim-same_different","","null","task_switching","null","training","<div style=""color:darkgreen; font-size:60px"">Well done!</div>","subtraction","","","","","","","","","","","","","","","","","","","","","","","","","","","","","","","","",""
"","","","","","survey-text","17","122183","0.0-17.0","A2YB18JHC2C7GF","2022-05-19T09:15:18.725Z","task_switching-rhyme-phon_sim-same_different","","5446.5","task_switching","{""subtraction_ans"":""81""}","training","84","subtraction","81","true","subtract","","","","","","","","","","","","","","","","","","","","","","","","","","","","","",""
"","","","","","html-keyboard-response","18","123205","0.0-18.0","A2YB18JHC2C7GF","2022-05-19T09:15:18.725Z","task_switching-rhyme-phon_sim-same_different","","null","task_switching","null","training","<div style=""color:darkgreen; font-size:60px"">Well done!</div>","subtraction","","","","","","","","","","","","","","","","","","","","","","","","","","","","","","","","",""
"","","","","","survey-text","19","127447","0.0-19.0","A2YB18JHC2C7GF","2022-05-19T09:15:18.725Z","task_switching-rhyme-phon_sim-same_different","","4238.5","task_switching","{""subtraction_ans"":""33""}","training","36","subtraction","33","true","subtract","","","","","","","","","","","","","","","","","","","","","","","","","","","","","",""
"","","","","","html-keyboard-response","20","128451","0.0-20.0","A2YB18JHC2C7GF","2022-05-19T09:15:18.725Z","task_switching-rhyme-phon_sim-same_different","","null","task_switching","null","training","<div style=""color:darkgreen; font-size:60px"">Well done!</div>","subtraction","","","","","","","","","","","","","","","","","","","","","","","","","","","","","","","","",""
"","","","","","survey-text","21","133423","0.0-21.0","A2YB18JHC2C7GF","2022-05-19T09:15:18.725Z","task_switching-rhyme-phon_sim-same_different","","4968","task_switching","{""subtraction_ans"":""17""}","training","20","subtraction","17","true","subtract","","","","","","","","","","","","","","","","","","","","","","","","","","","","","",""
"","","","","","html-keyboard-response","22","134437","0.0-22.0","A2YB18JHC2C7GF","2022-05-19T09:15:18.725Z","task_switching-rhyme-phon_sim-same_different","","null","task_switching","null","training","<div style=""color:darkgreen; font-size:60px"">Well done!</div>","subtraction","","","","","","","","","","","","","","","","","","","","","","","","","","","","","","","","",""
"","","","","","survey-text","23","139463","0.0-23.0","A2YB18JHC2C7GF","2022-05-19T09:15:18.725Z","task_switching-rhyme-phon_sim-same_different","","5021.400000095367","task_switching","{""subtraction_ans"":""66""}","training","69","subtraction","66","true","subtract","","","","","","","","","","","","","","","","","","","","","","","","","","","","","",""
"","","","","","html-keyboard-response","24","140468","0.0-24.0","A2YB18JHC2C7GF","2022-05-19T09:15:18.725Z","task_switching-rhyme-phon_sim-same_different","","null","task_switching","null","training","<div style=""color:darkgreen; font-size:60px"">Well done!</div>","subtraction","","","","","","","","","","","","","","","","","","","","","","","","","","","","","","","","",""
"","","","","","instructions","25","145334","0.0-25.0","A2YB18JHC2C7GF","2022-05-19T09:15:18.725Z","task_switching-rhyme-phon_sim-same_different","[{""page_index"":0,""viewing_time"":4865.599999904633}]","4865.799999952316","task_switching","","","","","","","","","","","","","","","","","","","","","","","","","","","","","","","","","","","","",""
"","","","","","survey-text","26","150735","0.0-26.0","A2YB18JHC2C7GF","2022-05-19T09:15:18.725Z","task_switching-rhyme-phon_sim-same_different","","5398.100000143051","task_switching","{""subtraction_ans"":""27""}","experiment","30","subtraction","27","true","subtract","","","","","","","","","","","","","","","","","","","","","","","","","","","","","",""
"","","","","","survey-text","27","154967","0.0-27.0","A2YB18JHC2C7GF","2022-05-19T09:15:18.725Z","task_switching-rhyme-phon_sim-same_different","","4224","task_switching","{""subtraction_ans"":""52""}","experiment","55","subtraction","52","true","subtract","","","","","","","","","","","","","","","","","","","","","","","","","","","","","",""
"","","","","","survey-text","28","160310","0.0-28.0","A2YB18JHC2C7GF","2022-05-19T09:15:18.725Z","task_switching-rhyme-phon_sim-same_different","","5341.400000095367","task_switching","{""subtraction_ans"":""65""}","experiment","68","subtraction","65","true","subtract","","","","","","","","","","","","","","","","","","","","","","","","","","","","","",""
"","","","","","survey-text","29","165198","0.0-29.0","A2YB18JHC2C7GF","2022-05-19T09:15:18.725Z","task_switching-rhyme-phon_sim-same_different","","4885.400000095367","task_switching","{""subtraction_ans"":""72""}","experiment","75","subtraction","72","true","subtract","","","","","","","","","","","","","","","","","","","","","","","","","","","","","",""
"","","","","","survey-text","30","168974","0.0-30.0","A2YB18JHC2C7GF","2022-05-19T09:15:18.725Z","task_switching-rhyme-phon_sim-same_different","","3773.5","task_switching","{""subtraction_ans"":""56""}","experiment","59","subtraction","56","true","subtract","","","","","","","","","","","","","","","","","","","","","","","","","","","","","",""
"","","","","","survey-text","31","173806","0.0-31.0","A2YB18JHC2C7GF","2022-05-19T09:15:18.725Z","task_switching-rhyme-phon_sim-same_different","","4829.400000095367","task_switching","{""subtraction_ans"":""10""}","experiment","13","subtraction","10","true","subtract","","","","","","","","","","","","","","","","","","","","","","","","","","","","","",""
"","","","","","survey-text","32","178398","0.0-32.0","A2YB18JHC2C7GF","2022-05-19T09:15:18.725Z","task_switching-rhyme-phon_sim-same_different","","4589.5","task_switching","{""subtraction_ans"":""94""}","experiment","97","subtraction","94","true","subtract","","","","","","","","","","","","","","","","","","","","","","","","","","","","","",""
"","","","","","survey-text","33","183678","0.0-33.0","A2YB18JHC2C7GF","2022-05-19T09:15:18.725Z","task_switching-rhyme-phon_sim-same_different","","5277.599999904633","task_switching","{""subtraction_ans"":""34""}","experiment","37","subtraction","34","true","subtract","","","","","","","","","","","","","","","","","","","","","","","","","","","","","",""
"","","","","","survey-text","34","187822","0.0-34.0","A2YB18JHC2C7GF","2022-05-19T09:15:18.725Z","task_switching-rhyme-phon_sim-same_different","","4141.399999856949","task_switching","{""subtraction_ans"":""13""}","experiment","16","subtraction","13","true","subtract","","","","","","","","","","","","","","","","","","","","","","","","","","","","","",""
"","","","","","survey-text","35","194375","0.0-35.0","A2YB18JHC2C7GF","2022-05-19T09:15:18.725Z","task_switching-rhyme-phon_sim-same_different","","6548.700000047684","task_switching","{""subtraction_ans"":""28""}","experiment","31","subtraction","28","true","subtract","","","","","","","","","","","","","","","","","","","","","","","","","","","","","",""
"","","","","","survey-text","36","198375","0.0-36.0","A2YB18JHC2C7GF","2022-05-19T09:15:18.725Z","task_switching-rhyme-phon_sim-same_different","","3997.399999856949","task_switching","{""subtraction_ans"":""24""}","experiment","27","subtraction","24","true","subtract","","","","","","","","","","","","","","","","","","","","","","","","","","","","","",""
"","","","","","survey-text","37","202975","0.0-37.0","A2YB18JHC2C7GF","2022-05-19T09:15:18.725Z","task_switching-rhyme-phon_sim-same_different","","4597.600000143051","task_switching","{""subtraction_ans"":""37""}","experiment","40","subtraction","37","true","subtract","","","","","","","","","","","","","","","","","","","","","","","","","","","","","",""
"","","","","","survey-text","38","210007","0.0-38.0","A2YB18JHC2C7GF","2022-05-19T09:15:18.725Z","task_switching-rhyme-phon_sim-same_different","","7029.399999856949","task_switching","{""subtraction_ans"":""39""}","experiment","42","subtraction","39","true","subtract","","","","","","","","","","","","","","","","","","","","","","","","","","","","","",""
"","","","","","survey-text","39","214191","0.0-39.0","A2YB18JHC2C7GF","2022-05-19T09:15:18.725Z","task_switching-rhyme-phon_sim-same_different","","4181.5","task_switching","{""subtraction_ans"":""35""}","experiment","38","subtraction","35","true","subtract","","","","","","","","","","","","","","","","","","","","","","","","","","","","","",""
"","","","","","survey-text","40","219351","0.0-40.0","A2YB18JHC2C7GF","2022-05-19T09:15:18.725Z","task_switching-rhyme-phon_sim-same_different","","5157.300000190735","task_switching","{""subtraction_ans"":""59""}","experiment","62","subtraction","59","true","subtract","","","","","","","","","","","","","","","","","","","","","","","","","","","","","",""
"","","","","","survey-text","41","223303","0.0-41.0","A2YB18JHC2C7GF","2022-05-19T09:15:18.725Z","task_switching-rhyme-phon_sim-same_different","","3948.7000000476837","task_switching","{""subtraction_ans"":""70""}","experiment","73","subtraction","70","true","subtract","","","","","","","","","","","","","","","","","","","","","","","","","","","","","",""
"","","","","","survey-text","42","228231","0.0-42.0","A2YB18JHC2C7GF","2022-05-19T09:15:18.725Z","task_switching-rhyme-phon_sim-same_different","","4925.600000143051","task_switching","{""subtraction_ans"":""81""}","experiment","84","subtraction","81","true","subtract","","","","","","","","","","","","","","","","","","","","","","","","","","","","","",""
"","","","","","survey-text","43","233127","0.0-43.0","A2YB18JHC2C7GF","2022-05-19T09:15:18.725Z","task_switching-rhyme-phon_sim-same_different","","4893.099999904633","task_switching","{""subtraction_ans"":""63""}","experiment","66","subtraction","63","true","subtract","","","","","","","","","","","","","","","","","","","","","","","","","","","","","",""
"","","","","","survey-text","44","237815","0.0-44.0","A2YB18JHC2C7GF","2022-05-19T09:15:18.725Z","task_switching-rhyme-phon_sim-same_different","","4684.799999952316","task_switching","{""subtraction_ans"":""82""}","experiment","85","subtraction","82","true","subtract","","","","","","","","","","","","","","","","","","","","","","","","","","","","","",""
"","","","","","survey-text","45","243423","0.0-45.0","A2YB18JHC2C7GF","2022-05-19T09:15:18.725Z","task_switching-rhyme-phon_sim-same_different","","5605.099999904633","task_switching","{""subtraction_ans"":""88""}","experiment","91","subtraction","88","true","subtract","","","","","","","","","","","","","","","","","","","","","","","","","","","","","",""
"","","","","","survey-text","46","250383","0.0-46.0","A2YB18JHC2C7GF","2022-05-19T09:15:18.725Z","task_switching-rhyme-phon_sim-same_different","","6957.5","task_switching","{""subtraction_ans"":""87""}","experiment","90","subtraction","87","true","subtract","","","","","","","","","","","","","","","","","","","","","","","","","","","","","",""
"","","","","","survey-text","47","255519","0.0-47.0","A2YB18JHC2C7GF","2022-05-19T09:15:18.725Z","task_switching-rhyme-phon_sim-same_different","","5133","task_switching","{""subtraction_ans"":""26""}","experiment","29","subtraction","26","true","subtract","","","","","","","","","","","","","","","","","","","","","","","","","","","","","",""
"","","","","","survey-text","48","260367","0.0-48.0","A2YB18JHC2C7GF","2022-05-19T09:15:18.725Z","task_switching-rhyme-phon_sim-same_different","","4845.399999856949","task_switching","{""subtraction_ans"":""17""}","experiment","20","subtraction","17","true","subtract","","","","","","","","","","","","","","","","","","","","","","","","","","","","","",""
"","","","","","survey-text","49","264743","0.0-49.0","A2YB18JHC2C7GF","2022-05-19T09:15:18.725Z","task_switching-rhyme-phon_sim-same_different","","4373.299999952316","task_switching","{""subtraction_ans"":""66""}","experiment","69","subtraction","66","true","subtract","","","","","","","","","","","","","","","","","","","","","","","","","","","","","",""
"","","","","","survey-text","50","270767","0.0-50.0","A2YB18JHC2C7GF","2022-05-19T09:15:18.725Z","task_switching-rhyme-phon_sim-same_different","","6021","task_switching","{""subtraction_ans"":""29""}","experiment","32","subtraction","29","true","subtract","","","","","","","","","","","","","","","","","","","","","","","","","","","","","",""
"","","","","","survey-text","51","276903","0.0-51.0","A2YB18JHC2C7GF","2022-05-19T09:15:18.725Z","task_switching-rhyme-phon_sim-same_different","","6133.299999952316","task_switching","{""subtraction_ans"":""36""}","experiment","39","subtraction","36","true","subtract","","","","","","","","","","","","","","","","","","","","","","","","","","","","","",""
"","","","","","survey-text","52","281719","0.0-52.0","A2YB18JHC2C7GF","2022-05-19T09:15:18.725Z","task_switching-rhyme-phon_sim-same_different","","4813.299999952316","task_switching","{""subtraction_ans"":""91""}","experiment","94","subtraction","91","true","subtract","","","","","","","","","","","","","","","","","","","","","","","","","","","","","",""
"","","","","","survey-text","53","286214","0.0-53.0","A2YB18JHC2C7GF","2022-05-19T09:15:18.725Z","task_switching-rhyme-phon_sim-same_different","","4492.400000095367","task_switching","{""subtraction_ans"":""93""}","experiment","96","subtraction","93","true","subtract","","","","","","","","","","","","","","","","","","","","","","","","","","","","","",""
"","","","","","survey-text","54","291359","0.0-54.0","A2YB18JHC2C7GF","2022-05-19T09:15:18.725Z","task_switching-rhyme-phon_sim-same_different","","5141.399999856949","task_switching","{""subtraction_ans"":""83""}","experiment","86","subtraction","83","true","subtract","","","","","","","","","","","","","","","","","","","","","","","","","","","","","",""
"","","","","","survey-text","55","295582","0.0-55.0","A2YB18JHC2C7GF","2022-05-19T09:15:18.725Z","task_switching-rhyme-phon_sim-same_different","","4221.199999809265","task_switching","{""subtraction_ans"":""11""}","experiment","14","subtraction","11","true","subtract","","","","","","","","","","","","","","","","","","","","","","","","","","","","","",""
"","","","","","instructions","56","326167","0.0-56.0","A2YB18JHC2C7GF","2022-05-19T09:15:18.725Z","task_switching-rhyme-phon_sim-same_different","[{""page_index"":0,""viewing_time"":30582.900000095367}]","30583.200000047684","task_switching","","","","","","","","","","","","","","","","","","","","","","","","","","","","","","","","","","","","",""
"","","","","","survey-text","57","329551","0.0-57.0","A2YB18JHC2C7GF","2022-05-19T09:15:18.725Z","task_switching-rhyme-phon_sim-same_different","","3381.899999856949","task_switching","{""addition_ans"":""21""}","training","18","addition","21","true","add","","","","","","","","","","","","","","","","","","","","","","","","","","","","","",""
"","","","","","html-keyboard-response","58","330568","0.0-58.0","A2YB18JHC2C7GF","2022-05-19T09:15:18.725Z","task_switching-rhyme-phon_sim-same_different","","null","task_switching","null","training","<div style=""color:darkgreen; font-size:60px"">Well done!</div>","addition","","","","","","","","","","","","","","","","","","","","","","","","","","","","","","","","",""
"","","","","","survey-text","59","336094","0.0-59.0","A2YB18JHC2C7GF","2022-05-19T09:15:18.725Z","task_switching-rhyme-phon_sim-same_different","","5522.200000047684","task_switching","{""addition_ans"":""90""}","training","87","addition","90","true","add","","","","","","","","","","","","","","","","","","","","","","","","","","","","","",""
"","","","","","html-keyboard-response","60","337102","0.0-60.0","A2YB18JHC2C7GF","2022-05-19T09:15:18.725Z","task_switching-rhyme-phon_sim-same_different","","null","task_switching","null","training","<div style=""color:darkgreen; font-size:60px"">Well done!</div>","addition","","","","","","","","","","","","","","","","","","","","","","","","","","","","","","","","",""
"","","","","","survey-text","61","340942","0.0-61.0","A2YB18JHC2C7GF","2022-05-19T09:15:18.725Z","task_switching-rhyme-phon_sim-same_different","","3837.100000143051","task_switching","{""addition_ans"":""48""}","training","45","addition","48","true","add","","","","","","","","","","","","","","","","","","","","","","","","","","","","","",""
"","","","","","html-keyboard-response","62","341947","0.0-62.0","A2YB18JHC2C7GF","2022-05-19T09:15:18.725Z","task_switching-rhyme-phon_sim-same_different","","null","task_switching","null","training","<div style=""color:darkgreen; font-size:60px"">Well done!</div>","addition","","","","","","","","","","","","","","","","","","","","","","","","","","","","","","","","",""
"","","","","","survey-text","63","344942","0.0-63.0","A2YB18JHC2C7GF","2022-05-19T09:15:18.725Z","task_switching-rhyme-phon_sim-same_different","","2992","task_switching","{""addition_ans"":""88""}","training","85","addition","88","true","add","","","","","","","","","","","","","","","","","","","","","","","","","","","","","",""
"","","","","","html-keyboard-response","64","345960","0.0-64.0","A2YB18JHC2C7GF","2022-05-19T09:15:18.725Z","task_switching-rhyme-phon_sim-same_different","","null","task_switching","null","training","<div style=""color:darkgreen; font-size:60px"">Well done!</div>","addition","","","","","","","","","","","","","","","","","","","","","","","","","","","","","","","","",""
"","","","","","survey-text","65","351054","0.0-65.0","A2YB18JHC2C7GF","2022-05-19T09:15:18.725Z","task_switching-rhyme-phon_sim-same_different","","5091","task_switching","{""addition_ans"":""17""}","training","14","addition","17","true","add","","","","","","","","","","","","","","","","","","","","","","","","","","","","","",""
"","","","","","html-keyboard-response","66","352060","0.0-66.0","A2YB18JHC2C7GF","2022-05-19T09:15:18.725Z","task_switching-rhyme-phon_sim-same_different","","null","task_switching","null","training","<div style=""color:darkgreen; font-size:60px"">Well done!</div>","addition","","","","","","","","","","","","","","","","","","","","","","","","","","","","","","","","",""
"","","","","","survey-text","67","355782","0.0-67.0","A2YB18JHC2C7GF","2022-05-19T09:15:18.725Z","task_switching-rhyme-phon_sim-same_different","","3718.800000190735","task_switching","{""addition_ans"":""68""}","training","65","addition","68","true","add","","","","","","","","","","","","","","","","","","","","","","","","","","","","","",""
"","","","","","html-keyboard-response","68","356789","0.0-68.0","A2YB18JHC2C7GF","2022-05-19T09:15:18.725Z","task_switching-rhyme-phon_sim-same_different","","null","task_switching","null","training","<div style=""color:darkgreen; font-size:60px"">Well done!</div>","addition","","","","","","","","","","","","","","","","","","","","","","","","","","","","","","","","",""
"","","","","","survey-text","69","360806","0.0-69.0","A2YB18JHC2C7GF","2022-05-19T09:15:18.725Z","task_switching-rhyme-phon_sim-same_different","","4013.0999999046326","task_switching","{""addition_ans"":""94""}","training","91","addition","94","true","add","","","","","","","","","","","","","","","","","","","","","","","","","","","","","",""
"","","","","","html-keyboard-response","70","361825","0.0-70.0","A2YB18JHC2C7GF","2022-05-19T09:15:18.725Z","task_switching-rhyme-phon_sim-same_different","","null","task_switching","null","training","<div style=""color:darkgreen; font-size:60px"">Well done!</div>","addition","","","","","","","","","","","","","","","","","","","","","","","","","","","","","","","","",""
"","","","","","survey-text","71","365622","0.0-71.0","A2YB18JHC2C7GF","2022-05-19T09:15:18.725Z","task_switching-rhyme-phon_sim-same_different","","3793.7000000476837","task_switching","{""addition_ans"":""79""}","training","76","addition","79","true","add","","","","","","","","","","","","","","","","","","","","","","","","","","","","","",""
"","","","","","html-keyboard-response","72","366638","0.0-72.0","A2YB18JHC2C7GF","2022-05-19T09:15:18.725Z","task_switching-rhyme-phon_sim-same_different","","null","task_switching","null","training","<div style=""color:darkgreen; font-size:60px"">Well done!</div>","addition","","","","","","","","","","","","","","","","","","","","","","","","","","","","","","","","",""
"","","","","","survey-text","73","370694","0.0-73.0","A2YB18JHC2C7GF","2022-05-19T09:15:18.725Z","task_switching-rhyme-phon_sim-same_different","","4052.300000190735","task_switching","{""addition_ans"":""57""}","training","54","addition","57","true","add","","","","","","","","","","","","","","","","","","","","","","","","","","","","","",""
"","","","","","html-keyboard-response","74","371700","0.0-74.0","A2YB18JHC2C7GF","2022-05-19T09:15:18.725Z","task_switching-rhyme-phon_sim-same_different","","null","task_switching","null","training","<div style=""color:darkgreen; font-size:60px"">Well done!</div>","addition","","","","","","","","","","","","","","","","","","","","","","","","","","","","","","","","",""
"","","","","","survey-text","75","376422","0.0-75.0","A2YB18JHC2C7GF","2022-05-19T09:15:18.725Z","task_switching-rhyme-phon_sim-same_different","","4716.899999856949","task_switching","{""addition_ans"":""24""}","training","21","addition","24","true","add","","","","","","","","","","","","","","","","","","","","","","","","","","","","","",""
"","","","","","html-keyboard-response","76","377433","0.0-76.0","A2YB18JHC2C7GF","2022-05-19T09:15:18.725Z","task_switching-rhyme-phon_sim-same_different","","null","task_switching","null","training","<div style=""color:darkgreen; font-size:60px"">Well done!</div>","addition","","","","","","","","","","","","","","","","","","","","","","","","","","","","","","","","",""
"","","","","","instructions","77","387478","0.0-77.0","A2YB18JHC2C7GF","2022-05-19T09:15:18.725Z","task_switching-rhyme-phon_sim-same_different","[{""page_index"":0,""viewing_time"":10044.099999904633}]","10044.5","task_switching","","","","","","","","","","","","","","","","","","","","","","","","","","","","","","","","","","","","",""
"","","","","","survey-text","78","392382","0.0-78.0","A2YB18JHC2C7GF","2022-05-19T09:15:18.725Z","task_switching-rhyme-phon_sim-same_different","","4902.200000047684","task_switching","{""addition_ans"":""79""}","experiment","76","addition","79","true","add","","","","","","","","","","","","","","","","","","","","","","","","","","","","","",""
"","","","","","survey-text","79","397358","0.0-79.0","A2YB18JHC2C7GF","2022-05-19T09:15:18.725Z","task_switching-rhyme-phon_sim-same_different","","4973.300000190735","task_switching","{""addition_ans"":""26""}","experiment","23","addition","26","true","add","","","","","","","","","","","","","","","","","","","","","","","","","","","","","",""
"","","","","","survey-text","80","401710","0.0-80.0","A2YB18JHC2C7GF","2022-05-19T09:15:18.725Z","task_switching-rhyme-phon_sim-same_different","","4349.099999904633","task_switching","{""addition_ans"":""49""}","experiment","46","addition","49","true","add","","","","","","","","","","","","","","","","","","","","","","","","","","","","","",""
"","","","","","survey-text","81","405966","0.0-81.0","A2YB18JHC2C7GF","2022-05-19T09:15:18.725Z","task_switching-rhyme-phon_sim-same_different","","4252.699999809265","task_switching","{""addition_ans"":""25""}","experiment","22","addition","25","true","add","","","","","","","","","","","","","","","","","","","","","","","","","","","","","",""
"","","","","","survey-text","82","410414","0.0-82.0","A2YB18JHC2C7GF","2022-05-19T09:15:18.725Z","task_switching-rhyme-phon_sim-same_different","","4445.5","task_switching","{""addition_ans"":""76""}","experiment","73","addition","76","true","add","","","","","","","","","","","","","","","","","","","","","","","","","","","","","",""
"","","","","","survey-text","83","414974","0.0-83.0","A2YB18JHC2C7GF","2022-05-19T09:15:18.725Z","task_switching-rhyme-phon_sim-same_different","","4557.299999952316","task_switching","{""addition_ans"":""61""}","experiment","58","addition","61","true","add","","","","","","","","","","","","","","","","","","","","","","","","","","","","","",""
"","","","","","survey-text","84","418918","0.0-84.0","A2YB18JHC2C7GF","2022-05-19T09:15:18.725Z","task_switching-rhyme-phon_sim-same_different","","3941.100000143051","task_switching","{""addition_ans"":""15""}","experiment","12","addition","15","true","add","","","","","","","","","","","","","","","","","","","","","","","","","","","","","",""
"","","","","","survey-text","85","423566","0.0-85.0","A2YB18JHC2C7GF","2022-05-19T09:15:18.725Z","task_switching-rhyme-phon_sim-same_different","","4645.599999904633","task_switching","{""addition_ans"":""95""}","experiment","92","addition","95","true","add","","","","","","","","","","","","","","","","","","","","","","","","","","","","","",""
"","","","","","survey-text","86","427526","0.0-86.0","A2YB18JHC2C7GF","2022-05-19T09:15:18.725Z","task_switching-rhyme-phon_sim-same_different","","3957.2999999523163","task_switching","{""addition_ans"":""68""}","experiment","65","addition","68","true","add","","","","","","","","","","","","","","","","","","","","","","","","","","","","","",""
"","","","","","survey-text","87","431686","0.0-87.0","A2YB18JHC2C7GF","2022-05-19T09:15:18.725Z","task_switching-rhyme-phon_sim-same_different","","4157","task_switching","{""addition_ans"":""71""}","experiment","68","addition","71","true","add","","","","","","","","","","","","","","","","","","","","","","","","","","","","","",""
"","","","","","survey-text","88","435054","0.0-88.0","A2YB18JHC2C7GF","2022-05-19T09:15:18.725Z","task_switching-rhyme-phon_sim-same_different","","3365.5","task_switching","{""addition_ans"":""77""}","experiment","74","addition","77","true","add","","","","","","","","","","","","","","","","","","","","","","","","","","","","","",""
"","","","","","survey-text","89","439510","0.0-89.0","A2YB18JHC2C7GF","2022-05-19T09:15:18.725Z","task_switching-rhyme-phon_sim-same_different","","4453.5","task_switching","{""addition_ans"":""60""}","experiment","57","addition","60","true","add","","","","","","","","","","","","","","","","","","","","","","","","","","","","","",""
"","","","","","survey-text","90","444470","0.0-90.0","A2YB18JHC2C7GF","2022-05-19T09:15:18.725Z","task_switching-rhyme-phon_sim-same_different","","4956.299999952316","task_switching","{""addition_ans"":""58""}","experiment","55","addition","58","true","add","","","","","","","","","","","","","","","","","","","","","","","","","","","","","",""
"","","","","","survey-text","91","449366","0.0-91.0","A2YB18JHC2C7GF","2022-05-19T09:15:18.725Z","task_switching-rhyme-phon_sim-same_different","","4892.800000190735","task_switching","{""addition_ans"":""33""}","experiment","30","addition","33","true","add","","","","","","","","","","","","","","","","","","","","","","","","","","","","","",""
"","","","","","survey-text","92","452342","0.0-92.0","A2YB18JHC2C7GF","2022-05-19T09:15:18.725Z","task_switching-rhyme-phon_sim-same_different","","2973.0999999046326","task_switching","{""addition_ans"":""24""}","experiment","21","addition","24","true","add","","","","","","","","","","","","","","","","","","","","","","","","","","","","","",""
"","","","","","survey-text","93","456782","0.0-93.0","A2YB18JHC2C7GF","2022-05-19T09:15:18.725Z","task_switching-rhyme-phon_sim-same_different","","4437.600000143051","task_switching","{""addition_ans"":""30""}","experiment","27","addition","30","true","add","","","","","","","","","","","","","","","","","","","","","","","","","","","","","",""
"","","","","","survey-text","94","460038","0.0-94.0","A2YB18JHC2C7GF","2022-05-19T09:15:18.725Z","task_switching-rhyme-phon_sim-same_different","","3252.899999856949","task_switching","{""addition_ans"":""59""}","experiment","56","addition","59","true","add","","","","","","","","","","","","","","","","","","","","","","","","","","","","","",""
"","","","","","survey-text","95","463230","0.0-95.0","A2YB18JHC2C7GF","2022-05-19T09:15:18.725Z","task_switching-rhyme-phon_sim-same_different","","3189.600000143051","task_switching","{""addition_ans"":""63""}","experiment","60","addition","63","true","add","","","","","","","","","","","","","","","","","","","","","","","","","","","","","",""
"","","","","","survey-text","96","467998","0.0-96.0","A2YB18JHC2C7GF","2022-05-19T09:15:18.725Z","task_switching-rhyme-phon_sim-same_different","","4763.899999856949","task_switching","{""addition_ans"":""72""}","experiment","69","addition","72","true","add","","","","","","","","","","","","","","","","","","","","","","","","","","","","","",""
"","","","","","survey-text","97","470934","0.0-97.0","A2YB18JHC2C7GF","2022-05-19T09:15:18.725Z","task_switching-rhyme-phon_sim-same_different","","2933.600000143051","task_switching","{""addition_ans"":""53""}","experiment","50","addition","53","true","add","","","","","","","","","","","","","","","","","","","","","","","","","","","","","",""
"","","","","","survey-text","98","474166","0.0-98.0","A2YB18JHC2C7GF","2022-05-19T09:15:18.725Z","task_switching-rhyme-phon_sim-same_different","","3229.4000000953674","task_switching","{""addition_ans"":""27""}","experiment","24","addition","27","true","add","","","","","","","","","","","","","","","","","","","","","","","","","","","","","",""
"","","","","","survey-text","99","478206","0.0-99.0","A2YB18JHC2C7GF","2022-05-19T09:15:18.725Z","task_switching-rhyme-phon_sim-same_different","","4037.0999999046326","task_switching","{""addition_ans"":""31""}","experiment","28","addition","31","true","add","","","","","","","","","","","","","","","","","","","","","","","","","","","","","",""
"","","","","","survey-text","100","482630","0.0-100.0","A2YB18JHC2C7GF","2022-05-19T09:15:18.725Z","task_switching-rhyme-phon_sim-same_different","","4421.299999952316","task_switching","{""addition_ans"":""84""}","experiment","81","addition","84","true","add","","","","","","","","","","","","","","","","","","","","","","","","","","","","","",""
"","","","","","survey-text","101","485390","0.0-101.0","A2YB18JHC2C7GF","2022-05-19T09:15:18.725Z","task_switching-rhyme-phon_sim-same_different","","2757","task_switching","{""addition_ans"":""99""}","experiment","96","addition","99","true","add","","","","","","","","","","","","","","","","","","","","","","","","","","","","","",""
"","","","","","survey-text","102","487814","0.0-102.0","A2YB18JHC2C7GF","2022-05-19T09:15:18.725Z","task_switching-rhyme-phon_sim-same_different","","2421.7999999523163","task_switching","{""addition_ans"":""45""}","experiment","42","addition","45","true","add","","","","","","","","","","","","","","","","","","","","","","","","","","","","","",""
"","","","","","survey-text","103","492982","0.0-103.0","A2YB18JHC2C7GF","2022-05-19T09:15:18.725Z","task_switching-rhyme-phon_sim-same_different","","5165.399999856949","task_switching","{""addition_ans"":""82""}","experiment","79","addition","82","true","add","","","","","","","","","","","","","","","","","","","","","","","","","","","","","",""
"","","","","","survey-text","104","496206","0.0-104.0","A2YB18JHC2C7GF","2022-05-19T09:15:18.725Z","task_switching-rhyme-phon_sim-same_different","","3221.2000000476837","task_switching","{""addition_ans"":""66""}","experiment","63","addition","66","true","add","","","","","","","","","","","","","","","","","","","","","","","","","","","","","",""
"","","","","","survey-text","105","498982","0.0-105.0","A2YB18JHC2C7GF","2022-05-19T09:15:18.725Z","task_switching-rhyme-phon_sim-same_different","","2773.4000000953674","task_switching","{""addition_ans"":""16""}","experiment","13","addition","16","true","add","","","","","","","","","","","","","","","","","","","","","","","","","","","","","",""
"","","","","","survey-text","106","502374","0.0-106.0","A2YB18JHC2C7GF","2022-05-19T09:15:18.725Z","task_switching-rhyme-phon_sim-same_different","","3389.5","task_switching","{""addition_ans"":""98""}","experiment","95","addition","98","true","add","","","","","","","","","","","","","","","","","","","","","","","","","","","","","",""
"","","","","","survey-text","107","506062","0.0-107.0","A2YB18JHC2C7GF","2022-05-19T09:15:18.725Z","task_switching-rhyme-phon_sim-same_different","","3684.9000000953674","task_switching","{""addition_ans"":""40""}","experiment","37","addition","40","true","add","","","","","","","","","","","","","","","","","","","","","","","","","","","","","",""
"","","","","","instructions","108","518750","0.0-108.0","A2YB18JHC2C7GF","2022-05-19T09:15:18.725Z","task_switching-rhyme-phon_sim-same_different","[{""page_index"":0,""viewing_time"":12687.400000095367}]","12687.700000047684","task_switching","","","","","","","","","","","","","","","","","","","","","","","","","","","","","","","","","","","","",""
"","","","","","survey-text","109","543438","0.0-109.0","A2YB18JHC2C7GF","2022-05-19T09:15:18.725Z","task_switching-rhyme-phon_sim-same_different","","24685.299999952316","task_switching","{""uncued_switch_ans"":""41""}","training","38","uncued_switch","41","true","add","0","","","","","","","","","","","","","","","","","","","","","","","","","","","","",""
"","","","","","html-keyboard-response","110","544444","0.0-110.0","A2YB18JHC2C7GF","2022-05-19T09:15:18.725Z","task_switching-rhyme-phon_sim-same_different","","null","task_switching","null","training","<div style=""color:darkgreen; font-size:60px"">Well done!</div>","uncued_switch","","","","","","","","","","","","","","","","","","","","","","","","","","","","","","","","",""
"","","","","","survey-text","111","547110","0.0-111.0","A2YB18JHC2C7GF","2022-05-19T09:15:18.725Z","task_switching-rhyme-phon_sim-same_different","","2662.300000190735","task_switching","{""uncued_switch_ans"":""24""}","training","21","uncued_switch","24","false","subtract","1","","","","","","","","","","","","","","","","","","","","","","","","","","","","",""
"","","","","","html-keyboard-response","112","552114","0.0-112.0","A2YB18JHC2C7GF","2022-05-19T09:15:18.725Z","task_switching-rhyme-phon_sim-same_different","","null","task_switching","null","training","<div style=""color:darkred; font-size:40px"">That was a <b>subtract</b> trial.<p> Correct answer: 18.</p><p> Next trial add 3.</p></div>","uncued_switch","","","","","","","","","","","","","","","","","","","","","","","","","","","","","","","","",""
"","","","","","survey-text","113","556358","0.0-113.0","A2YB18JHC2C7GF","2022-05-19T09:15:18.725Z","task_switching-rhyme-phon_sim-same_different","","4239.399999856949","task_switching","{""uncued_switch_ans"":""72""}","training","69","uncued_switch","72","true","add","2","","","","","","","","","","","","","","","","","","","","","","","","","","","","",""
"","","","","","html-keyboard-response","114","557368","0.0-114.0","A2YB18JHC2C7GF","2022-05-19T09:15:18.725Z","task_switching-rhyme-phon_sim-same_different","","null","task_switching","null","training","<div style=""color:darkgreen; font-size:60px"">Well done!</div>","uncued_switch","","","","","","","","","","","","","","","","","","","","","","","","","","","","","","","","",""
"","","","","","survey-text","115","561614","0.0-115.0","A2YB18JHC2C7GF","2022-05-19T09:15:18.725Z","task_switching-rhyme-phon_sim-same_different","","4241.400000095367","task_switching","{""uncued_switch_ans"":""86""}","training","83","uncued_switch","86","false","subtract","3","","","","","","","","","","","","","","","","","","","","","","","","","","","","",""
"","","","","","html-keyboard-response","116","566629","0.0-116.0","A2YB18JHC2C7GF","2022-05-19T09:15:18.725Z","task_switching-rhyme-phon_sim-same_different","","null","task_switching","null","training","<div style=""color:darkred; font-size:40px"">That was a <b>subtract</b> trial.<p> Correct answer: 80.</p><p> Next trial add 3.</p></div>","uncued_switch","","","","","","","","","","","","","","","","","","","","","","","","","","","","","","","","",""
"","","","","","survey-text","117","569461","0.0-117.0","A2YB18JHC2C7GF","2022-05-19T09:15:18.725Z","task_switching-rhyme-phon_sim-same_different","","2826.399999856949","task_switching","{""uncued_switch_ans"":""46""}","training","43","uncued_switch","46","true","add","4","","","","","","","","","","","","","","","","","","","","","","","","","","","","",""
"","","","","","html-keyboard-response","118","570472","0.0-118.0","A2YB18JHC2C7GF","2022-05-19T09:15:18.725Z","task_switching-rhyme-phon_sim-same_different","","null","task_switching","null","training","<div style=""color:darkgreen; font-size:60px"">Well done!</div>","uncued_switch","","","","","","","","","","","","","","","","","","","","","","","","","","","","","","","","",""
"","","","","","survey-text","119","574181","0.0-119.0","A2YB18JHC2C7GF","2022-05-19T09:15:18.725Z","task_switching-rhyme-phon_sim-same_different","","3705.300000190735","task_switching","{""uncued_switch_ans"":""46""}","training","49","uncued_switch","46","true","subtract","5","","","","","","","","","","","","","","","","","","","","","","","","","","","","",""
"","","","","","html-keyboard-response","120","575185","0.0-120.0","A2YB18JHC2C7GF","2022-05-19T09:15:18.725Z","task_switching-rhyme-phon_sim-same_different","","null","task_switching","null","training","<div style=""color:darkgreen; font-size:60px"">Well done!</div>","uncued_switch","","","","","","","","","","","","","","","","","","","","","","","","","","","","","","","","",""
"","","","","","survey-text","121","582517","0.0-121.0","A2YB18JHC2C7GF","2022-05-19T09:15:18.725Z","task_switching-rhyme-phon_sim-same_different","","7327.799999952316","task_switching","{""uncued_switch_ans"":""51""}","training","54","uncued_switch","51","false","add","6","","","","","","","","","","","","","","","","","","","","","","","","","","","","",""
"","","","","","html-keyboard-response","122","587522","0.0-122.0","A2YB18JHC2C7GF","2022-05-19T09:15:18.725Z","task_switching-rhyme-phon_sim-same_different","","null","task_switching","null","training","<div style=""color:darkred; font-size:40px"">That was an <b>add</b> trial.<p> Correct answer: 57.</p><p> Next trial subtract 3.</p></div>","uncued_switch","","","","","","","","","","","","","","","","","","","","","","","","","","","","","","","","",""
"","","","","","survey-text","123","591261","0.0-123.0","A2YB18JHC2C7GF","2022-05-19T09:15:18.725Z","task_switching-rhyme-phon_sim-same_different","","3734","task_switching","{""uncued_switch_ans"":""61""}","training","64","uncued_switch","61","true","subtract","7","","","","","","","","","","","","","","","","","","","","","","","","","","","","",""
"","","","","","html-keyboard-response","124","592274","0.0-124.0","A2YB18JHC2C7GF","2022-05-19T09:15:18.725Z","task_switching-rhyme-phon_sim-same_different","","null","task_switching","null","training","<div style=""color:darkgreen; font-size:60px"">Well done!</div>","uncued_switch","","","","","","","","","","","","","","","","","","","","","","","","","","","","","","","","",""
"","","","","","survey-text","125","597533","0.0-125.0","A2YB18JHC2C7GF","2022-05-19T09:15:18.725Z","task_switching-rhyme-phon_sim-same_different","","5254.899999856949","task_switching","{""uncued_switch_ans"":""82""}","training","79","uncued_switch","82","true","add","8","","","","","","","","","","","","","","","","","","","","","","","","","","","","",""
"","","","","","html-keyboard-response","126","598542","0.0-126.0","A2YB18JHC2C7GF","2022-05-19T09:15:18.725Z","task_switching-rhyme-phon_sim-same_different","","null","task_switching","null","training","<div style=""color:darkgreen; font-size:60px"">Well done!</div>","uncued_switch","","","","","","","","","","","","","","","","","","","","","","","","","","","","","","","","",""
"","","","","","survey-text","127","602133","0.0-127.0","A2YB18JHC2C7GF","2022-05-19T09:15:18.725Z","task_switching-rhyme-phon_sim-same_different","","3587.7999999523163","task_switching","{""uncued_switch_ans"":""93""}","training","96","uncued_switch","93","true","subtract","9","","","","","","","","","","","","","","","","","","","","","","","","","","","","",""
"","","","","","html-keyboard-response","128","603151","0.0-128.0","A2YB18JHC2C7GF","2022-05-19T09:15:18.725Z","task_switching-rhyme-phon_sim-same_different","","null","task_switching","null","training","<div style=""color:darkgreen; font-size:60px"">Well done!</div>","uncued_switch","","","","","","","","","","","","","","","","","","","","","","","","","","","","","","","","",""
"","","","","","instructions","129","606501","0.0-129.0","A2YB18JHC2C7GF","2022-05-19T09:15:18.725Z","task_switching-rhyme-phon_sim-same_different","[{""page_index"":0,""viewing_time"":3349.5999999046326}]","3349.9000000953674","task_switching","","","","","","","","","","","","","","","","","","","","","","","","","","","","","","","","","","","","",""
"","","","","","survey-text","130","609789","0.0-130.0","A2YB18JHC2C7GF","2022-05-19T09:15:18.725Z","task_switching-rhyme-phon_sim-same_different","","3286","task_switching","{""uncued_switch_ans"":""23""}","experiment","20","uncued_switch","23","true","add","0","","","","","","","","","","","","","","","","","","","","","","","","","","","","",""
"","","","","","survey-text","131","612213","0.0-131.0","A2YB18JHC2C7GF","2022-05-19T09:15:18.725Z","task_switching-rhyme-phon_sim-same_different","","2421.2000000476837","task_switching","{""uncued_switch_ans"":""12""}","experiment","15","uncued_switch","12","true","subtract","1","","","","","","","","","","","","","","","","","","","","","","","","","","","","",""
"","","","","","survey-text","132","614949","0.0-132.0","A2YB18JHC2C7GF","2022-05-19T09:15:18.725Z","task_switching-rhyme-phon_sim-same_different","","2733.2999999523163","task_switching","{""uncued_switch_ans"":""37""}","experiment","34","uncued_switch","37","true","add","2","","","","","","","","","","","","","","","","","","","","","","","","","","","","",""
"","","","","","survey-text","133","617861","0.0-133.0","A2YB18JHC2C7GF","2022-05-19T09:15:18.725Z","task_switching-rhyme-phon_sim-same_different","","2909.2999999523163","task_switching","{""uncued_switch_ans"":""76""}","experiment","79","uncued_switch","76","true","subtract","3","","","","","","","","","","","","","","","","","","","","","","","","","","","","",""
"","","","","","survey-text","134","621269","0.0-134.0","A2YB18JHC2C7GF","2022-05-19T09:15:18.725Z","task_switching-rhyme-phon_sim-same_different","","3405.4000000953674","task_switching","{""uncued_switch_ans"":""94""}","experiment","91","uncued_switch","94","true","add","4","","","","","","","","","","","","","","","","","","","","","","","","","","","","",""
"","","","","","survey-text","135","625765","0.0-135.0","A2YB18JHC2C7GF","2022-05-19T09:15:18.725Z","task_switching-rhyme-phon_sim-same_different","","4492.899999856949","task_switching","{""uncued_switch_ans"":""53""}","experiment","56","uncued_switch","53","true","subtract","5","","","","","","","","","","","","","","","","","","","","","","","","","","","","",""
"","","","","","survey-text","136","631085","0.0-136.0","A2YB18JHC2C7GF","2022-05-19T09:15:18.725Z","task_switching-rhyme-phon_sim-same_different","","5317.299999952316","task_switching","{""uncued_switch_ans"":""37""}","experiment","40","uncued_switch","37","false","add","6","","","","","","","","","","","","","","","","","","","","","","","","","","","","",""
"","","","","","survey-text","137","634293","0.0-137.0","A2YB18JHC2C7GF","2022-05-19T09:15:18.725Z","task_switching-rhyme-phon_sim-same_different","","3205","task_switching","{""uncued_switch_ans"":""98""}","experiment","95","uncued_switch","98","false","subtract","7","","","","","","","","","","","","","","","","","","","","","","","","","","","","",""
"","","","","","survey-text","138","637813","0.0-138.0","A2YB18JHC2C7GF","2022-05-19T09:15:18.725Z","task_switching-rhyme-phon_sim-same_different","","3517.2000000476837","task_switching","{""uncued_switch_ans"":""71""}","experiment","74","uncued_switch","71","false","add","8","","","","","","","","","","","","","","","","","","","","","","","","","","","","",""
"","","","","","survey-text","139","641349","0.0-139.0","A2YB18JHC2C7GF","2022-05-19T09:15:18.725Z","task_switching-rhyme-phon_sim-same_different","","3532.5999999046326","task_switching","{""uncued_switch_ans"":""95""}","experiment","92","uncued_switch","95","false","subtract","9","","","","","","","","","","","","","","","","","","","","","","","","","","","","",""
"","","","","","survey-text","140","661677","0.0-140.0","A2YB18JHC2C7GF","2022-05-19T09:15:18.725Z","task_switching-rhyme-phon_sim-same_different","","20325.400000095367","task_switching","{""uncued_switch_ans"":""90""}","experiment","93","uncued_switch","90","false","add","10","","","","","","","","","","","","","","","","","","","","","","","","","","","","",""
"","","","","","survey-text","141","664597","0.0-141.0","A2YB18JHC2C7GF","2022-05-19T09:15:18.725Z","task_switching-rhyme-phon_sim-same_different","","2916.7999999523163","task_switching","{""uncued_switch_ans"":""17""}","experiment","14","uncued_switch","17","false","subtract","11","","","","","","","","","","","","","","","","","","","","","","","","","","","","",""
"","","","","","survey-text","142","667677","0.0-142.0","A2YB18JHC2C7GF","2022-05-19T09:15:18.725Z","task_switching-rhyme-phon_sim-same_different","","3077.4000000953674","task_switching","{""uncued_switch_ans"":""25""}","experiment","28","uncued_switch","25","false","add","12","","","","","","","","","","","","","","","","","","","","","","","","","","","","",""
"","","","","","survey-text","143","670469","0.0-143.0","A2YB18JHC2C7GF","2022-05-19T09:15:18.725Z","task_switching-rhyme-phon_sim-same_different","","2789.4000000953674","task_switching","{""uncued_switch_ans"":""69""}","experiment","66","uncued_switch","69","false","subtract","13","","","","","","","","","","","","","","","","","","","","","","","","","","","","",""
"","","","","","survey-text","144","674477","0.0-144.0","A2YB18JHC2C7GF","2022-05-19T09:15:18.725Z","task_switching-rhyme-phon_sim-same_different","","4005.300000190735","task_switching","{""uncued_switch_ans"":""67""}","experiment","70","uncued_switch","67","false","add","14","","","","","","","","","","","","","","","","","","","","","","","","","","","","",""
"","","","","","survey-text","145","677973","0.0-145.0","A2YB18JHC2C7GF","2022-05-19T09:15:18.725Z","task_switching-rhyme-phon_sim-same_different","","3493.100000143051","task_switching","{""uncued_switch_ans"":""58""}","experiment","55","uncued_switch","58","false","subtract","15","","","","","","","","","","","","","","","","","","","","","","","","","","","","",""
"","","","","","survey-text","146","681541","0.0-146.0","A2YB18JHC2C7GF","2022-05-19T09:15:18.725Z","task_switching-rhyme-phon_sim-same_different","","3564.2000000476837","task_switching","{""uncued_switch_ans"":""82""}","experiment","85","uncued_switch","82","false","add","16","","","","","","","","","","","","","","","","","","","","","","","","","","","","",""
"","","","","","survey-text","147","684509","0.0-147.0","A2YB18JHC2C7GF","2022-05-19T09:15:18.725Z","task_switching-rhyme-phon_sim-same_different","","2964.9000000953674","task_switching","{""uncued_switch_ans"":""70""}","experiment","67","uncued_switch","70","false","subtract","17","","","","","","","","","","","","","","","","","","","","","","","","","","","","",""
"","","","","","survey-text","148","686525","0.0-148.0","A2YB18JHC2C7GF","2022-05-19T09:15:18.725Z","task_switching-rhyme-phon_sim-same_different","","2013.0999999046326","task_switching","{""uncued_switch_ans"":""33""}","experiment","36","uncued_switch","33","false","add","18","","","","","","","","","","","","","","","","","","","","","","","","","","","","",""
"","","","","","survey-text","149","690173","0.0-149.0","A2YB18JHC2C7GF","2022-05-19T09:15:18.725Z","task_switching-rhyme-phon_sim-same_different","","3645.399999856949","task_switching","{""uncued_switch_ans"":""19""}","experiment","16","uncued_switch","19","false","subtract","19","","","","","","","","","","","","","","","","","","","","","","","","","","","","",""
"","","","","","survey-text","150","694301","0.0-150.0","A2YB18JHC2C7GF","2022-05-19T09:15:18.725Z","task_switching-rhyme-phon_sim-same_different","","4125.200000047684","task_switching","{""uncued_switch_ans"":""62""}","experiment","65","uncued_switch","62","false","add","20","","","","","","","","","","","","","","","","","","","","","","","","","","","","",""
"","","","","","survey-text","151","696557","0.0-151.0","A2YB18JHC2C7GF","2022-05-19T09:15:18.725Z","task_switching-rhyme-phon_sim-same_different","","2253.2000000476837","task_switching","{""uncued_switch_ans"":""55""}","experiment","52","uncued_switch","55","false","subtract","21","","","","","","","","","","","","","","","","","","","","","","","","","","","","",""
"","","","","","survey-text","152","700157","0.0-152.0","A2YB18JHC2C7GF","2022-05-19T09:15:18.725Z","task_switching-rhyme-phon_sim-same_different","","3597.399999856949","task_switching","{""uncued_switch_ans"":""74""}","experiment","77","uncued_switch","74","false","add","22","","","","","","","","","","","","","","","","","","","","","","","","","","","","",""
"","","","","","survey-text","153","702933","0.0-153.0","A2YB18JHC2C7GF","2022-05-19T09:15:18.725Z","task_switching-rhyme-phon_sim-same_different","","2773.2000000476837","task_switching","{""uncued_switch_ans"":""44""}","experiment","47","uncued_switch","44","true","subtract","23","","","","","","","","","","","","","","","","","","","","","","","","","","","","",""
"","","","","","survey-text","154","706189","0.0-154.0","A2YB18JHC2C7GF","2022-05-19T09:15:18.725Z","task_switching-rhyme-phon_sim-same_different","","3253.7000000476837","task_switching","{""uncued_switch_ans"":""51""}","experiment","48","uncued_switch","51","true","add","24","","","","","","","","","","","","","","","","","","","","","","","","","","","","",""
"","","","","","survey-text","155","712173","0.0-155.0","A2YB18JHC2C7GF","2022-05-19T09:15:18.725Z","task_switching-rhyme-phon_sim-same_different","","5981.100000143051","task_switching","{""uncued_switch_ans"":""39""}","experiment","42","uncued_switch","39","true","subtract","25","","","","","","","","","","","","","","","","","","","","","","","","","","","","",""
"","","","","","survey-text","156","715173","0.0-156.0","A2YB18JHC2C7GF","2022-05-19T09:15:18.725Z","task_switching-rhyme-phon_sim-same_different","","2997","task_switching","{""uncued_switch_ans"":""90""}","experiment","87","uncued_switch","90","true","add","26","","","","","","","","","","","","","","","","","","","","","","","","","","","","",""
"","","","","","survey-text","157","717597","0.0-157.0","A2YB18JHC2C7GF","2022-05-19T09:15:18.725Z","task_switching-rhyme-phon_sim-same_different","","2421.399999856949","task_switching","{""uncued_switch_ans"":""36""}","experiment","39","uncued_switch","36","true","subtract","27","","","","","","","","","","","","","","","","","","","","","","","","","","","","",""
"","","","","","survey-text","158","720749","0.0-158.0","A2YB18JHC2C7GF","2022-05-19T09:15:18.725Z","task_switching-rhyme-phon_sim-same_different","","3149.5","task_switching","{""uncued_switch_ans"":""76""}","experiment","73","uncued_switch","76","true","add","28","","","","","","","","","","","","","","","","","","","","","","","","","","","","",""
"","","","","","survey-text","159","725021","0.0-159.0","A2YB18JHC2C7GF","2022-05-19T09:15:18.725Z","task_switching-rhyme-phon_sim-same_different","","4268.599999904633","task_switching","{""uncued_switch_ans"":""29""}","experiment","33","uncued_switch","29","false","subtract","29","","","","","","","","","","","","","","","","","","","","","","","","","","","","",""
"","","","","","instructions","160","743156","0.0-160.0","A2YB18JHC2C7GF","2022-05-19T09:15:18.725Z","task_switching-rhyme-phon_sim-same_different","[{""page_index"":0,""viewing_time"":18134.599999904633}]","18135.099999904633","task_switching","","","","","","","","","","","","","","","","","","","","","","","","","","","","","","","","","","","","",""
"","","","","","survey-text","161","747285","0.0-161.0","A2YB18JHC2C7GF","2022-05-19T09:15:18.725Z","task_switching-rhyme-phon_sim-same_different","","4125.700000047684","task_switching","{""colorcue_switch_ans"":""79""}","training","76","colorcue_switch","79","true","add","0","red","","","","","","","","","","","","","","","","","","","","","","","","","","","",""
"","","","","","html-keyboard-response","162","748302","0.0-162.0","A2YB18JHC2C7GF","2022-05-19T09:15:18.725Z","task_switching-rhyme-phon_sim-same_different","","null","task_switching","null","training","<div style=""color:darkgreen; font-size:60px"">Well done!</div>","colorcue_switch","","","","","","","","","","","","","","","","","","","","","","","","","","","","","","","","",""
"","","","","","survey-text","163","752373","0.0-163.0","A2YB18JHC2C7GF","2022-05-19T09:15:18.725Z","task_switching-rhyme-phon_sim-same_different","","4065.899999856949","task_switching","{""colorcue_switch_ans"":""61""}","training","64","colorcue_switch","61","true","subtract","1","blue","","","","","","","","","","","","","","","","","","","","","","","","","","","",""
"","","","","","html-keyboard-response","164","753378","0.0-164.0","A2YB18JHC2C7GF","2022-05-19T09:15:18.725Z","task_switching-rhyme-phon_sim-same_different","","null","task_switching","null","training","<div style=""color:darkgreen; font-size:60px"">Well done!</div>","colorcue_switch","","","","","","","","","","","","","","","","","","","","","","","","","","","","","","","","",""
"","","","","","survey-text","165","756508","0.0-165.0","A2YB18JHC2C7GF","2022-05-19T09:15:18.725Z","task_switching-rhyme-phon_sim-same_different","","3126.5999999046326","task_switching","{""colorcue_switch_ans"":""70""}","training","67","colorcue_switch","70","true","add","2","red","","","","","","","","","","","","","","","","","","","","","","","","","","","",""
"","","","","","html-keyboard-response","166","757528","0.0-166.0","A2YB18JHC2C7GF","2022-05-19T09:15:18.725Z","task_switching-rhyme-phon_sim-same_different","","null","task_switching","null","training","<div style=""color:darkgreen; font-size:60px"">Well done!</div>","colorcue_switch","","","","","","","","","","","","","","","","","","","","","","","","","","","","","","","","",""
"","","","","","survey-text","167","762524","0.0-167.0","A2YB18JHC2C7GF","2022-05-19T09:15:18.725Z","task_switching-rhyme-phon_sim-same_different","","4992.299999952316","task_switching","{""colorcue_switch_ans"":""83""}","training","86","colorcue_switch","83","true","subtract","3","blue","","","","","","","","","","","","","","","","","","","","","","","","","","","",""
"","","","","","html-keyboard-response","168","763544","0.0-168.0","A2YB18JHC2C7GF","2022-05-19T09:15:18.725Z","task_switching-rhyme-phon_sim-same_different","","null","task_switching","null","training","<div style=""color:darkgreen; font-size:60px"">Well done!</div>","colorcue_switch","","","","","","","","","","","","","","","","","","","","","","","","","","","","","","","","",""
"","","","","","survey-text","169","766676","0.0-169.0","A2YB18JHC2C7GF","2022-05-19T09:15:18.725Z","task_switching-rhyme-phon_sim-same_different","","3128.2999999523163","task_switching","{""colorcue_switch_ans"":""69""}","training","63","colorcue_switch","69","false","add","4","red","","","","","","","","","","","","","","","","","","","","","","","","","","","",""
"","","","","","html-keyboard-response","170","771683","0.0-170.0","A2YB18JHC2C7GF","2022-05-19T09:15:18.725Z","task_switching-rhyme-phon_sim-same_different","","null","task_switching","null","training","<div style=""color:darkred; font-size:40px"">Right direction but be careful with the numbers.<p> Correct answer: 66.</p><p> Next trial subtract 3.</p></div>","colorcue_switch","","","","","","","","","","","","","","","","","","","","","","","","","","","","","","","","",""
"","","","","","survey-text","171","775436","0.0-171.0","A2YB18JHC2C7GF","2022-05-19T09:15:18.725Z","task_switching-rhyme-phon_sim-same_different","","3747.7000000476837","task_switching","{""colorcue_switch_ans"":""39""}","training","42","colorcue_switch","39","true","subtract","5","blue","","","","","","","","","","","","","","","","","","","","","","","","","","","",""
"","","","","","html-keyboard-response","172","776443","0.0-172.0","A2YB18JHC2C7GF","2022-05-19T09:15:18.725Z","task_switching-rhyme-phon_sim-same_different","","null","task_switching","null","training","<div style=""color:darkgreen; font-size:60px"">Well done!</div>","colorcue_switch","","","","","","","","","","","","","","","","","","","","","","","","","","","","","","","","",""
"","","","","","survey-text","173","780908","0.0-173.0","A2YB18JHC2C7GF","2022-05-19T09:15:18.725Z","task_switching-rhyme-phon_sim-same_different","","4460.899999856949","task_switching","{""colorcue_switch_ans"":""27""}","training","24","colorcue_switch","27","true","add","6","red","","","","","","","","","","","","","","","","","","","","","","","","","","","",""
"","","","","","html-keyboard-response","174","781919","0.0-174.0","A2YB18JHC2C7GF","2022-05-19T09:15:18.725Z","task_switching-rhyme-phon_sim-same_different","","null","task_switching","null","training","<div style=""color:darkgreen; font-size:60px"">Well done!</div>","colorcue_switch","","","","","","","","","","","","","","","","","","","","","","","","","","","","","","","","",""
"","","","","","survey-text","175","785036","0.0-175.0","A2YB18JHC2C7GF","2022-05-19T09:15:18.725Z","task_switching-rhyme-phon_sim-same_different","","3112.4000000953674","task_switching","{""colorcue_switch_ans"":""45""}","training","48","colorcue_switch","45","true","subtract","7","blue","","","","","","","","","","","","","","","","","","","","","","","","","","","",""
"","","","","","html-keyboard-response","176","786047","0.0-176.0","A2YB18JHC2C7GF","2022-05-19T09:15:18.725Z","task_switching-rhyme-phon_sim-same_different","","null","task_switching","null","training","<div style=""color:darkgreen; font-size:60px"">Well done!</div>","colorcue_switch","","","","","","","","","","","","","","","","","","","","","","","","","","","","","","","","",""
"","","","","","survey-text","177","790804","0.0-177.0","A2YB18JHC2C7GF","2022-05-19T09:15:18.725Z","task_switching-rhyme-phon_sim-same_different","","4752.200000047684","task_switching","{""colorcue_switch_ans"":""60""}","training","57","colorcue_switch","60","true","add","8","red","","","","","","","","","","","","","","","","","","","","","","","","","","","",""
"","","","","","html-keyboard-response","178","791810","0.0-178.0","A2YB18JHC2C7GF","2022-05-19T09:15:18.725Z","task_switching-rhyme-phon_sim-same_different","","null","task_switching","null","training","<div style=""color:darkgreen; font-size:60px"">Well done!</div>","colorcue_switch","","","","","","","","","","","","","","","","","","","","","","","","","","","","","","","","",""
"","","","","","survey-text","179","796092","0.0-179.0","A2YB18JHC2C7GF","2022-05-19T09:15:18.725Z","task_switching-rhyme-phon_sim-same_different","","4278.100000143051","task_switching","{""colorcue_switch_ans"":""67""}","training","70","colorcue_switch","67","true","subtract","9","blue","","","","","","","","","","","","","","","","","","","","","","","","","","","",""
"","","","","","html-keyboard-response","180","797108","0.0-180.0","A2YB18JHC2C7GF","2022-05-19T09:15:18.725Z","task_switching-rhyme-phon_sim-same_different","","null","task_switching","null","training","<div style=""color:darkgreen; font-size:60px"">Well done!</div>","colorcue_switch","","","","","","","","","","","","","","","","","","","","","","","","","","","","","","","","",""
"","","","","","instructions","181","800188","0.0-181.0","A2YB18JHC2C7GF","2022-05-19T09:15:18.725Z","task_switching-rhyme-phon_sim-same_different","[{""page_index"":0,""viewing_time"":3077.100000143051}]","3077.600000143051","task_switching","","","","","","","","","","","","","","","","","","","","","","","","","","","","","","","","","","","","",""
"","","","","","survey-text","182","804932","0.0-182.0","A2YB18JHC2C7GF","2022-05-19T09:15:18.725Z","task_switching-rhyme-phon_sim-same_different","","4741.700000047684","task_switching","{""colorcue_switch_ans"":""90""}","experiment","87","colorcue_switch","90","true","add","0","red","","","","","","","","","","","","","","","","","","","","","","","","","","","",""
"","","","","","survey-text","183","809236","0.0-183.0","A2YB18JHC2C7GF","2022-05-19T09:15:18.725Z","task_switching-rhyme-phon_sim-same_different","","4301.200000047684","task_switching","{""colorcue_switch_ans"":""52""}","experiment","56","colorcue_switch","52","false","subtract","1","blue","","","","","","","","","","","","","","","","","","","","","","","","","","","",""
"","","","","","survey-text","184","811797","0.0-184.0","A2YB18JHC2C7GF","2022-05-19T09:15:18.725Z","task_switching-rhyme-phon_sim-same_different","","2557","task_switching","{""colorcue_switch_ans"":""38""}","experiment","35","colorcue_switch","38","true","add","2","red","","","","","","","","","","","","","","","","","","","","","","","","","","","",""
"","","","","","survey-text","185","814916","0.0-185.0","A2YB18JHC2C7GF","2022-05-19T09:15:18.725Z","task_switching-rhyme-phon_sim-same_different","","3116.600000143051","task_switching","{""colorcue_switch_ans"":""62""}","experiment","65","colorcue_switch","62","true","subtract","3","blue","","","","","","","","","","","","","","","","","","","","","","","","","","","",""
"","","","","","survey-text","186","817540","0.0-186.0","A2YB18JHC2C7GF","2022-05-19T09:15:18.725Z","task_switching-rhyme-phon_sim-same_different","","2621.2999999523163","task_switching","{""colorcue_switch_ans"":""35""}","experiment","32","colorcue_switch","35","true","add","4","red","","","","","","","","","","","","","","","","","","","","","","","","","","","",""
"","","","","","survey-text","187","824132","0.0-187.0","A2YB18JHC2C7GF","2022-05-19T09:15:18.725Z","task_switching-rhyme-phon_sim-same_different","","6589","task_switching","{""colorcue_switch_ans"":""79""}","experiment","82","colorcue_switch","79","true","subtract","5","blue","","","","","","","","","","","","","","","","","","","","","","","","","","","",""
"","","","","","survey-text","188","827764","0.0-188.0","A2YB18JHC2C7GF","2022-05-19T09:15:18.725Z","task_switching-rhyme-phon_sim-same_different","","3628.7999999523163","task_switching","{""colorcue_switch_ans"":""87""}","experiment","84","colorcue_switch","87","true","add","6","red","","","","","","","","","","","","","","","","","","","","","","","","","","","",""
"","","","","","survey-text","189","830236","0.0-189.0","A2YB18JHC2C7GF","2022-05-19T09:15:18.725Z","task_switching-rhyme-phon_sim-same_different","","2469.0999999046326","task_switching","{""colorcue_switch_ans"":""54""}","experiment","57","colorcue_switch","54","true","subtract","7","blue","","","","","","","","","","","","","","","","","","","","","","","","","","","",""
"","","","","","survey-text","190","833436","0.0-190.0","A2YB18JHC2C7GF","2022-05-19T09:15:18.725Z","task_switching-rhyme-phon_sim-same_different","","3197.2999999523163","task_switching","{""colorcue_switch_ans"":""58""}","experiment","55","colorcue_switch","58","true","add","8","red","","","","","","","","","","","","","","","","","","","","","","","","","","","",""
"","","","","","survey-text","191","836996","0.0-191.0","A2YB18JHC2C7GF","2022-05-19T09:15:18.725Z","task_switching-rhyme-phon_sim-same_different","","3557.600000143051","task_switching","{""colorcue_switch_ans"":""26""}","experiment","29","colorcue_switch","26","true","subtract","9","blue","","","","","","","","","","","","","","","","","","","","","","","","","","","",""
"","","","","","survey-text","192","839396","0.0-192.0","A2YB18JHC2C7GF","2022-05-19T09:15:18.725Z","task_switching-rhyme-phon_sim-same_different","","2397.5","task_switching","{""colorcue_switch_ans"":""45""}","experiment","42","colorcue_switch","45","true","add","10","red","","","","","","","","","","","","","","","","","","","","","","","","","","","",""
"","","","","","survey-text","193","841500","0.0-193.0","A2YB18JHC2C7GF","2022-05-19T09:15:18.725Z","task_switching-rhyme-phon_sim-same_different","","2101.399999856949","task_switching","{""colorcue_switch_ans"":""24""}","experiment","27","colorcue_switch","24","true","subtract","11","blue","","","","","","","","","","","","","","","","","","","","","","","","","","","",""
"","","","","","survey-text","194","845068","0.0-194.0","A2YB18JHC2C7GF","2022-05-19T09:15:18.725Z","task_switching-rhyme-phon_sim-same_different","","3565.199999809265","task_switching","{""colorcue_switch_ans"":""67""}","experiment","64","colorcue_switch","67","true","add","12","red","","","","","","","","","","","","","","","","","","","","","","","","","","","",""
"","","","","","survey-text","195","848436","0.0-195.0","A2YB18JHC2C7GF","2022-05-19T09:15:18.725Z","task_switching-rhyme-phon_sim-same_different","","3365.5999999046326","task_switching","{""colorcue_switch_ans"":""85""}","experiment","88","colorcue_switch","85","true","subtract","13","blue","","","","","","","","","","","","","","","","","","","","","","","","","","","",""
"","","","","","survey-text","196","852356","0.0-196.0","A2YB18JHC2C7GF","2022-05-19T09:15:18.725Z","task_switching-rhyme-phon_sim-same_different","","3917.399999856949","task_switching","{""colorcue_switch_ans"":""96""}","experiment","93","colorcue_switch","96","true","add","14","red","","","","","","","","","","","","","","","","","","","","","","","","","","","",""
"","","","","","survey-text","197","858116","0.0-197.0","A2YB18JHC2C7GF","2022-05-19T09:15:18.725Z","task_switching-rhyme-phon_sim-same_different","","5757.299999952316","task_switching","{""colorcue_switch_ans"":""38""}","experiment","41","colorcue_switch","38","true","subtract","15","blue","","","","","","","","","","","","","","","","","","","","","","","","","","","",""
"","","","","","survey-text","198","862844","0.0-198.0","A2YB18JHC2C7GF","2022-05-19T09:15:18.725Z","task_switching-rhyme-phon_sim-same_different","","4725.299999952316","task_switching","{""colorcue_switch_ans"":""62""}","experiment","59","colorcue_switch","62","true","add","16","red","","","","","","","","","","","","","","","","","","","","","","","","","","","",""
"","","","","","survey-text","199","866356","0.0-199.0","A2YB18JHC2C7GF","2022-05-19T09:15:18.725Z","task_switching-rhyme-phon_sim-same_different","","3509.399999856949","task_switching","{""colorcue_switch_ans"":""89""}","experiment","92","colorcue_switch","89","true","subtract","17","blue","","","","","","","","","","","","","","","","","","","","","","","","","","","",""
"","","","","","survey-text","200","870060","0.0-200.0","A2YB18JHC2C7GF","2022-05-19T09:15:18.725Z","task_switching-rhyme-phon_sim-same_different","","3701.4000000953674","task_switching","{""colorcue_switch_ans"":""18""}","experiment","15","colorcue_switch","18","true","add","18","red","","","","","","","","","","","","","","","","","","","","","","","","","","","",""
"","","","","","survey-text","201","873732","0.0-201.0","A2YB18JHC2C7GF","2022-05-19T09:15:18.725Z","task_switching-rhyme-phon_sim-same_different","","3669.2999999523163","task_switching","{""colorcue_switch_ans"":""42""}","experiment","45","colorcue_switch","42","true","subtract","19","blue","","","","","","","","","","","","","","","","","","","","","","","","","","","",""
"","","","","","survey-text","202","875900","0.0-202.0","A2YB18JHC2C7GF","2022-05-19T09:15:18.725Z","task_switching-rhyme-phon_sim-same_different","","2163.5999999046326","task_switching","{""colorcue_switch_ans"":""21""}","experiment","18","colorcue_switch","21","true","add","20","red","","","","","","","","","","","","","","","","","","","","","","","","","","","",""
"","","","","","survey-text","203","880532","0.0-203.0","A2YB18JHC2C7GF","2022-05-19T09:15:18.725Z","task_switching-rhyme-phon_sim-same_different","","4629.300000190735","task_switching","{""colorcue_switch_ans"":""79""}","experiment","81","colorcue_switch","79","false","subtract","21","blue","","","","","","","","","","","","","","","","","","","","","","","","","","","",""
"","","","","","survey-text","204","883020","0.0-204.0","A2YB18JHC2C7GF","2022-05-19T09:15:18.725Z","task_switching-rhyme-phon_sim-same_different","","2485","task_switching","{""colorcue_switch_ans"":""53""}","experiment","50","colorcue_switch","53","true","add","22","red","","","","","","","","","","","","","","","","","","","","","","","","","","","",""
"","","","","","survey-text","205","886156","0.0-205.0","A2YB18JHC2C7GF","2022-05-19T09:15:18.725Z","task_switching-rhyme-phon_sim-same_different","","3133.7000000476837","task_switching","{""colorcue_switch_ans"":""14""}","experiment","17","colorcue_switch","14","true","subtract","23","blue","","","","","","","","","","","","","","","","","","","","","","","","","","","",""
"","","","","","survey-text","206","891100","0.0-206.0","A2YB18JHC2C7GF","2022-05-19T09:15:18.725Z","task_switching-rhyme-phon_sim-same_different","","4941.400000095367","task_switching","{""colorcue_switch_ans"":""89""}","experiment","86","colorcue_switch","89","true","add","24","red","","","","","","","","","","","","","","","","","","","","","","","","","","","",""
"","","","","","survey-text","207","895092","0.0-207.0","A2YB18JHC2C7GF","2022-05-19T09:15:18.725Z","task_switching-rhyme-phon_sim-same_different","","3989.4000000953674","task_switching","{""colorcue_switch_ans"":""51""}","experiment","54","colorcue_switch","51","true","subtract","25","blue","","","","","","","","","","","","","","","","","","","","","","","","","","","",""
"","","","","","survey-text","208","901524","0.0-208.0","A2YB18JHC2C7GF","2022-05-19T09:15:18.725Z","task_switching-rhyme-phon_sim-same_different","","6426.900000095367","task_switching","{""colorcue_switch_ans"":""43""}","experiment","40","colorcue_switch","43","true","add","26","red","","","","","","","","","","","","","","","","","","","","","","","","","","","",""
"","","","","","survey-text","209","906396","0.0-209.0","A2YB18JHC2C7GF","2022-05-19T09:15:18.725Z","task_switching-rhyme-phon_sim-same_different","","4869.599999904633","task_switching","{""colorcue_switch_ans"":""93""}","experiment","96","colorcue_switch","93","true","subtract","27","blue","","","","","","","","","","","","","","","","","","","","","","","","","","","",""
"","","","","","survey-text","210","909180","0.0-210.0","A2YB18JHC2C7GF","2022-05-19T09:15:18.725Z","task_switching-rhyme-phon_sim-same_different","","2779.5","task_switching","{""colorcue_switch_ans"":""77""}","experiment","73","colorcue_switch","77","false","add","28","red","","","","","","","","","","","","","","","","","","","","","","","","","","","",""
"","","","","","survey-text","211","913428","0.0-211.0","A2YB18JHC2C7GF","2022-05-19T09:15:18.725Z","task_switching-rhyme-phon_sim-same_different","","4245.599999904633","task_switching","{""colorcue_switch_ans"":""58""}","experiment","61","colorcue_switch","58","true","subtract","29","blue","","","","","","","","","","","","","","","","","","","","","","","","","","","",""
"","","","","","instructions","212","920796","0.0-212.0","A2YB18JHC2C7GF","2022-05-19T09:15:18.725Z","task_switching-rhyme-phon_sim-same_different","[{""page_index"":0,""viewing_time"":7366.799999952316}]","7367","task_switching","","","","","","","","","","","","","","","","","","","","","","","","","","","","","","","","","","","","",""
"","","","","","survey-text","213","925172","0.0-213.0","A2YB18JHC2C7GF","2022-05-19T09:15:18.725Z","task_switching-rhyme-phon_sim-same_different","","4373.899999856949","task_switching","{""symbolcue_switch_ans"":""23""}","training","20","symbolcue_switch","23","true","add","0","","+","","","","","","","","","","","","","","","","","","","","","","","","","","",""
"","","","","","html-keyboard-response","214","926174","0.0-214.0","A2YB18JHC2C7GF","2022-05-19T09:15:18.725Z","task_switching-rhyme-phon_sim-same_different","","null","task_switching","null","training","<div style=""color:darkgreen; font-size:60px"">Well done!</div>","symbolcue_switch","","","","","","","","","","","","","","","","","","","","","","","","","","","","","","","","",""
"","","","","","survey-text","215","929371","0.0-215.0","A2YB18JHC2C7GF","2022-05-19T09:15:18.725Z","task_switching-rhyme-phon_sim-same_different","","3192.9000000953674","task_switching","{""symbolcue_switch_ans"":""25""}","training","28","symbolcue_switch","25","true","subtract","1","","-","","","","","","","","","","","","","","","","","","","","","","","","","","",""
"","","","","","html-keyboard-response","216","930380","0.0-216.0","A2YB18JHC2C7GF","2022-05-19T09:15:18.725Z","task_switching-rhyme-phon_sim-same_different","","null","task_switching","null","training","<div style=""color:darkgreen; font-size:60px"">Well done!</div>","symbolcue_switch","","","","","","","","","","","","","","","","","","","","","","","","","","","","","","","","",""
"","","","","","survey-text","217","932915","0.0-217.0","A2YB18JHC2C7GF","2022-05-19T09:15:18.725Z","task_switching-rhyme-phon_sim-same_different","","2531","task_switching","{""symbolcue_switch_ans"":""44""}","training","41","symbolcue_switch","44","true","add","2","","+","","","","","","","","","","","","","","","","","","","","","","","","","","",""
"","","","","","html-keyboard-response","218","933923","0.0-218.0","A2YB18JHC2C7GF","2022-05-19T09:15:18.725Z","task_switching-rhyme-phon_sim-same_different","","null","task_switching","null","training","<div style=""color:darkgreen; font-size:60px"">Well done!</div>","symbolcue_switch","","","","","","","","","","","","","","","","","","","","","","","","","","","","","","","","",""
"","","","","","survey-text","219","936475","0.0-219.0","A2YB18JHC2C7GF","2022-05-19T09:15:18.725Z","task_switching-rhyme-phon_sim-same_different","","2548.4000000953674","task_switching","{""symbolcue_switch_ans"":""55""}","training","58","symbolcue_switch","55","true","subtract","3","","-","","","","","","","","","","","","","","","","","","","","","","","","","","",""
"","","","","","html-keyboard-response","220","937486","0.0-220.0","A2YB18JHC2C7GF","2022-05-19T09:15:18.725Z","task_switching-rhyme-phon_sim-same_different","","null","task_switching","null","training","<div style=""color:darkgreen; font-size:60px"">Well done!</div>","symbolcue_switch","","","","","","","","","","","","","","","","","","","","","","","","","","","","","","","","",""
"","","","","","survey-text","221","939923","0.0-221.0","A2YB18JHC2C7GF","2022-05-19T09:15:18.725Z","task_switching-rhyme-phon_sim-same_different","","2433.100000143051","task_switching","{""symbolcue_switch_ans"":""24""}","training","21","symbolcue_switch","24","true","add","4","","+","","","","","","","","","","","","","","","","","","","","","","","","","","",""
"","","","","","html-keyboard-response","222","940926","0.0-222.0","A2YB18JHC2C7GF","2022-05-19T09:15:18.725Z","task_switching-rhyme-phon_sim-same_different","","null","task_switching","null","training","<div style=""color:darkgreen; font-size:60px"">Well done!</div>","symbolcue_switch","","","","","","","","","","","","","","","","","","","","","","","","","","","","","","","","",""
"","","","","","survey-text","223","952179","0.0-223.0","A2YB18JHC2C7GF","2022-05-19T09:15:18.725Z","task_switching-rhyme-phon_sim-same_different","","11249.099999904633","task_switching","{""symbolcue_switch_ans"":""87""}","training","90","symbolcue_switch","87","true","subtract","5","","-","","","","","","","","","","","","","","","","","","","","","","","","","","",""
"","","","","","html-keyboard-response","224","953191","0.0-224.0","A2YB18JHC2C7GF","2022-05-19T09:15:18.725Z","task_switching-rhyme-phon_sim-same_different","","null","task_switching","null","training","<div style=""color:darkgreen; font-size:60px"">Well done!</div>","symbolcue_switch","","","","","","","","","","","","","","","","","","","","","","","","","","","","","","","","",""
"","","","","","survey-text","225","955795","0.0-225.0","A2YB18JHC2C7GF","2022-05-19T09:15:18.725Z","task_switching-rhyme-phon_sim-same_different","","2600.399999856949","task_switching","{""symbolcue_switch_ans"":""36""}","training","33","symbolcue_switch","36","true","add","6","","+","","","","","","","","","","","","","","","","","","","","","","","","","","",""
"","","","","","html-keyboard-response","226","956809","0.0-226.0","A2YB18JHC2C7GF","2022-05-19T09:15:18.725Z","task_switching-rhyme-phon_sim-same_different","","null","task_switching","null","training","<div style=""color:darkgreen; font-size:60px"">Well done!</div>","symbolcue_switch","","","","","","","","","","","","","","","","","","","","","","","","","","","","","","","","",""
"","","","","","survey-text","227","960091","0.0-227.0","A2YB18JHC2C7GF","2022-05-19T09:15:18.725Z","task_switching-rhyme-phon_sim-same_different","","3278.199999809265","task_switching","{""symbolcue_switch_ans"":""41""}","training","43","symbolcue_switch","41","false","subtract","7","","-","","","","","","","","","","","","","","","","","","","","","","","","","","",""
"","","","","","html-keyboard-response","228","965104","0.0-228.0","A2YB18JHC2C7GF","2022-05-19T09:15:18.725Z","task_switching-rhyme-phon_sim-same_different","","null","task_switching","null","training","<div style=""color:darkred; font-size:40px"">Right direction but be careful with the numbers.<p> Correct answer: 40.</p><p> Next trial add 3.</p></div>","symbolcue_switch","","","","","","","","","","","","","","","","","","","","","","","","","","","","","","","","",""
"","","","","","survey-text","229","969387","0.0-229.0","A2YB18JHC2C7GF","2022-05-19T09:15:18.725Z","task_switching-rhyme-phon_sim-same_different","","4278.900000095367","task_switching","{""symbolcue_switch_ans"":""80""}","training","77","symbolcue_switch","80","true","add","8","","+","","","","","","","","","","","","","","","","","","","","","","","","","","",""
"","","","","","html-keyboard-response","230","970402","0.0-230.0","A2YB18JHC2C7GF","2022-05-19T09:15:18.725Z","task_switching-rhyme-phon_sim-same_different","","null","task_switching","null","training","<div style=""color:darkgreen; font-size:60px"">Well done!</div>","symbolcue_switch","","","","","","","","","","","","","","","","","","","","","","","","","","","","","","","","",""
"","","","","","survey-text","231","973483","0.0-231.0","A2YB18JHC2C7GF","2022-05-19T09:15:18.725Z","task_switching-rhyme-phon_sim-same_different","","3076.9000000953674","task_switching","{""symbolcue_switch_ans"":""32""}","training","35","symbolcue_switch","32","true","subtract","9","","-","","","","","","","","","","","","","","","","","","","","","","","","","","",""
"","","","","","html-keyboard-response","232","974499","0.0-232.0","A2YB18JHC2C7GF","2022-05-19T09:15:18.725Z","task_switching-rhyme-phon_sim-same_different","","null","task_switching","null","training","<div style=""color:darkgreen; font-size:60px"">Well done!</div>","symbolcue_switch","","","","","","","","","","","","","","","","","","","","","","","","","","","","","","","","",""
"","","","","","instructions","233","977019","0.0-233.0","A2YB18JHC2C7GF","2022-05-19T09:15:18.725Z","task_switching-rhyme-phon_sim-same_different","[{""page_index"":0,""viewing_time"":2519.2999999523163}]","2519.5999999046326","task_switching","","","","","","","","","","","","","","","","","","","","","","","","","","","","","","","","","","","","",""
"","","","","","survey-text","234","982051","0.0-234.0","A2YB18JHC2C7GF","2022-05-19T09:15:18.725Z","task_switching-rhyme-phon_sim-same_different","","5030.299999952316","task_switching","{""symbolcue_switch_ans"":""82""}","experiment","79","symbolcue_switch","82","true","add","0","","+","","","","","","","","","","","","","","","","","","","","","","","","","","",""
"","","","","","survey-text","235","985747","0.0-235.0","A2YB18JHC2C7GF","2022-05-19T09:15:18.725Z","task_switching-rhyme-phon_sim-same_different","","3693","task_switching","{""symbolcue_switch_ans"":""43""}","experiment","46","symbolcue_switch","43","true","subtract","1","","-","","","","","","","","","","","","","","","","","","","","","","","","","","",""
"","","","","","survey-text","236","989211","0.0-236.0","A2YB18JHC2C7GF","2022-05-19T09:15:18.725Z","task_switching-rhyme-phon_sim-same_different","","3461.5","task_switching","{""symbolcue_switch_ans"":""93""}","experiment","90","symbolcue_switch","93","true","add","2","","+","","","","","","","","","","","","","","","","","","","","","","","","","","",""
"","","","","","survey-text","237","993211","0.0-237.0","A2YB18JHC2C7GF","2022-05-19T09:15:18.725Z","task_switching-rhyme-phon_sim-same_different","","3997.4000000953674","task_switching","{""symbolcue_switch_ans"":""50""}","experiment","53","symbolcue_switch","50","true","subtract","3","","-","","","","","","","","","","","","","","","","","","","","","","","","","","",""
"","","","","","survey-text","238","996403","0.0-238.0","A2YB18JHC2C7GF","2022-05-19T09:15:18.725Z","task_switching-rhyme-phon_sim-same_different","","3189","task_switching","{""symbolcue_switch_ans"":""58""}","experiment","55","symbolcue_switch","58","true","add","4","","+","","","","","","","","","","","","","","","","","","","","","","","","","","",""
"","","","","","survey-text","239","999411","0.0-239.0","A2YB18JHC2C7GF","2022-05-19T09:15:18.725Z","task_switching-rhyme-phon_sim-same_different","","3005.2999999523163","task_switching","{""symbolcue_switch_ans"":""66""}","experiment","69","symbolcue_switch","66","true","subtract","5","","-","","","","","","","","","","","","","","","","","","","","","","","","","","",""
"","","","","","survey-text","240","1002635","0.0-240.0","A2YB18JHC2C7GF","2022-05-19T09:15:18.725Z","task_switching-rhyme-phon_sim-same_different","","3221.4000000953674","task_switching","{""symbolcue_switch_ans"":""73""}","experiment","70","symbolcue_switch","73","true","add","6","","+","","","","","","","","","","","","","","","","","","","","","","","","","","",""
"","","","","","survey-text","241","1006611","0.0-241.0","A2YB18JHC2C7GF","2022-05-19T09:15:18.725Z","task_switching-rhyme-phon_sim-same_different","","3973.0999999046326","task_switching","{""symbolcue_switch_ans"":""30""}","experiment","33","symbolcue_switch","30","true","subtract","7","","-","","","","","","","","","","","","","","","","","","","","","","","","","","",""
"","","","","","survey-text","242","1011171","0.0-242.0","A2YB18JHC2C7GF","2022-05-19T09:15:18.725Z","task_switching-rhyme-phon_sim-same_different","","4557.5","task_switching","{""symbolcue_switch_ans"":""30""}","experiment","27","symbolcue_switch","30","true","add","8","","+","","","","","","","","","","","","","","","","","","","","","","","","","","",""
"","","","","","survey-text","243","1016291","0.0-243.0","A2YB18JHC2C7GF","2022-05-19T09:15:18.725Z","task_switching-rhyme-phon_sim-same_different","","5116.899999856949","task_switching","{""symbolcue_switch_ans"":""22""}","experiment","25","symbolcue_switch","22","true","subtract","9","","-","","","","","","","","","","","","","","","","","","","","","","","","","","",""
"","","","","","survey-text","244","1019259","0.0-244.0","A2YB18JHC2C7GF","2022-05-19T09:15:18.725Z","task_switching-rhyme-phon_sim-same_different","","2965.300000190735","task_switching","{""symbolcue_switch_ans"":""24""}","experiment","21","symbolcue_switch","24","true","add","10","","+","","","","","","","","","","","","","","","","","","","","","","","","","","",""
"","","","","","survey-text","245","1024467","0.0-245.0","A2YB18JHC2C7GF","2022-05-19T09:15:18.725Z","task_switching-rhyme-phon_sim-same_different","","5205.299999952316","task_switching","{""symbolcue_switch_ans"":""48""}","experiment","51","symbolcue_switch","48","true","subtract","11","","-","","","","","","","","","","","","","","","","","","","","","","","","","","",""
"","","","","","survey-text","246","1028555","0.0-246.0","A2YB18JHC2C7GF","2022-05-19T09:15:18.725Z","task_switching-rhyme-phon_sim-same_different","","4084.7000000476837","task_switching","{""symbolcue_switch_ans"":""80""}","experiment","77","symbolcue_switch","80","true","add","12","","+","","","","","","","","","","","","","","","","","","","","","","","","","","",""
"","","","","","survey-text","247","1031091","0.0-247.0","A2YB18JHC2C7GF","2022-05-19T09:15:18.725Z","task_switching-rhyme-phon_sim-same_different","","2533.699999809265","task_switching","{""symbolcue_switch_ans"":""26""}","experiment","29","symbolcue_switch","26","true","subtract","13","","-","","","","","","","","","","","","","","","","","","","","","","","","","","",""
"","","","","","survey-text","248","1033987","0.0-248.0","A2YB18JHC2C7GF","2022-05-19T09:15:18.725Z","task_switching-rhyme-phon_sim-same_different","","2893.2000000476837","task_switching","{""symbolcue_switch_ans"":""53""}","experiment","50","symbolcue_switch","53","true","add","14","","+","","","","","","","","","","","","","","","","","","","","","","","","","","",""
"","","","","","survey-text","249","1036715","0.0-249.0","A2YB18JHC2C7GF","2022-05-19T09:15:18.725Z","task_switching-rhyme-phon_sim-same_different","","2725.600000143051","task_switching","{""symbolcue_switch_ans"":""34""}","experiment","37","symbolcue_switch","34","true","subtract","15","","-","","","","","","","","","","","","","","","","","","","","","","","","","","",""
"","","","","","survey-text","250","1040587","0.0-250.0","A2YB18JHC2C7GF","2022-05-19T09:15:18.725Z","task_switching-rhyme-phon_sim-same_different","","3868.600000143051","task_switching","{""symbolcue_switch_ans"":""70""}","experiment","67","symbolcue_switch","70","true","add","16","","+","","","","","","","","","","","","","","","","","","","","","","","","","","",""
"","","","","","survey-text","251","1049019","0.0-251.0","A2YB18JHC2C7GF","2022-05-19T09:15:18.725Z","task_switching-rhyme-phon_sim-same_different","","8429.399999856949","task_switching","{""symbolcue_switch_ans"":""27""}","experiment","30","symbolcue_switch","27","true","subtract","17","","-","","","","","","","","","","","","","","","","","","","","","","","","","","",""
"","","","","","survey-text","252","1053595","0.0-252.0","A2YB18JHC2C7GF","2022-05-19T09:15:18.725Z","task_switching-rhyme-phon_sim-same_different","","4571.900000095367","task_switching","{""symbolcue_switch_ans"":""61""}","experiment","58","symbolcue_switch","61","true","add","18","","+","","","","","","","","","","","","","","","","","","","","","","","","","","",""
"","","","","","survey-text","253","1056043","0.0-253.0","A2YB18JHC2C7GF","2022-05-19T09:15:18.725Z","task_switching-rhyme-phon_sim-same_different","","2444.5999999046326","task_switching","{""symbolcue_switch_ans"":""13""}","experiment","16","symbolcue_switch","13","true","subtract","19","","-","","","","","","","","","","","","","","","","","","","","","","","","","","",""
"","","","","","survey-text","254","1058899","0.0-254.0","A2YB18JHC2C7GF","2022-05-19T09:15:18.725Z","task_switching-rhyme-phon_sim-same_different","","2853.399999856949","task_switching","{""symbolcue_switch_ans"":""69""}","experiment","66","symbolcue_switch","69","true","add","20","","+","","","","","","","","","","","","","","","","","","","","","","","","","","",""
"","","","","","survey-text","255","1064027","0.0-255.0","A2YB18JHC2C7GF","2022-05-19T09:15:18.725Z","task_switching-rhyme-phon_sim-same_different","","5125.200000047684","task_switching","{""symbolcue_switch_ans"":""77""}","experiment","80","symbolcue_switch","77","true","subtract","21","","-","","","","","","","","","","","","","","","","","","","","","","","","","","",""
"","","","","","survey-text","256","1067419","0.0-256.0","A2YB18JHC2C7GF","2022-05-19T09:15:18.725Z","task_switching-rhyme-phon_sim-same_different","","3388.899999856949","task_switching","{""symbolcue_switch_ans"":""44""}","experiment","41","symbolcue_switch","44","true","add","22","","+","","","","","","","","","","","","","","","","","","","","","","","","","","",""
"","","","","","survey-text","257","1073051","0.0-257.0","A2YB18JHC2C7GF","2022-05-19T09:15:18.725Z","task_switching-rhyme-phon_sim-same_different","","5629.199999809265","task_switching","{""symbolcue_switch_ans"":""42""}","experiment","45","symbolcue_switch","42","true","subtract","23","","-","","","","","","","","","","","","","","","","","","","","","","","","","","",""
"","","","","","survey-text","258","1075291","0.0-258.0","A2YB18JHC2C7GF","2022-05-19T09:15:18.725Z","task_switching-rhyme-phon_sim-same_different","","2237.0999999046326","task_switching","{""symbolcue_switch_ans"":""43""}","experiment","40","symbolcue_switch","43","true","add","24","","+","","","","","","","","","","","","","","","","","","","","","","","","","","",""
"","","","","","survey-text","259","1078947","0.0-259.0","A2YB18JHC2C7GF","2022-05-19T09:15:18.725Z","task_switching-rhyme-phon_sim-same_different","","3652.4000000953674","task_switching","{""symbolcue_switch_ans"":""70""}","experiment","73","symbolcue_switch","70","true","subtract","25","","-","","","","","","","","","","","","","","","","","","","","","","","","","","",""
"","","","","","survey-text","260","1081883","0.0-260.0","A2YB18JHC2C7GF","2022-05-19T09:15:18.725Z","task_switching-rhyme-phon_sim-same_different","","2933","task_switching","{""symbolcue_switch_ans"":""89""}","experiment","86","symbolcue_switch","89","true","add","26","","+","","","","","","","","","","","","","","","","","","","","","","","","","","",""
"","","","","","survey-text","261","1085907","0.0-261.0","A2YB18JHC2C7GF","2022-05-19T09:15:18.725Z","task_switching-rhyme-phon_sim-same_different","","4021.399999856949","task_switching","{""symbolcue_switch_ans"":""28""}","experiment","31","symbolcue_switch","28","true","subtract","27","","-","","","","","","","","","","","","","","","","","","","","","","","","","","",""
"","","","","","survey-text","262","1088499","0.0-262.0","A2YB18JHC2C7GF","2022-05-19T09:15:18.725Z","task_switching-rhyme-phon_sim-same_different","","2589.100000143051","task_switching","{""symbolcue_switch_ans"":""88""}","experiment","85","symbolcue_switch","88","true","add","28","","+","","","","","","","","","","","","","","","","","","","","","","","","","","",""
"","","","","","survey-text","263","1099819","0.0-263.0","A2YB18JHC2C7GF","2022-05-19T09:15:18.725Z","task_switching-rhyme-phon_sim-same_different","","11317.5","task_switching","{""symbolcue_switch_ans"":""20""}","experiment","23","symbolcue_switch","20","true","subtract","29","","-","","","","","","","","","","","","","","","","","","","","","","","","","","",""
"","","","","","survey-multi-choice","264","1107155","0.0-264.0","A2YB18JHC2C7GF","2022-05-19T09:15:18.725Z","task_switching-rhyme-phon_sim-same_different","","7334.099999904633","task_switching","{""Q0"":""No""}","","","","","","","","","","[0]","No","","","","","","","","","","","","","","","","","","","","","","","","",""
"","","","","","survey-text","265","1114427","0.0-265.0","A2YB18JHC2C7GF","2022-05-19T09:15:18.725Z","task_switching-rhyme-phon_sim-same_different","","7269.300000190735","task_switching","{""Q0"":""none""}","","","","","","","","","","","","none","","","","","","","","","","","","","","","","","","","","","","","",""
"","","","","","instructions","266","1116467","0.0-266.0","A2YB18JHC2C7GF","2022-05-19T09:15:18.725Z","task_switching-rhyme-phon_sim-same_different","[{""page_index"":0,""viewing_time"":2038.7000000476837}]","2039.0999999046326","task_switching","","","","","","","","","","","","","","","","","","","","","","","","","","","","","","","","","","","","",""
"","","","","","instructions","267","1142843","0.0-267.0","A2YB18JHC2C7GF","2022-05-19T09:15:18.725Z","task_switching-rhyme-phon_sim-same_different","[{""page_index"":0,""viewing_time"":26374.89999985695}]","26375.299999952316","rhyme","","","","","","","","","","","","","","","","","","","","","","","","","","","","","","","","","","","","",""
"","","","","","html-keyboard-response","268","1143595","0.0-268.0-0.0","A2YB18JHC2C7GF","2022-05-19T09:15:18.725Z","task_switching-rhyme-phon_sim-same_different","","null","rhyme","null","","<div style=""font-size:60px;"">+</div>","","","","","","","","","","","750","","","","","","","","","","","","","","","","","","","","","","",""
"","","","","","html-keyboard-response","269","1144100","0.0-268.0-1.0","A2YB18JHC2C7GF","2022-05-19T09:15:18.725Z","task_switching-rhyme-phon_sim-same_different","","null","rhyme","null","","<img src=""square.png"" width=""306"" height=""306"" style=""position: fixed;left:14%;top:30%""><img src=""square.png"" width=""306"" height=""306"" style=""position: fixed;left:64%;top:30%"">","","","","","","","","","","","","","","","","","","","","","","","","","","","","","","","","","",""
