"success","timeout","failed_images","failed_audio","failed_video","trial_type","trial_index","time_elapsed","internal_node_id","worker_id","start_time","experiment_order","view_history","rt","experiment","stimulus","response","wait_time","correct","phase","image_1","image_2","cor_key","type","question_order","talk_out_loud","strategy_free_ans","condition","answer","operation","symbol_cue","trial_no","color_cue","judgment_type","stim_1","stim_2","inverted","true_neg","true_pos","false_pos","false_neg","word_1","word_2","word_3","word_4","word_5","original_word_set","response_1","response_2","response_3","response_4","response_5"
"true","false","[]","[]","[]","preload","0","3318","0.0-0.0","A2PUL3ZDXOW0VZ","2022-05-23T18:27:34.946Z","rhyme-task_switching-same_different-phon_sim","","","","","","","","","","","","","","","","","","","","","","","","","","","","","","","","","","","","","","","",""
"","","","","","instructions","1","21690","0.0-1.0","A2PUL3ZDXOW0VZ","2022-05-23T18:27:34.946Z","rhyme-task_switching-same_different-phon_sim","[{""page_index"":0,""viewing_time"":18371.5}]","18371.80000001192","","","","","","","","","","","","","","","","","","","","","","","","","","","","","","","","","","","","","",""
"true","","","","","fullscreen","2","566514","0.0-2.0","A2PUL3ZDXOW0VZ","2022-05-23T18:27:34.946Z","rhyme-task_switching-same_different-phon_sim","","","","","","","","","","","","","","","","","","","","","","","","","","","","","","","","","","","","","","","",""
"","","","","","instructions","3","682050","0.0-3.0","A2PUL3ZDXOW0VZ","2022-05-23T18:27:34.946Z","rhyme-task_switching-same_different-phon_sim","[{""page_index"":0,""viewing_time"":115533.59999996424}]","115533.80000001192","rhyme","","","","","","","","","","","","","","","","","","","","","","","","","","","","","","","","","","","","",""
"","","","","","html-keyboard-response","4","682315","0.0-4.0-0.0","A2PUL3ZDXOW0VZ","2022-05-23T18:27:34.946Z","rhyme-task_switching-same_different-phon_sim","","null","rhyme","<div style=""font-size:60px;"">+</div>","null","250","","","","","","","","","","","","","","","","","","","","","","","","","","","","","","","","","",""
"","","","","","html-keyboard-response","5","682817","0.0-4.0-1.0","A2PUL3ZDXOW0VZ","2022-05-23T18:27:34.946Z","rhyme-task_switching-same_different-phon_sim","","null","rhyme","<img src=""square.png"" width=""306"" height=""306"" style=""position: fixed;left:14%;top:30%""><img src=""square.png"" width=""306"" height=""306"" style=""position: fixed;left:64%;top:30%"">","null","","","","","","","","","","","","","","","","","","","","","","","","","","","","","","","","","","",""
"","","","","","categorize-html","6","685542","0.0-4.0-2.0","A2PUL3ZDXOW0VZ","2022-05-23T18:27:34.946Z","rhyme-task_switching-same_different-phon_sim","","1714.5","rhyme","<div style=""border: 3px solid #000000; position: fixed;left:14%;top:30%""><img src=""visual/dress.png"" width=""300""></div><div style=""border: 3px solid #000000; position: fixed;left:64%;top:30%""><img src=""visual/chess.png"" width=""300""></div>","arrowup","","true","training","visual/dress.png","visual/chess.png","ArrowUp","NA","","","","","","","","","","","","","","","","","","","","","","","","","","","",""
"","","","","","html-keyboard-response","7","686301","0.0-4.0-0.1","A2PUL3ZDXOW0VZ","2022-05-23T18:27:34.946Z","rhyme-task_switching-same_different-phon_sim","","null","rhyme","<div style=""font-size:60px;"">+</div>","null","750","","","","","","","","","","","","","","","","","","","","","","","","","","","","","","","","","",""
"","","","","","html-keyboard-response","8","686812","0.0-4.0-1.1","A2PUL3ZDXOW0VZ","2022-05-23T18:27:34.946Z","rhyme-task_switching-same_different-phon_sim","","null","rhyme","<img src=""square.png"" width=""306"" height=""306"" style=""position: fixed;left:14%;top:30%""><img src=""square.png"" width=""306"" height=""306"" style=""position: fixed;left:64%;top:30%"">","null","","","","","","","","","","","","","","","","","","","","","","","","","","","","","","","","","","",""
"","","","","","categorize-html","9","689692","0.0-4.0-2.1","A2PUL3ZDXOW0VZ","2022-05-23T18:27:34.946Z","rhyme-task_switching-same_different-phon_sim","","1876.8999999761581","rhyme","<div style=""border: 3px solid #000000; position: fixed;left:14%;top:30%""><img src=""visual/chess.png"" width=""300""></div><div style=""border: 3px solid #000000; position: fixed;left:64%;top:30%""><img src=""visual/suit.png"" width=""300""></div>","arrowdown","","true","training","visual/chess.png","visual/suit.png","ArrowDown","NA","","","","","","","","","","","","","","","","","","","","","","","","","","","",""
"","","","","","html-keyboard-response","10","689946","0.0-4.0-0.2","A2PUL3ZDXOW0VZ","2022-05-23T18:27:34.946Z","rhyme-task_switching-same_different-phon_sim","","null","rhyme","<div style=""font-size:60px;"">+</div>","null","250","","","","","","","","","","","","","","","","","","","","","","","","","","","","","","","","","",""
"","","","","","html-keyboard-response","11","690456","0.0-4.0-1.2","A2PUL3ZDXOW0VZ","2022-05-23T18:27:34.946Z","rhyme-task_switching-same_different-phon_sim","","null","rhyme","<img src=""square.png"" width=""306"" height=""306"" style=""position: fixed;left:14%;top:30%""><img src=""square.png"" width=""306"" height=""306"" style=""position: fixed;left:64%;top:30%"">","null","","","","","","","","","","","","","","","","","","","","","","","","","","","","","","","","","","",""
"","","","","","categorize-html","12","693354","0.0-4.0-2.2","A2PUL3ZDXOW0VZ","2022-05-23T18:27:34.946Z","rhyme-task_switching-same_different-phon_sim","","1887.0999999642372","rhyme","<div style=""border: 3px solid #000000; position: fixed;left:14%;top:30%""><img src=""visual/house.png"" width=""300""></div><div style=""border: 3px solid #000000; position: fixed;left:64%;top:30%""><img src=""visual/mouse.png"" width=""300""></div>","arrowup","","true","training","visual/house.png","visual/mouse.png","ArrowUp","NA","","","","","","","","","","","","","","","","","","","","","","","","","","","",""
"","","","","","html-keyboard-response","13","694105","0.0-4.0-0.3","A2PUL3ZDXOW0VZ","2022-05-23T18:27:34.946Z","rhyme-task_switching-same_different-phon_sim","","null","rhyme","<div style=""font-size:60px;"">+</div>","null","750","","","","","","","","","","","","","","","","","","","","","","","","","","","","","","","","","",""
"","","","","","html-keyboard-response","14","694619","0.0-4.0-1.3","A2PUL3ZDXOW0VZ","2022-05-23T18:27:34.946Z","rhyme-task_switching-same_different-phon_sim","","null","rhyme","<img src=""square.png"" width=""306"" height=""306"" style=""position: fixed;left:14%;top:30%""><img src=""square.png"" width=""306"" height=""306"" style=""position: fixed;left:64%;top:30%"">","null","","","","","","","","","","","","","","","","","","","","","","","","","","","","","","","","","","",""
"","","","","","categorize-html","15","697166","0.0-4.0-2.3","A2PUL3ZDXOW0VZ","2022-05-23T18:27:34.946Z","rhyme-task_switching-same_different-phon_sim","","1538.6000000238419","rhyme","<div style=""border: 3px solid #000000; position: fixed;left:14%;top:30%""><img src=""visual/mouse.png"" width=""300""></div><div style=""border: 3px solid #000000; position: fixed;left:64%;top:30%""><img src=""visual/dress.png"" width=""300""></div>","arrowdown","","true","training","visual/mouse.png","visual/dress.png","ArrowDown","NA","","","","","","","","","","","","","","","","","","","","","","","","","","","",""
"","","","","","instructions","16","703070","0.0-5.0","A2PUL3ZDXOW0VZ","2022-05-23T18:27:34.946Z","rhyme-task_switching-same_different-phon_sim","[{""page_index"":0,""viewing_time"":5903.5}]","5903.700000047684","","","","","","","","","","","","","","","","","","","","","","","","","","","","","","","","","","","","","",""
"","","","","","html-keyboard-response","17","703336","0.0-6.0-0.0","A2PUL3ZDXOW0VZ","2022-05-23T18:27:34.946Z","rhyme-task_switching-same_different-phon_sim","","null","rhyme","<div style=""font-size:60px;"">+</div>","null","250","","","","","","","","","","","","","","","","","","","","","","","","","","","","","","","","","",""
"","","","","","html-keyboard-response","18","703852","0.0-6.0-1.0","A2PUL3ZDXOW0VZ","2022-05-23T18:27:34.946Z","rhyme-task_switching-same_different-phon_sim","","null","rhyme","<img src=""square.png"" width=""306"" height=""306"" style=""position: fixed;left:14%;top:30%""><img src=""square.png"" width=""306"" height=""306"" style=""position: fixed;left:64%;top:30%"">","null","","","","","","","","","","","","","","","","","","","","","","","","","","","","","","","","","","",""
"","","","","","html-keyboard-response","19","705443","0.0-6.0-2.0","A2PUL3ZDXOW0VZ","2022-05-23T18:27:34.946Z","rhyme-task_switching-same_different-phon_sim","","1588.9000000357628","rhyme","<div style=""border: 3px solid #000000; position: fixed;left:14%;top:30%""><img src=""visual/key.png"" width=""300""></div><div style=""border: 3px solid #000000; position: fixed;left:64%;top:30%""><img src=""visual/tree.png"" width=""300""></div>","arrowup","","true","experiment","visual/key.png","visual/tree.png","ArrowUp","non-ortho","","","","","","","","","","","","","","","","","","","","","","","","","","","",""
"","","","","","html-keyboard-response","20","706207","0.0-6.0-0.1","A2PUL3ZDXOW0VZ","2022-05-23T18:27:34.946Z","rhyme-task_switching-same_different-phon_sim","","null","rhyme","<div style=""font-size:60px;"">+</div>","null","750","","","","","","","","","","","","","","","","","","","","","","","","","","","","","","","","","",""
"","","","","","html-keyboard-response","21","706721","0.0-6.0-1.1","A2PUL3ZDXOW0VZ","2022-05-23T18:27:34.946Z","rhyme-task_switching-same_different-phon_sim","","null","rhyme","<img src=""square.png"" width=""306"" height=""306"" style=""position: fixed;left:14%;top:30%""><img src=""square.png"" width=""306"" height=""306"" style=""position: fixed;left:64%;top:30%"">","null","","","","","","","","","","","","","","","","","","","","","","","","","","","","","","","","","","",""
"","","","","","html-keyboard-response","22","708405","0.0-6.0-2.1","A2PUL3ZDXOW0VZ","2022-05-23T18:27:34.946Z","rhyme-task_switching-same_different-phon_sim","","1682.300000011921","rhyme","<div style=""border: 3px solid #000000; position: fixed;left:14%;top:30%""><img src=""visual/egg.png"" width=""300""></div><div style=""border: 3px solid #000000; position: fixed;left:64%;top:30%""><img src=""visual/ring.png"" width=""300""></div>","arrowdown","","true","experiment","visual/egg.png","visual/ring.png","ArrowDown","NR","","","","","","","","","","","","","","","","","","","","","","","","","","","",""
"","","","","","html-keyboard-response","23","708919","0.0-6.0-0.2","A2PUL3ZDXOW0VZ","2022-05-23T18:27:34.946Z","rhyme-task_switching-same_different-phon_sim","","null","rhyme","<div style=""font-size:60px;"">+</div>","null","500","","","","","","","","","","","","","","","","","","","","","","","","","","","","","","","","","",""
"","","","","","html-keyboard-response","24","709433","0.0-6.0-1.2","A2PUL3ZDXOW0VZ","2022-05-23T18:27:34.946Z","rhyme-task_switching-same_different-phon_sim","","null","rhyme","<img src=""square.png"" width=""306"" height=""306"" style=""position: fixed;left:14%;top:30%""><img src=""square.png"" width=""306"" height=""306"" style=""position: fixed;left:64%;top:30%"">","null","","","","","","","","","","","","","","","","","","","","","","","","","","","","","","","","","","",""
"","","","","","html-keyboard-response","25","710755","0.0-6.0-2.2","A2PUL3ZDXOW0VZ","2022-05-23T18:27:34.946Z","rhyme-task_switching-same_different-phon_sim","","1321.1000000238419","rhyme","<div style=""border: 3px solid #000000; position: fixed;left:14%;top:30%""><img src=""visual/rose.png"" width=""300""></div><div style=""border: 3px solid #000000; position: fixed;left:64%;top:30%""><img src=""visual/nose.png"" width=""300""></div>","arrowup","","true","experiment","visual/rose.png","visual/nose.png","ArrowUp","ortho","","","","","","","","","","","","","","","","","","","","","","","","","","","",""
"","","","","","html-keyboard-response","26","711515","0.0-6.0-0.3","A2PUL3ZDXOW0VZ","2022-05-23T18:27:34.946Z","rhyme-task_switching-same_different-phon_sim","","null","rhyme","<div style=""font-size:60px;"">+</div>","null","750","","","","","","","","","","","","","","","","","","","","","","","","","","","","","","","","","",""
"","","","","","html-keyboard-response","27","712017","0.0-6.0-1.3","A2PUL3ZDXOW0VZ","2022-05-23T18:27:34.946Z","rhyme-task_switching-same_different-phon_sim","","null","rhyme","<img src=""square.png"" width=""306"" height=""306"" style=""position: fixed;left:14%;top:30%""><img src=""square.png"" width=""306"" height=""306"" style=""position: fixed;left:64%;top:30%"">","null","","","","","","","","","","","","","","","","","","","","","","","","","","","","","","","","","","",""
"","","","","","html-keyboard-response","28","713747","0.0-6.0-2.3","A2PUL3ZDXOW0VZ","2022-05-23T18:27:34.946Z","rhyme-task_switching-same_different-phon_sim","","1729.5999999642372","rhyme","<div style=""border: 3px solid #000000; position: fixed;left:14%;top:30%""><img src=""visual/jar.png"" width=""300""></div><div style=""border: 3px solid #000000; position: fixed;left:64%;top:30%""><img src=""visual/whale.png"" width=""300""></div>","arrowdown","","true","experiment","visual/jar.png","visual/whale.png","ArrowDown","NR","","","","","","","","","","","","","","","","","","","","","","","","","","","",""
"","","","","","html-keyboard-response","29","714751","0.0-6.0-0.4","A2PUL3ZDXOW0VZ","2022-05-23T18:27:34.946Z","rhyme-task_switching-same_different-phon_sim","","null","rhyme","<div style=""font-size:60px;"">+</div>","null","1000","","","","","","","","","","","","","","","","","","","","","","","","","","","","","","","","","",""
"","","","","","html-keyboard-response","30","715259","0.0-6.0-1.4","A2PUL3ZDXOW0VZ","2022-05-23T18:27:34.946Z","rhyme-task_switching-same_different-phon_sim","","null","rhyme","<img src=""square.png"" width=""306"" height=""306"" style=""position: fixed;left:14%;top:30%""><img src=""square.png"" width=""306"" height=""306"" style=""position: fixed;left:64%;top:30%"">","null","","","","","","","","","","","","","","","","","","","","","","","","","","","","","","","","","","",""
"","","","","","html-keyboard-response","31","717072","0.0-6.0-2.4","A2PUL3ZDXOW0VZ","2022-05-23T18:27:34.946Z","rhyme-task_switching-same_different-phon_sim","","1809.7999999523163","rhyme","<div style=""border: 3px solid #000000; position: fixed;left:14%;top:30%""><img src=""visual/train.png"" width=""300""></div><div style=""border: 3px solid #000000; position: fixed;left:64%;top:30%""><img src=""visual/screw.png"" width=""300""></div>","arrowdown","","true","experiment","visual/train.png","visual/screw.png","ArrowDown","NR","","","","","","","","","","","","","","","","","","","","","","","","","","","",""
"","","","","","html-keyboard-response","32","717339","0.0-6.0-0.5","A2PUL3ZDXOW0VZ","2022-05-23T18:27:34.946Z","rhyme-task_switching-same_different-phon_sim","","null","rhyme","<div style=""font-size:60px;"">+</div>","null","250","","","","","","","","","","","","","","","","","","","","","","","","","","","","","","","","","",""
"","","","","","html-keyboard-response","33","717852","0.0-6.0-1.5","A2PUL3ZDXOW0VZ","2022-05-23T18:27:34.946Z","rhyme-task_switching-same_different-phon_sim","","null","rhyme","<img src=""square.png"" width=""306"" height=""306"" style=""position: fixed;left:14%;top:30%""><img src=""square.png"" width=""306"" height=""306"" style=""position: fixed;left:64%;top:30%"">","null","","","","","","","","","","","","","","","","","","","","","","","","","","","","","","","","","","",""
"","","","","","html-keyboard-response","34","720371","0.0-6.0-2.5","A2PUL3ZDXOW0VZ","2022-05-23T18:27:34.946Z","rhyme-task_switching-same_different-phon_sim","","2517.699999988079","rhyme","<div style=""border: 3px solid #000000; position: fixed;left:14%;top:30%""><img src=""visual/bin.png"" width=""300""></div><div style=""border: 3px solid #000000; position: fixed;left:64%;top:30%""><img src=""visual/chin.png"" width=""300""></div>","arrowup","","true","experiment","visual/bin.png","visual/chin.png","ArrowUp","ortho","","","","","","","","","","","","","","","","","","","","","","","","","","","",""
"","","","","","html-keyboard-response","35","721387","0.0-6.0-0.6","A2PUL3ZDXOW0VZ","2022-05-23T18:27:34.946Z","rhyme-task_switching-same_different-phon_sim","","null","rhyme","<div style=""font-size:60px;"">+</div>","null","1000","","","","","","","","","","","","","","","","","","","","","","","","","","","","","","","","","",""
"","","","","","html-keyboard-response","36","721902","0.0-6.0-1.6","A2PUL3ZDXOW0VZ","2022-05-23T18:27:34.946Z","rhyme-task_switching-same_different-phon_sim","","null","rhyme","<img src=""square.png"" width=""306"" height=""306"" style=""position: fixed;left:14%;top:30%""><img src=""square.png"" width=""306"" height=""306"" style=""position: fixed;left:64%;top:30%"">","null","","","","","","","","","","","","","","","","","","","","","","","","","","","","","","","","","","",""
"","","","","","html-keyboard-response","37","723732","0.0-6.0-2.6","A2PUL3ZDXOW0VZ","2022-05-23T18:27:34.946Z","rhyme-task_switching-same_different-phon_sim","","1829.0999999642372","rhyme","<div style=""border: 3px solid #000000; position: fixed;left:14%;top:30%""><img src=""visual/cat.png"" width=""300""></div><div style=""border: 3px solid #000000; position: fixed;left:64%;top:30%""><img src=""visual/hat.png"" width=""300""></div>","arrowup","","true","experiment","visual/cat.png","visual/hat.png","ArrowUp","ortho","","","","","","","","","","","","","","","","","","","","","","","","","","","",""
"","","","","","html-keyboard-response","38","724735","0.0-6.0-0.7","A2PUL3ZDXOW0VZ","2022-05-23T18:27:34.946Z","rhyme-task_switching-same_different-phon_sim","","null","rhyme","<div style=""font-size:60px;"">+</div>","null","1000","","","","","","","","","","","","","","","","","","","","","","","","","","","","","","","","","",""
"","","","","","html-keyboard-response","39","725251","0.0-6.0-1.7","A2PUL3ZDXOW0VZ","2022-05-23T18:27:34.946Z","rhyme-task_switching-same_different-phon_sim","","null","rhyme","<img src=""square.png"" width=""306"" height=""306"" style=""position: fixed;left:14%;top:30%""><img src=""square.png"" width=""306"" height=""306"" style=""position: fixed;left:64%;top:30%"">","null","","","","","","","","","","","","","","","","","","","","","","","","","","","","","","","","","","",""
"","","","","","html-keyboard-response","40","727016","0.0-6.0-2.7","A2PUL3ZDXOW0VZ","2022-05-23T18:27:34.946Z","rhyme-task_switching-same_different-phon_sim","","1763.5","rhyme","<div style=""border: 3px solid #000000; position: fixed;left:14%;top:30%""><img src=""visual/bear.png"" width=""300""></div><div style=""border: 3px solid #000000; position: fixed;left:64%;top:30%""><img src=""visual/hair.png"" width=""300""></div>","arrowup","","true","experiment","visual/bear.png","visual/hair.png","ArrowUp","non-ortho","","","","","","","","","","","","","","","","","","","","","","","","","","","",""
"","","","","","html-keyboard-response","41","727278","0.0-6.0-0.8","A2PUL3ZDXOW0VZ","2022-05-23T18:27:34.946Z","rhyme-task_switching-same_different-phon_sim","","null","rhyme","<div style=""font-size:60px;"">+</div>","null","250","","","","","","","","","","","","","","","","","","","","","","","","","","","","","","","","","",""
"","","","","","html-keyboard-response","42","727781","0.0-6.0-1.8","A2PUL3ZDXOW0VZ","2022-05-23T18:27:34.946Z","rhyme-task_switching-same_different-phon_sim","","null","rhyme","<img src=""square.png"" width=""306"" height=""306"" style=""position: fixed;left:14%;top:30%""><img src=""square.png"" width=""306"" height=""306"" style=""position: fixed;left:64%;top:30%"">","null","","","","","","","","","","","","","","","","","","","","","","","","","","","","","","","","","","",""
"","","","","","html-keyboard-response","43","730042","0.0-6.0-2.8","A2PUL3ZDXOW0VZ","2022-05-23T18:27:34.946Z","rhyme-task_switching-same_different-phon_sim","","2259.900000035763","rhyme","<div style=""border: 3px solid #000000; position: fixed;left:14%;top:30%""><img src=""visual/dart.png"" width=""300""></div><div style=""border: 3px solid #000000; position: fixed;left:64%;top:30%""><img src=""visual/heart.png"" width=""300""></div>","arrowup","","true","experiment","visual/dart.png","visual/heart.png","ArrowUp","non-ortho","","","","","","","","","","","","","","","","","","","","","","","","","","","",""
"","","","","","html-keyboard-response","44","730306","0.0-6.0-0.9","A2PUL3ZDXOW0VZ","2022-05-23T18:27:34.946Z","rhyme-task_switching-same_different-phon_sim","","null","rhyme","<div style=""font-size:60px;"">+</div>","null","250","","","","","","","","","","","","","","","","","","","","","","","","","","","","","","","","","",""
"","","","","","html-keyboard-response","45","730819","0.0-6.0-1.9","A2PUL3ZDXOW0VZ","2022-05-23T18:27:34.946Z","rhyme-task_switching-same_different-phon_sim","","null","rhyme","<img src=""square.png"" width=""306"" height=""306"" style=""position: fixed;left:14%;top:30%""><img src=""square.png"" width=""306"" height=""306"" style=""position: fixed;left:64%;top:30%"">","null","","","","","","","","","","","","","","","","","","","","","","","","","","","","","","","","","","",""
"","","","","","html-keyboard-response","46","734927","0.0-6.0-2.9","A2PUL3ZDXOW0VZ","2022-05-23T18:27:34.946Z","rhyme-task_switching-same_different-phon_sim","","4106.699999988079","rhyme","<div style=""border: 3px solid #000000; position: fixed;left:14%;top:30%""><img src=""visual/wave.png"" width=""300""></div><div style=""border: 3px solid #000000; position: fixed;left:64%;top:30%""><img src=""visual/cave.png"" width=""300""></div>","arrowup","","true","experiment","visual/wave.png","visual/cave.png","ArrowUp","ortho","","","","","","","","","","","","","","","","","","","","","","","","","","","",""
"","","","","","html-keyboard-response","47","735440","0.0-6.0-0.10","A2PUL3ZDXOW0VZ","2022-05-23T18:27:34.946Z","rhyme-task_switching-same_different-phon_sim","","null","rhyme","<div style=""font-size:60px;"">+</div>","null","500","","","","","","","","","","","","","","","","","","","","","","","","","","","","","","","","","",""
"","","","","","html-keyboard-response","48","735947","0.0-6.0-1.10","A2PUL3ZDXOW0VZ","2022-05-23T18:27:34.946Z","rhyme-task_switching-same_different-phon_sim","","null","rhyme","<img src=""square.png"" width=""306"" height=""306"" style=""position: fixed;left:14%;top:30%""><img src=""square.png"" width=""306"" height=""306"" style=""position: fixed;left:64%;top:30%"">","null","","","","","","","","","","","","","","","","","","","","","","","","","","","","","","","","","","",""
"","","","","","html-keyboard-response","49","737324","0.0-6.0-2.10","A2PUL3ZDXOW0VZ","2022-05-23T18:27:34.946Z","rhyme-task_switching-same_different-phon_sim","","1375.5","rhyme","<div style=""border: 3px solid #000000; position: fixed;left:14%;top:30%""><img src=""visual/eye.png"" width=""300""></div><div style=""border: 3px solid #000000; position: fixed;left:64%;top:30%""><img src=""visual/tie.png"" width=""300""></div>","arrowup","","true","experiment","visual/eye.png","visual/tie.png","ArrowUp","non-ortho","","","","","","","","","","","","","","","","","","","","","","","","","","","",""
"","","","","","html-keyboard-response","50","738330","0.0-6.0-0.11","A2PUL3ZDXOW0VZ","2022-05-23T18:27:34.946Z","rhyme-task_switching-same_different-phon_sim","","null","rhyme","<div style=""font-size:60px;"">+</div>","null","1000","","","","","","","","","","","","","","","","","","","","","","","","","","","","","","","","","",""
"","","","","","html-keyboard-response","51","738843","0.0-6.0-1.11","A2PUL3ZDXOW0VZ","2022-05-23T18:27:34.946Z","rhyme-task_switching-same_different-phon_sim","","null","rhyme","<img src=""square.png"" width=""306"" height=""306"" style=""position: fixed;left:14%;top:30%""><img src=""square.png"" width=""306"" height=""306"" style=""position: fixed;left:64%;top:30%"">","null","","","","","","","","","","","","","","","","","","","","","","","","","","","","","","","","","","",""
"","","","","","html-keyboard-response","52","741137","0.0-6.0-2.11","A2PUL3ZDXOW0VZ","2022-05-23T18:27:34.946Z","rhyme-task_switching-same_different-phon_sim","","2293.2000000476837","rhyme","<div style=""border: 3px solid #000000; position: fixed;left:14%;top:30%""><img src=""visual/rake.png"" width=""300""></div><div style=""border: 3px solid #000000; position: fixed;left:64%;top:30%""><img src=""visual/park.png"" width=""300""></div>","arrowdown","","true","experiment","visual/rake.png","visual/park.png","ArrowDown","NR","","","","","","","","","","","","","","","","","","","","","","","","","","","",""
"","","","","","html-keyboard-response","53","742147","0.0-6.0-0.12","A2PUL3ZDXOW0VZ","2022-05-23T18:27:34.946Z","rhyme-task_switching-same_different-phon_sim","","null","rhyme","<div style=""font-size:60px;"">+</div>","null","1000","","","","","","","","","","","","","","","","","","","","","","","","","","","","","","","","","",""
"","","","","","html-keyboard-response","54","742663","0.0-6.0-1.12","A2PUL3ZDXOW0VZ","2022-05-23T18:27:34.946Z","rhyme-task_switching-same_different-phon_sim","","null","rhyme","<img src=""square.png"" width=""306"" height=""306"" style=""position: fixed;left:14%;top:30%""><img src=""square.png"" width=""306"" height=""306"" style=""position: fixed;left:64%;top:30%"">","null","","","","","","","","","","","","","","","","","","","","","","","","","","","","","","","","","","",""
"","","","","","html-keyboard-response","55","744934","0.0-6.0-2.12","A2PUL3ZDXOW0VZ","2022-05-23T18:27:34.946Z","rhyme-task_switching-same_different-phon_sim","","2269.5","rhyme","<div style=""border: 3px solid #000000; position: fixed;left:14%;top:30%""><img src=""visual/cab.png"" width=""300""></div><div style=""border: 3px solid #000000; position: fixed;left:64%;top:30%""><img src=""visual/crab.png"" width=""300""></div>","arrowup","","true","experiment","visual/cab.png","visual/crab.png","ArrowUp","ortho","","","","","","","","","","","","","","","","","","","","","","","","","","","",""
"","","","","","html-keyboard-response","56","745939","0.0-6.0-0.13","A2PUL3ZDXOW0VZ","2022-05-23T18:27:34.946Z","rhyme-task_switching-same_different-phon_sim","","null","rhyme","<div style=""font-size:60px;"">+</div>","null","1000","","","","","","","","","","","","","","","","","","","","","","","","","","","","","","","","","",""
"","","","","","html-keyboard-response","57","746445","0.0-6.0-1.13","A2PUL3ZDXOW0VZ","2022-05-23T18:27:34.946Z","rhyme-task_switching-same_different-phon_sim","","null","rhyme","<img src=""square.png"" width=""306"" height=""306"" style=""position: fixed;left:14%;top:30%""><img src=""square.png"" width=""306"" height=""306"" style=""position: fixed;left:64%;top:30%"">","null","","","","","","","","","","","","","","","","","","","","","","","","","","","","","","","","","","",""
"","","","","","html-keyboard-response","58","748249","0.0-6.0-2.13","A2PUL3ZDXOW0VZ","2022-05-23T18:27:34.946Z","rhyme-task_switching-same_different-phon_sim","","1801.300000011921","rhyme","<div style=""border: 3px solid #000000; position: fixed;left:14%;top:30%""><img src=""visual/tree.png"" width=""300""></div><div style=""border: 3px solid #000000; position: fixed;left:64%;top:30%""><img src=""visual/door.png"" width=""300""></div>","arrowdown","","true","experiment","visual/tree.png","visual/door.png","ArrowDown","NR","","","","","","","","","","","","","","","","","","","","","","","","","","","",""
"","","","","","html-keyboard-response","59","748512","0.0-6.0-0.14","A2PUL3ZDXOW0VZ","2022-05-23T18:27:34.946Z","rhyme-task_switching-same_different-phon_sim","","null","rhyme","<div style=""font-size:60px;"">+</div>","null","250","","","","","","","","","","","","","","","","","","","","","","","","","","","","","","","","","",""
"","","","","","html-keyboard-response","60","749020","0.0-6.0-1.14","A2PUL3ZDXOW0VZ","2022-05-23T18:27:34.946Z","rhyme-task_switching-same_different-phon_sim","","null","rhyme","<img src=""square.png"" width=""306"" height=""306"" style=""position: fixed;left:14%;top:30%""><img src=""square.png"" width=""306"" height=""306"" style=""position: fixed;left:64%;top:30%"">","null","","","","","","","","","","","","","","","","","","","","","","","","","","","","","","","","","","",""
"","","","","","html-keyboard-response","61","750764","0.0-6.0-2.14","A2PUL3ZDXOW0VZ","2022-05-23T18:27:34.946Z","rhyme-task_switching-same_different-phon_sim","","1741.699999988079","rhyme","<div style=""border: 3px solid #000000; position: fixed;left:14%;top:30%""><img src=""visual/spoon.png"" width=""300""></div><div style=""border: 3px solid #000000; position: fixed;left:64%;top:30%""><img src=""visual/crab.png"" width=""300""></div>","arrowdown","","true","experiment","visual/spoon.png","visual/crab.png","ArrowDown","NR","","","","","","","","","","","","","","","","","","","","","","","","","","","",""
"","","","","","html-keyboard-response","62","751016","0.0-6.0-0.15","A2PUL3ZDXOW0VZ","2022-05-23T18:27:34.946Z","rhyme-task_switching-same_different-phon_sim","","null","rhyme","<div style=""font-size:60px;"">+</div>","null","250","","","","","","","","","","","","","","","","","","","","","","","","","","","","","","","","","",""
"","","","","","html-keyboard-response","63","751519","0.0-6.0-1.15","A2PUL3ZDXOW0VZ","2022-05-23T18:27:34.946Z","rhyme-task_switching-same_different-phon_sim","","null","rhyme","<img src=""square.png"" width=""306"" height=""306"" style=""position: fixed;left:14%;top:30%""><img src=""square.png"" width=""306"" height=""306"" style=""position: fixed;left:64%;top:30%"">","null","","","","","","","","","","","","","","","","","","","","","","","","","","","","","","","","","","",""
"","","","","","html-keyboard-response","64","752965","0.0-6.0-2.15","A2PUL3ZDXOW0VZ","2022-05-23T18:27:34.946Z","rhyme-task_switching-same_different-phon_sim","","1445.199999988079","rhyme","<div style=""border: 3px solid #000000; position: fixed;left:14%;top:30%""><img src=""visual/bone.png"" width=""300""></div><div style=""border: 3px solid #000000; position: fixed;left:64%;top:30%""><img src=""visual/cone.png"" width=""300""></div>","arrowup","","true","experiment","visual/bone.png","visual/cone.png","ArrowUp","ortho","","","","","","","","","","","","","","","","","","","","","","","","","","","",""
"","","","","","html-keyboard-response","65","753468","0.0-6.0-0.16","A2PUL3ZDXOW0VZ","2022-05-23T18:27:34.946Z","rhyme-task_switching-same_different-phon_sim","","null","rhyme","<div style=""font-size:60px;"">+</div>","null","500","","","","","","","","","","","","","","","","","","","","","","","","","","","","","","","","","",""
"","","","","","html-keyboard-response","66","753981","0.0-6.0-1.16","A2PUL3ZDXOW0VZ","2022-05-23T18:27:34.946Z","rhyme-task_switching-same_different-phon_sim","","null","rhyme","<img src=""square.png"" width=""306"" height=""306"" style=""position: fixed;left:14%;top:30%""><img src=""square.png"" width=""306"" height=""306"" style=""position: fixed;left:64%;top:30%"">","null","","","","","","","","","","","","","","","","","","","","","","","","","","","","","","","","","","",""
"","","","","","html-keyboard-response","67","756115","0.0-6.0-2.16","A2PUL3ZDXOW0VZ","2022-05-23T18:27:34.946Z","rhyme-task_switching-same_different-phon_sim","","2132.5","rhyme","<div style=""border: 3px solid #000000; position: fixed;left:14%;top:30%""><img src=""visual/deer.png"" width=""300""></div><div style=""border: 3px solid #000000; position: fixed;left:64%;top:30%""><img src=""visual/beer.png"" width=""300""></div>","arrowup","","true","experiment","visual/deer.png","visual/beer.png","ArrowUp","ortho","","","","","","","","","","","","","","","","","","","","","","","","","","","",""
"","","","","","html-keyboard-response","68","756629","0.0-6.0-0.17","A2PUL3ZDXOW0VZ","2022-05-23T18:27:34.946Z","rhyme-task_switching-same_different-phon_sim","","null","rhyme","<div style=""font-size:60px;"">+</div>","null","500","","","","","","","","","","","","","","","","","","","","","","","","","","","","","","","","","",""
"","","","","","html-keyboard-response","69","757138","0.0-6.0-1.17","A2PUL3ZDXOW0VZ","2022-05-23T18:27:34.946Z","rhyme-task_switching-same_different-phon_sim","","null","rhyme","<img src=""square.png"" width=""306"" height=""306"" style=""position: fixed;left:14%;top:30%""><img src=""square.png"" width=""306"" height=""306"" style=""position: fixed;left:64%;top:30%"">","null","","","","","","","","","","","","","","","","","","","","","","","","","","","","","","","","","","",""
"","","","","","html-keyboard-response","70","758968","0.0-6.0-2.17","A2PUL3ZDXOW0VZ","2022-05-23T18:27:34.946Z","rhyme-task_switching-same_different-phon_sim","","1828.1000000238419","rhyme","<div style=""border: 3px solid #000000; position: fixed;left:14%;top:30%""><img src=""visual/pear.png"" width=""300""></div><div style=""border: 3px solid #000000; position: fixed;left:64%;top:30%""><img src=""visual/rope.png"" width=""300""></div>","arrowdown","","true","experiment","visual/pear.png","visual/rope.png","ArrowDown","NR","","","","","","","","","","","","","","","","","","","","","","","","","","","",""
"","","","","","html-keyboard-response","71","759975","0.0-6.0-0.18","A2PUL3ZDXOW0VZ","2022-05-23T18:27:34.946Z","rhyme-task_switching-same_different-phon_sim","","null","rhyme","<div style=""font-size:60px;"">+</div>","null","1000","","","","","","","","","","","","","","","","","","","","","","","","","","","","","","","","","",""
"","","","","","html-keyboard-response","72","760492","0.0-6.0-1.18","A2PUL3ZDXOW0VZ","2022-05-23T18:27:34.946Z","rhyme-task_switching-same_different-phon_sim","","null","rhyme","<img src=""square.png"" width=""306"" height=""306"" style=""position: fixed;left:14%;top:30%""><img src=""square.png"" width=""306"" height=""306"" style=""position: fixed;left:64%;top:30%"">","null","","","","","","","","","","","","","","","","","","","","","","","","","","","","","","","","","","",""
"","","","","","html-keyboard-response","73","762461","0.0-6.0-2.18","A2PUL3ZDXOW0VZ","2022-05-23T18:27:34.946Z","rhyme-task_switching-same_different-phon_sim","","1966.800000011921","rhyme","<div style=""border: 3px solid #000000; position: fixed;left:14%;top:30%""><img src=""visual/flag.png"" width=""300""></div><div style=""border: 3px solid #000000; position: fixed;left:64%;top:30%""><img src=""visual/bag.png"" width=""300""></div>","arrowup","","true","experiment","visual/flag.png","visual/bag.png","ArrowUp","ortho","","","","","","","","","","","","","","","","","","","","","","","","","","","",""
"","","","","","html-keyboard-response","74","763219","0.0-6.0-0.19","A2PUL3ZDXOW0VZ","2022-05-23T18:27:34.946Z","rhyme-task_switching-same_different-phon_sim","","null","rhyme","<div style=""font-size:60px;"">+</div>","null","750","","","","","","","","","","","","","","","","","","","","","","","","","","","","","","","","","",""
"","","","","","html-keyboard-response","75","763734","0.0-6.0-1.19","A2PUL3ZDXOW0VZ","2022-05-23T18:27:34.946Z","rhyme-task_switching-same_different-phon_sim","","null","rhyme","<img src=""square.png"" width=""306"" height=""306"" style=""position: fixed;left:14%;top:30%""><img src=""square.png"" width=""306"" height=""306"" style=""position: fixed;left:64%;top:30%"">","null","","","","","","","","","","","","","","","","","","","","","","","","","","","","","","","","","","",""
"","","","","","html-keyboard-response","76","766028","0.0-6.0-2.19","A2PUL3ZDXOW0VZ","2022-05-23T18:27:34.946Z","rhyme-task_switching-same_different-phon_sim","","2293.100000023842","rhyme","<div style=""border: 3px solid #000000; position: fixed;left:14%;top:30%""><img src=""visual/plane.png"" width=""300""></div><div style=""border: 3px solid #000000; position: fixed;left:64%;top:30%""><img src=""visual/train.png"" width=""300""></div>","arrowup","","true","experiment","visual/plane.png","visual/train.png","ArrowUp","non-ortho","","","","","","","","","","","","","","","","","","","","","","","","","","","",""
"","","","","","html-keyboard-response","77","767035","0.0-6.0-0.20","A2PUL3ZDXOW0VZ","2022-05-23T18:27:34.946Z","rhyme-task_switching-same_different-phon_sim","","null","rhyme","<div style=""font-size:60px;"">+</div>","null","1000","","","","","","","","","","","","","","","","","","","","","","","","","","","","","","","","","",""
"","","","","","html-keyboard-response","78","767550","0.0-6.0-1.20","A2PUL3ZDXOW0VZ","2022-05-23T18:27:34.946Z","rhyme-task_switching-same_different-phon_sim","","null","rhyme","<img src=""square.png"" width=""306"" height=""306"" style=""position: fixed;left:14%;top:30%""><img src=""square.png"" width=""306"" height=""306"" style=""position: fixed;left:64%;top:30%"">","null","","","","","","","","","","","","","","","","","","","","","","","","","","","","","","","","","","",""
"","","","","","html-keyboard-response","79","769977","0.0-6.0-2.20","A2PUL3ZDXOW0VZ","2022-05-23T18:27:34.946Z","rhyme-task_switching-same_different-phon_sim","","2425.399999976158","rhyme","<div style=""border: 3px solid #000000; position: fixed;left:14%;top:30%""><img src=""visual/king.png"" width=""300""></div><div style=""border: 3px solid #000000; position: fixed;left:64%;top:30%""><img src=""visual/cab.png"" width=""300""></div>","arrowdown","","true","experiment","visual/king.png","visual/cab.png","ArrowDown","NR","","","","","","","","","","","","","","","","","","","","","","","","","","","",""
"","","","","","html-keyboard-response","80","770493","0.0-6.0-0.21","A2PUL3ZDXOW0VZ","2022-05-23T18:27:34.946Z","rhyme-task_switching-same_different-phon_sim","","null","rhyme","<div style=""font-size:60px;"">+</div>","null","500","","","","","","","","","","","","","","","","","","","","","","","","","","","","","","","","","",""
"","","","","","html-keyboard-response","81","771009","0.0-6.0-1.21","A2PUL3ZDXOW0VZ","2022-05-23T18:27:34.946Z","rhyme-task_switching-same_different-phon_sim","","null","rhyme","<img src=""square.png"" width=""306"" height=""306"" style=""position: fixed;left:14%;top:30%""><img src=""square.png"" width=""306"" height=""306"" style=""position: fixed;left:64%;top:30%"">","null","","","","","","","","","","","","","","","","","","","","","","","","","","","","","","","","","","",""
"","","","","","html-keyboard-response","82","774821","0.0-6.0-2.21","A2PUL3ZDXOW0VZ","2022-05-23T18:27:34.946Z","rhyme-task_switching-same_different-phon_sim","","3810.300000011921","rhyme","<div style=""border: 3px solid #000000; position: fixed;left:14%;top:30%""><img src=""visual/socks.png"" width=""300""></div><div style=""border: 3px solid #000000; position: fixed;left:64%;top:30%""><img src=""visual/fox.png"" width=""300""></div>","arrowdown","","false","experiment","visual/socks.png","visual/fox.png","ArrowUp","non-ortho","","","","","","","","","","","","","","","","","","","","","","","","","","","",""
"","","","","","html-keyboard-response","83","775078","0.0-6.0-0.22","A2PUL3ZDXOW0VZ","2022-05-23T18:27:34.946Z","rhyme-task_switching-same_different-phon_sim","","null","rhyme","<div style=""font-size:60px;"">+</div>","null","250","","","","","","","","","","","","","","","","","","","","","","","","","","","","","","","","","",""
"","","","","","html-keyboard-response","84","775581","0.0-6.0-1.22","A2PUL3ZDXOW0VZ","2022-05-23T18:27:34.946Z","rhyme-task_switching-same_different-phon_sim","","null","rhyme","<img src=""square.png"" width=""306"" height=""306"" style=""position: fixed;left:14%;top:30%""><img src=""square.png"" width=""306"" height=""306"" style=""position: fixed;left:64%;top:30%"">","null","","","","","","","","","","","","","","","","","","","","","","","","","","","","","","","","","","",""
"","","","","","html-keyboard-response","85","780070","0.0-6.0-2.22","A2PUL3ZDXOW0VZ","2022-05-23T18:27:34.946Z","rhyme-task_switching-same_different-phon_sim","","4486.399999976158","rhyme","<div style=""border: 3px solid #000000; position: fixed;left:14%;top:30%""><img src=""visual/bed.png"" width=""300""></div><div style=""border: 3px solid #000000; position: fixed;left:64%;top:30%""><img src=""visual/bread.png"" width=""300""></div>","arrowup","","true","experiment","visual/bed.png","visual/bread.png","ArrowUp","non-ortho","","","","","","","","","","","","","","","","","","","","","","","","","","","",""
"","","","","","html-keyboard-response","86","780336","0.0-6.0-0.23","A2PUL3ZDXOW0VZ","2022-05-23T18:27:34.946Z","rhyme-task_switching-same_different-phon_sim","","null","rhyme","<div style=""font-size:60px;"">+</div>","null","250","","","","","","","","","","","","","","","","","","","","","","","","","","","","","","","","","",""
"","","","","","html-keyboard-response","87","780848","0.0-6.0-1.23","A2PUL3ZDXOW0VZ","2022-05-23T18:27:34.946Z","rhyme-task_switching-same_different-phon_sim","","null","rhyme","<img src=""square.png"" width=""306"" height=""306"" style=""position: fixed;left:14%;top:30%""><img src=""square.png"" width=""306"" height=""306"" style=""position: fixed;left:64%;top:30%"">","null","","","","","","","","","","","","","","","","","","","","","","","","","","","","","","","","","","",""
"","","","","","html-keyboard-response","88","782887","0.0-6.0-2.23","A2PUL3ZDXOW0VZ","2022-05-23T18:27:34.946Z","rhyme-task_switching-same_different-phon_sim","","2036.5","rhyme","<div style=""border: 3px solid #000000; position: fixed;left:14%;top:30%""><img src=""visual/bear.png"" width=""300""></div><div style=""border: 3px solid #000000; position: fixed;left:64%;top:30%""><img src=""visual/square_rhyme.png"" width=""300""></div>","arrowup","","true","experiment","visual/bear.png","visual/square_rhyme.png","ArrowUp","non-ortho","","","","","","","","","","","","","","","","","","","","","","","","","","","",""
"","","","","","html-keyboard-response","89","783642","0.0-6.0-0.24","A2PUL3ZDXOW0VZ","2022-05-23T18:27:34.946Z","rhyme-task_switching-same_different-phon_sim","","null","rhyme","<div style=""font-size:60px;"">+</div>","null","750","","","","","","","","","","","","","","","","","","","","","","","","","","","","","","","","","",""
"","","","","","html-keyboard-response","90","784155","0.0-6.0-1.24","A2PUL3ZDXOW0VZ","2022-05-23T18:27:34.946Z","rhyme-task_switching-same_different-phon_sim","","null","rhyme","<img src=""square.png"" width=""306"" height=""306"" style=""position: fixed;left:14%;top:30%""><img src=""square.png"" width=""306"" height=""306"" style=""position: fixed;left:64%;top:30%"">","null","","","","","","","","","","","","","","","","","","","","","","","","","","","","","","","","","","",""
"","","","","","html-keyboard-response","91","787025","0.0-6.0-2.24","A2PUL3ZDXOW0VZ","2022-05-23T18:27:34.946Z","rhyme-task_switching-same_different-phon_sim","","2867.5","rhyme","<div style=""border: 3px solid #000000; position: fixed;left:14%;top:30%""><img src=""visual/saw.png"" width=""300""></div><div style=""border: 3px solid #000000; position: fixed;left:64%;top:30%""><img src=""visual/claw.png"" width=""300""></div>","arrowup","","true","experiment","visual/saw.png","visual/claw.png","ArrowUp","ortho","","","","","","","","","","","","","","","","","","","","","","","","","","","",""
"","","","","","html-keyboard-response","92","787778","0.0-6.0-0.25","A2PUL3ZDXOW0VZ","2022-05-23T18:27:34.946Z","rhyme-task_switching-same_different-phon_sim","","null","rhyme","<div style=""font-size:60px;"">+</div>","null","750","","","","","","","","","","","","","","","","","","","","","","","","","","","","","","","","","",""
"","","","","","html-keyboard-response","93","788286","0.0-6.0-1.25","A2PUL3ZDXOW0VZ","2022-05-23T18:27:34.946Z","rhyme-task_switching-same_different-phon_sim","","null","rhyme","<img src=""square.png"" width=""306"" height=""306"" style=""position: fixed;left:14%;top:30%""><img src=""square.png"" width=""306"" height=""306"" style=""position: fixed;left:64%;top:30%"">","null","","","","","","","","","","","","","","","","","","","","","","","","","","","","","","","","","","",""
"","","","","","html-keyboard-response","94","791026","0.0-6.0-2.25","A2PUL3ZDXOW0VZ","2022-05-23T18:27:34.946Z","rhyme-task_switching-same_different-phon_sim","","2738","rhyme","<div style=""border: 3px solid #000000; position: fixed;left:14%;top:30%""><img src=""visual/pope.png"" width=""300""></div><div style=""border: 3px solid #000000; position: fixed;left:64%;top:30%""><img src=""visual/soap.png"" width=""300""></div>","arrowup","","true","experiment","visual/pope.png","visual/soap.png","ArrowUp","non-ortho","","","","","","","","","","","","","","","","","","","","","","","","","","","",""
"","","","","","html-keyboard-response","95","792036","0.0-6.0-0.26","A2PUL3ZDXOW0VZ","2022-05-23T18:27:34.946Z","rhyme-task_switching-same_different-phon_sim","","null","rhyme","<div style=""font-size:60px;"">+</div>","null","1000","","","","","","","","","","","","","","","","","","","","","","","","","","","","","","","","","",""
"","","","","","html-keyboard-response","96","792539","0.0-6.0-1.26","A2PUL3ZDXOW0VZ","2022-05-23T18:27:34.946Z","rhyme-task_switching-same_different-phon_sim","","null","rhyme","<img src=""square.png"" width=""306"" height=""306"" style=""position: fixed;left:14%;top:30%""><img src=""square.png"" width=""306"" height=""306"" style=""position: fixed;left:64%;top:30%"">","null","","","","","","","","","","","","","","","","","","","","","","","","","","","","","","","","","","",""
"","","","","","html-keyboard-response","97","794711","0.0-6.0-2.26","A2PUL3ZDXOW0VZ","2022-05-23T18:27:34.946Z","rhyme-task_switching-same_different-phon_sim","","2168.699999988079","rhyme","<div style=""border: 3px solid #000000; position: fixed;left:14%;top:30%""><img src=""visual/sock.png"" width=""300""></div><div style=""border: 3px solid #000000; position: fixed;left:64%;top:30%""><img src=""visual/clock.png"" width=""300""></div>","arrowup","","true","experiment","visual/sock.png","visual/clock.png","ArrowUp","ortho","","","","","","","","","","","","","","","","","","","","","","","","","","","",""
"","","","","","html-keyboard-response","98","794967","0.0-6.0-0.27","A2PUL3ZDXOW0VZ","2022-05-23T18:27:34.946Z","rhyme-task_switching-same_different-phon_sim","","null","rhyme","<div style=""font-size:60px;"">+</div>","null","250","","","","","","","","","","","","","","","","","","","","","","","","","","","","","","","","","",""
"","","","","","html-keyboard-response","99","795478","0.0-6.0-1.27","A2PUL3ZDXOW0VZ","2022-05-23T18:27:34.946Z","rhyme-task_switching-same_different-phon_sim","","null","rhyme","<img src=""square.png"" width=""306"" height=""306"" style=""position: fixed;left:14%;top:30%""><img src=""square.png"" width=""306"" height=""306"" style=""position: fixed;left:64%;top:30%"">","null","","","","","","","","","","","","","","","","","","","","","","","","","","","","","","","","","","",""
"","","","","","html-keyboard-response","100","797058","0.0-6.0-2.27","A2PUL3ZDXOW0VZ","2022-05-23T18:27:34.946Z","rhyme-task_switching-same_different-phon_sim","","1578.699999988079","rhyme","<div style=""border: 3px solid #000000; position: fixed;left:14%;top:30%""><img src=""visual/spoon.png"" width=""300""></div><div style=""border: 3px solid #000000; position: fixed;left:64%;top:30%""><img src=""visual/moon.png"" width=""300""></div>","arrowup","","true","experiment","visual/spoon.png","visual/moon.png","ArrowUp","ortho","","","","","","","","","","","","","","","","","","","","","","","","","","","",""
"","","","","","html-keyboard-response","101","797820","0.0-6.0-0.28","A2PUL3ZDXOW0VZ","2022-05-23T18:27:34.946Z","rhyme-task_switching-same_different-phon_sim","","null","rhyme","<div style=""font-size:60px;"">+</div>","null","750","","","","","","","","","","","","","","","","","","","","","","","","","","","","","","","","","",""
"","","","","","html-keyboard-response","102","798328","0.0-6.0-1.28","A2PUL3ZDXOW0VZ","2022-05-23T18:27:34.946Z","rhyme-task_switching-same_different-phon_sim","","null","rhyme","<img src=""square.png"" width=""306"" height=""306"" style=""position: fixed;left:14%;top:30%""><img src=""square.png"" width=""306"" height=""306"" style=""position: fixed;left:64%;top:30%"">","null","","","","","","","","","","","","","","","","","","","","","","","","","","","","","","","","","","",""
"","","","","","html-keyboard-response","103","799791","0.0-6.0-2.28","A2PUL3ZDXOW0VZ","2022-05-23T18:27:34.946Z","rhyme-task_switching-same_different-phon_sim","","1462","rhyme","<div style=""border: 3px solid #000000; position: fixed;left:14%;top:30%""><img src=""visual/nose.png"" width=""300""></div><div style=""border: 3px solid #000000; position: fixed;left:64%;top:30%""><img src=""visual/bell.png"" width=""300""></div>","arrowdown","","true","experiment","visual/nose.png","visual/bell.png","ArrowDown","NR","","","","","","","","","","","","","","","","","","","","","","","","","","","",""
"","","","","","html-keyboard-response","104","800554","0.0-6.0-0.29","A2PUL3ZDXOW0VZ","2022-05-23T18:27:34.946Z","rhyme-task_switching-same_different-phon_sim","","null","rhyme","<div style=""font-size:60px;"">+</div>","null","750","","","","","","","","","","","","","","","","","","","","","","","","","","","","","","","","","",""
"","","","","","html-keyboard-response","105","801070","0.0-6.0-1.29","A2PUL3ZDXOW0VZ","2022-05-23T18:27:34.946Z","rhyme-task_switching-same_different-phon_sim","","null","rhyme","<img src=""square.png"" width=""306"" height=""306"" style=""position: fixed;left:14%;top:30%""><img src=""square.png"" width=""306"" height=""306"" style=""position: fixed;left:64%;top:30%"">","null","","","","","","","","","","","","","","","","","","","","","","","","","","","","","","","","","","",""
"","","","","","html-keyboard-response","106","802880","0.0-6.0-2.29","A2PUL3ZDXOW0VZ","2022-05-23T18:27:34.946Z","rhyme-task_switching-same_different-phon_sim","","1808.1000000238419","rhyme","<div style=""border: 3px solid #000000; position: fixed;left:14%;top:30%""><img src=""visual/wheel.png"" width=""300""></div><div style=""border: 3px solid #000000; position: fixed;left:64%;top:30%""><img src=""visual/seal.png"" width=""300""></div>","arrowup","","true","experiment","visual/wheel.png","visual/seal.png","ArrowUp","non-ortho","","","","","","","","","","","","","","","","","","","","","","","","","","","",""
"","","","","","html-keyboard-response","107","803894","0.0-6.0-0.30","A2PUL3ZDXOW0VZ","2022-05-23T18:27:34.946Z","rhyme-task_switching-same_different-phon_sim","","null","rhyme","<div style=""font-size:60px;"">+</div>","null","1000","","","","","","","","","","","","","","","","","","","","","","","","","","","","","","","","","",""
"","","","","","html-keyboard-response","108","804398","0.0-6.0-1.30","A2PUL3ZDXOW0VZ","2022-05-23T18:27:34.946Z","rhyme-task_switching-same_different-phon_sim","","null","rhyme","<img src=""square.png"" width=""306"" height=""306"" style=""position: fixed;left:14%;top:30%""><img src=""square.png"" width=""306"" height=""306"" style=""position: fixed;left:64%;top:30%"">","null","","","","","","","","","","","","","","","","","","","","","","","","","","","","","","","","","","",""
"","","","","","html-keyboard-response","109","806314","0.0-6.0-2.30","A2PUL3ZDXOW0VZ","2022-05-23T18:27:34.946Z","rhyme-task_switching-same_different-phon_sim","","1913.699999988079","rhyme","<div style=""border: 3px solid #000000; position: fixed;left:14%;top:30%""><img src=""visual/king.png"" width=""300""></div><div style=""border: 3px solid #000000; position: fixed;left:64%;top:30%""><img src=""visual/ring.png"" width=""300""></div>","arrowup","","true","experiment","visual/king.png","visual/ring.png","ArrowUp","ortho","","","","","","","","","","","","","","","","","","","","","","","","","","","",""
"","","","","","html-keyboard-response","110","807320","0.0-6.0-0.31","A2PUL3ZDXOW0VZ","2022-05-23T18:27:34.946Z","rhyme-task_switching-same_different-phon_sim","","null","rhyme","<div style=""font-size:60px;"">+</div>","null","1000","","","","","","","","","","","","","","","","","","","","","","","","","","","","","","","","","",""
"","","","","","html-keyboard-response","111","807833","0.0-6.0-1.31","A2PUL3ZDXOW0VZ","2022-05-23T18:27:34.946Z","rhyme-task_switching-same_different-phon_sim","","null","rhyme","<img src=""square.png"" width=""306"" height=""306"" style=""position: fixed;left:14%;top:30%""><img src=""square.png"" width=""306"" height=""306"" style=""position: fixed;left:64%;top:30%"">","null","","","","","","","","","","","","","","","","","","","","","","","","","","","","","","","","","","",""
"","","","","","html-keyboard-response","112","809387","0.0-6.0-2.31","A2PUL3ZDXOW0VZ","2022-05-23T18:27:34.946Z","rhyme-task_switching-same_different-phon_sim","","1551.699999988079","rhyme","<div style=""border: 3px solid #000000; position: fixed;left:14%;top:30%""><img src=""visual/star.png"" width=""300""></div><div style=""border: 3px solid #000000; position: fixed;left:64%;top:30%""><img src=""visual/jar.png"" width=""300""></div>","arrowup","","true","experiment","visual/star.png","visual/jar.png","ArrowUp","ortho","","","","","","","","","","","","","","","","","","","","","","","","","","","",""
"","","","","","html-keyboard-response","113","810415","0.0-6.0-0.32","A2PUL3ZDXOW0VZ","2022-05-23T18:27:34.946Z","rhyme-task_switching-same_different-phon_sim","","null","rhyme","<div style=""font-size:60px;"">+</div>","null","1000","","","","","","","","","","","","","","","","","","","","","","","","","","","","","","","","","",""
"","","","","","html-keyboard-response","114","810918","0.0-6.0-1.32","A2PUL3ZDXOW0VZ","2022-05-23T18:27:34.946Z","rhyme-task_switching-same_different-phon_sim","","null","rhyme","<img src=""square.png"" width=""306"" height=""306"" style=""position: fixed;left:14%;top:30%""><img src=""square.png"" width=""306"" height=""306"" style=""position: fixed;left:64%;top:30%"">","null","","","","","","","","","","","","","","","","","","","","","","","","","","","","","","","","","","",""
"","","","","","html-keyboard-response","115","812789","0.0-6.0-2.32","A2PUL3ZDXOW0VZ","2022-05-23T18:27:34.946Z","rhyme-task_switching-same_different-phon_sim","","1870.199999988079","rhyme","<div style=""border: 3px solid #000000; position: fixed;left:14%;top:30%""><img src=""visual/soap.png"" width=""300""></div><div style=""border: 3px solid #000000; position: fixed;left:64%;top:30%""><img src=""visual/shoe.png"" width=""300""></div>","arrowdown","","true","experiment","visual/soap.png","visual/shoe.png","ArrowDown","NR","","","","","","","","","","","","","","","","","","","","","","","","","","","",""
"","","","","","html-keyboard-response","116","813551","0.0-6.0-0.33","A2PUL3ZDXOW0VZ","2022-05-23T18:27:34.946Z","rhyme-task_switching-same_different-phon_sim","","null","rhyme","<div style=""font-size:60px;"">+</div>","null","750","","","","","","","","","","","","","","","","","","","","","","","","","","","","","","","","","",""
"","","","","","html-keyboard-response","117","814066","0.0-6.0-1.33","A2PUL3ZDXOW0VZ","2022-05-23T18:27:34.946Z","rhyme-task_switching-same_different-phon_sim","","null","rhyme","<img src=""square.png"" width=""306"" height=""306"" style=""position: fixed;left:14%;top:30%""><img src=""square.png"" width=""306"" height=""306"" style=""position: fixed;left:64%;top:30%"">","null","","","","","","","","","","","","","","","","","","","","","","","","","","","","","","","","","","",""
"","","","","","html-keyboard-response","118","815947","0.0-6.0-2.33","A2PUL3ZDXOW0VZ","2022-05-23T18:27:34.946Z","rhyme-task_switching-same_different-phon_sim","","1879.5","rhyme","<div style=""border: 3px solid #000000; position: fixed;left:14%;top:30%""><img src=""visual/drawer.png"" width=""300""></div><div style=""border: 3px solid #000000; position: fixed;left:64%;top:30%""><img src=""visual/door.png"" width=""300""></div>","arrowup","","true","experiment","visual/drawer.png","visual/door.png","ArrowUp","non-ortho","","","","","","","","","","","","","","","","","","","","","","","","","","","",""
"","","","","","html-keyboard-response","119","816703","0.0-6.0-0.34","A2PUL3ZDXOW0VZ","2022-05-23T18:27:34.946Z","rhyme-task_switching-same_different-phon_sim","","null","rhyme","<div style=""font-size:60px;"">+</div>","null","750","","","","","","","","","","","","","","","","","","","","","","","","","","","","","","","","","",""
"","","","","","html-keyboard-response","120","817205","0.0-6.0-1.34","A2PUL3ZDXOW0VZ","2022-05-23T18:27:34.946Z","rhyme-task_switching-same_different-phon_sim","","null","rhyme","<img src=""square.png"" width=""306"" height=""306"" style=""position: fixed;left:14%;top:30%""><img src=""square.png"" width=""306"" height=""306"" style=""position: fixed;left:64%;top:30%"">","null","","","","","","","","","","","","","","","","","","","","","","","","","","","","","","","","","","",""
"","","","","","html-keyboard-response","121","819173","0.0-6.0-2.34","A2PUL3ZDXOW0VZ","2022-05-23T18:27:34.946Z","rhyme-task_switching-same_different-phon_sim","","1965.699999988079","rhyme","<div style=""border: 3px solid #000000; position: fixed;left:14%;top:30%""><img src=""visual/cake.png"" width=""300""></div><div style=""border: 3px solid #000000; position: fixed;left:64%;top:30%""><img src=""visual/rake.png"" width=""300""></div>","arrowup","","true","experiment","visual/cake.png","visual/rake.png","ArrowUp","ortho","","","","","","","","","","","","","","","","","","","","","","","","","","","",""
"","","","","","html-keyboard-response","122","819924","0.0-6.0-0.35","A2PUL3ZDXOW0VZ","2022-05-23T18:27:34.946Z","rhyme-task_switching-same_different-phon_sim","","null","rhyme","<div style=""font-size:60px;"">+</div>","null","750","","","","","","","","","","","","","","","","","","","","","","","","","","","","","","","","","",""
"","","","","","html-keyboard-response","123","820438","0.0-6.0-1.35","A2PUL3ZDXOW0VZ","2022-05-23T18:27:34.946Z","rhyme-task_switching-same_different-phon_sim","","null","rhyme","<img src=""square.png"" width=""306"" height=""306"" style=""position: fixed;left:14%;top:30%""><img src=""square.png"" width=""306"" height=""306"" style=""position: fixed;left:64%;top:30%"">","null","","","","","","","","","","","","","","","","","","","","","","","","","","","","","","","","","","",""
"","","","","","html-keyboard-response","124","822160","0.0-6.0-2.35","A2PUL3ZDXOW0VZ","2022-05-23T18:27:34.946Z","rhyme-task_switching-same_different-phon_sim","","1720.3999999761581","rhyme","<div style=""border: 3px solid #000000; position: fixed;left:14%;top:30%""><img src=""visual/well.png"" width=""300""></div><div style=""border: 3px solid #000000; position: fixed;left:64%;top:30%""><img src=""visual/bell.png"" width=""300""></div>","arrowup","","true","experiment","visual/well.png","visual/bell.png","ArrowUp","ortho","","","","","","","","","","","","","","","","","","","","","","","","","","","",""
"","","","","","html-keyboard-response","125","822415","0.0-6.0-0.36","A2PUL3ZDXOW0VZ","2022-05-23T18:27:34.946Z","rhyme-task_switching-same_different-phon_sim","","null","rhyme","<div style=""font-size:60px;"">+</div>","null","250","","","","","","","","","","","","","","","","","","","","","","","","","","","","","","","","","",""
"","","","","","html-keyboard-response","126","822917","0.0-6.0-1.36","A2PUL3ZDXOW0VZ","2022-05-23T18:27:34.946Z","rhyme-task_switching-same_different-phon_sim","","null","rhyme","<img src=""square.png"" width=""306"" height=""306"" style=""position: fixed;left:14%;top:30%""><img src=""square.png"" width=""306"" height=""306"" style=""position: fixed;left:64%;top:30%"">","null","","","","","","","","","","","","","","","","","","","","","","","","","","","","","","","","","","",""
"","","","","","html-keyboard-response","127","825620","0.0-6.0-2.36","A2PUL3ZDXOW0VZ","2022-05-23T18:27:34.946Z","rhyme-task_switching-same_different-phon_sim","","2701.300000011921","rhyme","<div style=""border: 3px solid #000000; position: fixed;left:14%;top:30%""><img src=""visual/drum.png"" width=""300""></div><div style=""border: 3px solid #000000; position: fixed;left:64%;top:30%""><img src=""visual/thumb.png"" width=""300""></div>","arrowup","","true","experiment","visual/drum.png","visual/thumb.png","ArrowUp","non-ortho","","","","","","","","","","","","","","","","","","","","","","","","","","","",""
"","","","","","html-keyboard-response","128","826124","0.0-6.0-0.37","A2PUL3ZDXOW0VZ","2022-05-23T18:27:34.946Z","rhyme-task_switching-same_different-phon_sim","","null","rhyme","<div style=""font-size:60px;"">+</div>","null","500","","","","","","","","","","","","","","","","","","","","","","","","","","","","","","","","","",""
"","","","","","html-keyboard-response","129","826639","0.0-6.0-1.37","A2PUL3ZDXOW0VZ","2022-05-23T18:27:34.946Z","rhyme-task_switching-same_different-phon_sim","","null","rhyme","<img src=""square.png"" width=""306"" height=""306"" style=""position: fixed;left:14%;top:30%""><img src=""square.png"" width=""306"" height=""306"" style=""position: fixed;left:64%;top:30%"">","null","","","","","","","","","","","","","","","","","","","","","","","","","","","","","","","","","","",""
"","","","","","html-keyboard-response","130","829184","0.0-6.0-2.37","A2PUL3ZDXOW0VZ","2022-05-23T18:27:34.946Z","rhyme-task_switching-same_different-phon_sim","","2542.900000035763","rhyme","<div style=""border: 3px solid #000000; position: fixed;left:14%;top:30%""><img src=""visual/bear.png"" width=""300""></div><div style=""border: 3px solid #000000; position: fixed;left:64%;top:30%""><img src=""visual/crane.png"" width=""300""></div>","arrowdown","","true","experiment","visual/bear.png","visual/crane.png","ArrowDown","NR","","","","","","","","","","","","","","","","","","","","","","","","","","","",""
"","","","","","html-keyboard-response","131","829447","0.0-6.0-0.38","A2PUL3ZDXOW0VZ","2022-05-23T18:27:34.946Z","rhyme-task_switching-same_different-phon_sim","","null","rhyme","<div style=""font-size:60px;"">+</div>","null","250","","","","","","","","","","","","","","","","","","","","","","","","","","","","","","","","","",""
"","","","","","html-keyboard-response","132","829961","0.0-6.0-1.38","A2PUL3ZDXOW0VZ","2022-05-23T18:27:34.946Z","rhyme-task_switching-same_different-phon_sim","","null","rhyme","<img src=""square.png"" width=""306"" height=""306"" style=""position: fixed;left:14%;top:30%""><img src=""square.png"" width=""306"" height=""306"" style=""position: fixed;left:64%;top:30%"">","null","","","","","","","","","","","","","","","","","","","","","","","","","","","","","","","","","","",""
"","","","","","html-keyboard-response","133","831925","0.0-6.0-2.38","A2PUL3ZDXOW0VZ","2022-05-23T18:27:34.946Z","rhyme-task_switching-same_different-phon_sim","","1962.199999988079","rhyme","<div style=""border: 3px solid #000000; position: fixed;left:14%;top:30%""><img src=""visual/train.png"" width=""300""></div><div style=""border: 3px solid #000000; position: fixed;left:64%;top:30%""><img src=""visual/crane.png"" width=""300""></div>","arrowup","","true","experiment","visual/train.png","visual/crane.png","ArrowUp","non-ortho","","","","","","","","","","","","","","","","","","","","","","","","","","","",""
"","","","","","html-keyboard-response","134","832940","0.0-6.0-0.39","A2PUL3ZDXOW0VZ","2022-05-23T18:27:34.946Z","rhyme-task_switching-same_different-phon_sim","","null","rhyme","<div style=""font-size:60px;"">+</div>","null","1000","","","","","","","","","","","","","","","","","","","","","","","","","","","","","","","","","",""
"","","","","","html-keyboard-response","135","833442","0.0-6.0-1.39","A2PUL3ZDXOW0VZ","2022-05-23T18:27:34.946Z","rhyme-task_switching-same_different-phon_sim","","null","rhyme","<img src=""square.png"" width=""306"" height=""306"" style=""position: fixed;left:14%;top:30%""><img src=""square.png"" width=""306"" height=""306"" style=""position: fixed;left:64%;top:30%"">","null","","","","","","","","","","","","","","","","","","","","","","","","","","","","","","","","","","",""
"","","","","","html-keyboard-response","136","836213","0.0-6.0-2.39","A2PUL3ZDXOW0VZ","2022-05-23T18:27:34.946Z","rhyme-task_switching-same_different-phon_sim","","2769.300000011921","rhyme","<div style=""border: 3px solid #000000; position: fixed;left:14%;top:30%""><img src=""visual/egg.png"" width=""300""></div><div style=""border: 3px solid #000000; position: fixed;left:64%;top:30%""><img src=""visual/leg.png"" width=""300""></div>","arrowup","","true","experiment","visual/egg.png","visual/leg.png","ArrowUp","ortho","","","","","","","","","","","","","","","","","","","","","","","","","","","",""
"","","","","","html-keyboard-response","137","836979","0.0-6.0-0.40","A2PUL3ZDXOW0VZ","2022-05-23T18:27:34.946Z","rhyme-task_switching-same_different-phon_sim","","null","rhyme","<div style=""font-size:60px;"">+</div>","null","750","","","","","","","","","","","","","","","","","","","","","","","","","","","","","","","","","",""
"","","","","","html-keyboard-response","138","837492","0.0-6.0-1.40","A2PUL3ZDXOW0VZ","2022-05-23T18:27:34.946Z","rhyme-task_switching-same_different-phon_sim","","null","rhyme","<img src=""square.png"" width=""306"" height=""306"" style=""position: fixed;left:14%;top:30%""><img src=""square.png"" width=""306"" height=""306"" style=""position: fixed;left:64%;top:30%"">","null","","","","","","","","","","","","","","","","","","","","","","","","","","","","","","","","","","",""
"","","","","","html-keyboard-response","139","842497","0.0-6.0-2.40","A2PUL3ZDXOW0VZ","2022-05-23T18:27:34.946Z","rhyme-task_switching-same_different-phon_sim","","null","rhyme","<div style=""border: 3px solid #000000; position: fixed;left:14%;top:30%""><img src=""visual/fan.png"" width=""300""></div><div style=""border: 3px solid #000000; position: fixed;left:64%;top:30%""><img src=""visual/man.png"" width=""300""></div>","null","","false","experiment","visual/fan.png","visual/man.png","ArrowUp","ortho","","","","","","","","","","","","","","","","","","","","","","","","","","","",""
"","","","","","html-keyboard-response","140","843251","0.0-6.0-0.41","A2PUL3ZDXOW0VZ","2022-05-23T18:27:34.946Z","rhyme-task_switching-same_different-phon_sim","","null","rhyme","<div style=""font-size:60px;"">+</div>","null","750","","","","","","","","","","","","","","","","","","","","","","","","","","","","","","","","","",""
"","","","","","html-keyboard-response","141","843764","0.0-6.0-1.41","A2PUL3ZDXOW0VZ","2022-05-23T18:27:34.946Z","rhyme-task_switching-same_different-phon_sim","","null","rhyme","<img src=""square.png"" width=""306"" height=""306"" style=""position: fixed;left:14%;top:30%""><img src=""square.png"" width=""306"" height=""306"" style=""position: fixed;left:64%;top:30%"">","null","","","","","","","","","","","","","","","","","","","","","","","","","","","","","","","","","","",""
"","","","","","html-keyboard-response","142","846192","0.0-6.0-2.41","A2PUL3ZDXOW0VZ","2022-05-23T18:27:34.946Z","rhyme-task_switching-same_different-phon_sim","","2426","rhyme","<div style=""border: 3px solid #000000; position: fixed;left:14%;top:30%""><img src=""visual/claw.png"" width=""300""></div><div style=""border: 3px solid #000000; position: fixed;left:64%;top:30%""><img src=""visual/beer.png"" width=""300""></div>","arrowdown","","true","experiment","visual/claw.png","visual/beer.png","ArrowDown","NR","","","","","","","","","","","","","","","","","","","","","","","","","","","",""
"","","","","","html-keyboard-response","143","846949","0.0-6.0-0.42","A2PUL3ZDXOW0VZ","2022-05-23T18:27:34.946Z","rhyme-task_switching-same_different-phon_sim","","null","rhyme","<div style=""font-size:60px;"">+</div>","null","750","","","","","","","","","","","","","","","","","","","","","","","","","","","","","","","","","",""
"","","","","","html-keyboard-response","144","847466","0.0-6.0-1.42","A2PUL3ZDXOW0VZ","2022-05-23T18:27:34.946Z","rhyme-task_switching-same_different-phon_sim","","null","rhyme","<img src=""square.png"" width=""306"" height=""306"" style=""position: fixed;left:14%;top:30%""><img src=""square.png"" width=""306"" height=""306"" style=""position: fixed;left:64%;top:30%"">","null","","","","","","","","","","","","","","","","","","","","","","","","","","","","","","","","","","",""
"","","","","","html-keyboard-response","145","849489","0.0-6.0-2.42","A2PUL3ZDXOW0VZ","2022-05-23T18:27:34.946Z","rhyme-task_switching-same_different-phon_sim","","2021.300000011921","rhyme","<div style=""border: 3px solid #000000; position: fixed;left:14%;top:30%""><img src=""visual/brain.png"" width=""300""></div><div style=""border: 3px solid #000000; position: fixed;left:64%;top:30%""><img src=""visual/clock.png"" width=""300""></div>","arrowdown","","true","experiment","visual/brain.png","visual/clock.png","ArrowDown","NR","","","","","","","","","","","","","","","","","","","","","","","","","","","",""
"","","","","","html-keyboard-response","146","850506","0.0-6.0-0.43","A2PUL3ZDXOW0VZ","2022-05-23T18:27:34.946Z","rhyme-task_switching-same_different-phon_sim","","null","rhyme","<div style=""font-size:60px;"">+</div>","null","1000","","","","","","","","","","","","","","","","","","","","","","","","","","","","","","","","","",""
"","","","","","html-keyboard-response","147","851008","0.0-6.0-1.43","A2PUL3ZDXOW0VZ","2022-05-23T18:27:34.946Z","rhyme-task_switching-same_different-phon_sim","","null","rhyme","<img src=""square.png"" width=""306"" height=""306"" style=""position: fixed;left:14%;top:30%""><img src=""square.png"" width=""306"" height=""306"" style=""position: fixed;left:64%;top:30%"">","null","","","","","","","","","","","","","","","","","","","","","","","","","","","","","","","","","","",""
"","","","","","html-keyboard-response","148","852736","0.0-6.0-2.43","A2PUL3ZDXOW0VZ","2022-05-23T18:27:34.946Z","rhyme-task_switching-same_different-phon_sim","","1725.4000000357628","rhyme","<div style=""border: 3px solid #000000; position: fixed;left:14%;top:30%""><img src=""visual/cat.png"" width=""300""></div><div style=""border: 3px solid #000000; position: fixed;left:64%;top:30%""><img src=""visual/sock.png"" width=""300""></div>","arrowdown","","true","experiment","visual/cat.png","visual/sock.png","ArrowDown","NR","","","","","","","","","","","","","","","","","","","","","","","","","","","",""
"","","","","","html-keyboard-response","149","853247","0.0-6.0-0.44","A2PUL3ZDXOW0VZ","2022-05-23T18:27:34.946Z","rhyme-task_switching-same_different-phon_sim","","null","rhyme","<div style=""font-size:60px;"">+</div>","null","500","","","","","","","","","","","","","","","","","","","","","","","","","","","","","","","","","",""
"","","","","","html-keyboard-response","150","853760","0.0-6.0-1.44","A2PUL3ZDXOW0VZ","2022-05-23T18:27:34.946Z","rhyme-task_switching-same_different-phon_sim","","null","rhyme","<img src=""square.png"" width=""306"" height=""306"" style=""position: fixed;left:14%;top:30%""><img src=""square.png"" width=""306"" height=""306"" style=""position: fixed;left:64%;top:30%"">","null","","","","","","","","","","","","","","","","","","","","","","","","","","","","","","","","","","",""
"","","","","","html-keyboard-response","151","856295","0.0-6.0-2.44","A2PUL3ZDXOW0VZ","2022-05-23T18:27:34.946Z","rhyme-task_switching-same_different-phon_sim","","2534.099999964237","rhyme","<div style=""border: 3px solid #000000; position: fixed;left:14%;top:30%""><img src=""visual/snail.png"" width=""300""></div><div style=""border: 3px solid #000000; position: fixed;left:64%;top:30%""><img src=""visual/whale.png"" width=""300""></div>","arrowup","","true","experiment","visual/snail.png","visual/whale.png","ArrowUp","non-ortho","","","","","","","","","","","","","","","","","","","","","","","","","","","",""
"","","","","","html-keyboard-response","152","857056","0.0-6.0-0.45","A2PUL3ZDXOW0VZ","2022-05-23T18:27:34.946Z","rhyme-task_switching-same_different-phon_sim","","null","rhyme","<div style=""font-size:60px;"">+</div>","null","750","","","","","","","","","","","","","","","","","","","","","","","","","","","","","","","","","",""
"","","","","","html-keyboard-response","153","857572","0.0-6.0-1.45","A2PUL3ZDXOW0VZ","2022-05-23T18:27:34.946Z","rhyme-task_switching-same_different-phon_sim","","null","rhyme","<img src=""square.png"" width=""306"" height=""306"" style=""position: fixed;left:14%;top:30%""><img src=""square.png"" width=""306"" height=""306"" style=""position: fixed;left:64%;top:30%"">","null","","","","","","","","","","","","","","","","","","","","","","","","","","","","","","","","","","",""
"","","","","","html-keyboard-response","154","860157","0.0-6.0-2.45","A2PUL3ZDXOW0VZ","2022-05-23T18:27:34.946Z","rhyme-task_switching-same_different-phon_sim","","2582.600000023842","rhyme","<div style=""border: 3px solid #000000; position: fixed;left:14%;top:30%""><img src=""visual/fly.png"" width=""300""></div><div style=""border: 3px solid #000000; position: fixed;left:64%;top:30%""><img src=""visual/plane.png"" width=""300""></div>","arrowdown","","true","experiment","visual/fly.png","visual/plane.png","ArrowDown","NR","","","","","","","","","","","","","","","","","","","","","","","","","","","",""
"","","","","","html-keyboard-response","155","860671","0.0-6.0-0.46","A2PUL3ZDXOW0VZ","2022-05-23T18:27:34.946Z","rhyme-task_switching-same_different-phon_sim","","null","rhyme","<div style=""font-size:60px;"">+</div>","null","500","","","","","","","","","","","","","","","","","","","","","","","","","","","","","","","","","",""
"","","","","","html-keyboard-response","156","861172","0.0-6.0-1.46","A2PUL3ZDXOW0VZ","2022-05-23T18:27:34.946Z","rhyme-task_switching-same_different-phon_sim","","null","rhyme","<img src=""square.png"" width=""306"" height=""306"" style=""position: fixed;left:14%;top:30%""><img src=""square.png"" width=""306"" height=""306"" style=""position: fixed;left:64%;top:30%"">","null","","","","","","","","","","","","","","","","","","","","","","","","","","","","","","","","","","",""
"","","","","","html-keyboard-response","157","863598","0.0-6.0-2.46","A2PUL3ZDXOW0VZ","2022-05-23T18:27:34.946Z","rhyme-task_switching-same_different-phon_sim","","2424.300000011921","rhyme","<div style=""border: 3px solid #000000; position: fixed;left:14%;top:30%""><img src=""visual/well.png"" width=""300""></div><div style=""border: 3px solid #000000; position: fixed;left:64%;top:30%""><img src=""visual/rose.png"" width=""300""></div>","arrowdown","","true","experiment","visual/well.png","visual/rose.png","ArrowDown","NR","","","","","","","","","","","","","","","","","","","","","","","","","","","",""
"","","","","","html-keyboard-response","158","864607","0.0-6.0-0.47","A2PUL3ZDXOW0VZ","2022-05-23T18:27:34.946Z","rhyme-task_switching-same_different-phon_sim","","null","rhyme","<div style=""font-size:60px;"">+</div>","null","1000","","","","","","","","","","","","","","","","","","","","","","","","","","","","","","","","","",""
"","","","","","html-keyboard-response","159","865124","0.0-6.0-1.47","A2PUL3ZDXOW0VZ","2022-05-23T18:27:34.946Z","rhyme-task_switching-same_different-phon_sim","","null","rhyme","<img src=""square.png"" width=""306"" height=""306"" style=""position: fixed;left:14%;top:30%""><img src=""square.png"" width=""306"" height=""306"" style=""position: fixed;left:64%;top:30%"">","null","","","","","","","","","","","","","","","","","","","","","","","","","","","","","","","","","","",""
"","","","","","html-keyboard-response","160","867421","0.0-6.0-2.47","A2PUL3ZDXOW0VZ","2022-05-23T18:27:34.946Z","rhyme-task_switching-same_different-phon_sim","","2295.199999988079","rhyme","<div style=""border: 3px solid #000000; position: fixed;left:14%;top:30%""><img src=""visual/shark.png"" width=""300""></div><div style=""border: 3px solid #000000; position: fixed;left:64%;top:30%""><img src=""visual/moon.png"" width=""300""></div>","arrowdown","","true","experiment","visual/shark.png","visual/moon.png","ArrowDown","NR","","","","","","","","","","","","","","","","","","","","","","","","","","","",""
"","","","","","html-keyboard-response","161","868425","0.0-6.0-0.48","A2PUL3ZDXOW0VZ","2022-05-23T18:27:34.946Z","rhyme-task_switching-same_different-phon_sim","","null","rhyme","<div style=""font-size:60px;"">+</div>","null","1000","","","","","","","","","","","","","","","","","","","","","","","","","","","","","","","","","",""
"","","","","","html-keyboard-response","162","868936","0.0-6.0-1.48","A2PUL3ZDXOW0VZ","2022-05-23T18:27:34.946Z","rhyme-task_switching-same_different-phon_sim","","null","rhyme","<img src=""square.png"" width=""306"" height=""306"" style=""position: fixed;left:14%;top:30%""><img src=""square.png"" width=""306"" height=""306"" style=""position: fixed;left:64%;top:30%"">","null","","","","","","","","","","","","","","","","","","","","","","","","","","","","","","","","","","",""
"","","","","","html-keyboard-response","163","870701","0.0-6.0-2.48","A2PUL3ZDXOW0VZ","2022-05-23T18:27:34.946Z","rhyme-task_switching-same_different-phon_sim","","1762.7999999523163","rhyme","<div style=""border: 3px solid #000000; position: fixed;left:14%;top:30%""><img src=""visual/key.png"" width=""300""></div><div style=""border: 3px solid #000000; position: fixed;left:64%;top:30%""><img src=""visual/snail.png"" width=""300""></div>","arrowdown","","true","experiment","visual/key.png","visual/snail.png","ArrowDown","NR","","","","","","","","","","","","","","","","","","","","","","","","","","","",""
"","","","","","html-keyboard-response","164","871712","0.0-6.0-0.49","A2PUL3ZDXOW0VZ","2022-05-23T18:27:34.946Z","rhyme-task_switching-same_different-phon_sim","","null","rhyme","<div style=""font-size:60px;"">+</div>","null","1000","","","","","","","","","","","","","","","","","","","","","","","","","","","","","","","","","",""
"","","","","","html-keyboard-response","165","872225","0.0-6.0-1.49","A2PUL3ZDXOW0VZ","2022-05-23T18:27:34.946Z","rhyme-task_switching-same_different-phon_sim","","null","rhyme","<img src=""square.png"" width=""306"" height=""306"" style=""position: fixed;left:14%;top:30%""><img src=""square.png"" width=""306"" height=""306"" style=""position: fixed;left:64%;top:30%"">","null","","","","","","","","","","","","","","","","","","","","","","","","","","","","","","","","","","",""
"","","","","","html-keyboard-response","166","874503","0.0-6.0-2.49","A2PUL3ZDXOW0VZ","2022-05-23T18:27:34.946Z","rhyme-task_switching-same_different-phon_sim","","2276.099999964237","rhyme","<div style=""border: 3px solid #000000; position: fixed;left:14%;top:30%""><img src=""visual/chain.png"" width=""300""></div><div style=""border: 3px solid #000000; position: fixed;left:64%;top:30%""><img src=""visual/brain.png"" width=""300""></div>","arrowup","","true","experiment","visual/chain.png","visual/brain.png","ArrowUp","ortho","","","","","","","","","","","","","","","","","","","","","","","","","","","",""
"","","","","","html-keyboard-response","167","875513","0.0-6.0-0.50","A2PUL3ZDXOW0VZ","2022-05-23T18:27:34.946Z","rhyme-task_switching-same_different-phon_sim","","null","rhyme","<div style=""font-size:60px;"">+</div>","null","1000","","","","","","","","","","","","","","","","","","","","","","","","","","","","","","","","","",""
"","","","","","html-keyboard-response","168","876029","0.0-6.0-1.50","A2PUL3ZDXOW0VZ","2022-05-23T18:27:34.946Z","rhyme-task_switching-same_different-phon_sim","","null","rhyme","<img src=""square.png"" width=""306"" height=""306"" style=""position: fixed;left:14%;top:30%""><img src=""square.png"" width=""306"" height=""306"" style=""position: fixed;left:64%;top:30%"">","null","","","","","","","","","","","","","","","","","","","","","","","","","","","","","","","","","","",""
"","","","","","html-keyboard-response","169","877719","0.0-6.0-2.50","A2PUL3ZDXOW0VZ","2022-05-23T18:27:34.946Z","rhyme-task_switching-same_different-phon_sim","","1688.5999999642372","rhyme","<div style=""border: 3px solid #000000; position: fixed;left:14%;top:30%""><img src=""visual/box.png"" width=""300""></div><div style=""border: 3px solid #000000; position: fixed;left:64%;top:30%""><img src=""visual/fox.png"" width=""300""></div>","arrowup","","true","experiment","visual/box.png","visual/fox.png","ArrowUp","ortho","","","","","","","","","","","","","","","","","","","","","","","","","","","",""
"","","","","","html-keyboard-response","170","878475","0.0-6.0-0.51","A2PUL3ZDXOW0VZ","2022-05-23T18:27:34.946Z","rhyme-task_switching-same_different-phon_sim","","null","rhyme","<div style=""font-size:60px;"">+</div>","null","750","","","","","","","","","","","","","","","","","","","","","","","","","","","","","","","","","",""
"","","","","","html-keyboard-response","171","878991","0.0-6.0-1.51","A2PUL3ZDXOW0VZ","2022-05-23T18:27:34.946Z","rhyme-task_switching-same_different-phon_sim","","null","rhyme","<img src=""square.png"" width=""306"" height=""306"" style=""position: fixed;left:14%;top:30%""><img src=""square.png"" width=""306"" height=""306"" style=""position: fixed;left:64%;top:30%"">","null","","","","","","","","","","","","","","","","","","","","","","","","","","","","","","","","","","",""
"","","","","","html-keyboard-response","172","880808","0.0-6.0-2.51","A2PUL3ZDXOW0VZ","2022-05-23T18:27:34.946Z","rhyme-task_switching-same_different-phon_sim","","1815","rhyme","<div style=""border: 3px solid #000000; position: fixed;left:14%;top:30%""><img src=""visual/shark.png"" width=""300""></div><div style=""border: 3px solid #000000; position: fixed;left:64%;top:30%""><img src=""visual/park.png"" width=""300""></div>","arrowup","","true","experiment","visual/shark.png","visual/park.png","ArrowUp","ortho","","","","","","","","","","","","","","","","","","","","","","","","","","","",""
"","","","","","html-keyboard-response","173","881823","0.0-6.0-0.52","A2PUL3ZDXOW0VZ","2022-05-23T18:27:34.946Z","rhyme-task_switching-same_different-phon_sim","","null","rhyme","<div style=""font-size:60px;"">+</div>","null","1000","","","","","","","","","","","","","","","","","","","","","","","","","","","","","","","","","",""
"","","","","","html-keyboard-response","174","882336","0.0-6.0-1.52","A2PUL3ZDXOW0VZ","2022-05-23T18:27:34.946Z","rhyme-task_switching-same_different-phon_sim","","null","rhyme","<img src=""square.png"" width=""306"" height=""306"" style=""position: fixed;left:14%;top:30%""><img src=""square.png"" width=""306"" height=""306"" style=""position: fixed;left:64%;top:30%"">","null","","","","","","","","","","","","","","","","","","","","","","","","","","","","","","","","","","",""
"","","","","","html-keyboard-response","175","884680","0.0-6.0-2.52","A2PUL3ZDXOW0VZ","2022-05-23T18:27:34.946Z","rhyme-task_switching-same_different-phon_sim","","2342.100000023842","rhyme","<div style=""border: 3px solid #000000; position: fixed;left:14%;top:30%""><img src=""visual/plane.png"" width=""300""></div><div style=""border: 3px solid #000000; position: fixed;left:64%;top:30%""><img src=""visual/chain.png"" width=""300""></div>","arrowup","","true","experiment","visual/plane.png","visual/chain.png","ArrowUp","non-ortho","","","","","","","","","","","","","","","","","","","","","","","","","","","",""
"","","","","","html-keyboard-response","176","885693","0.0-6.0-0.53","A2PUL3ZDXOW0VZ","2022-05-23T18:27:34.946Z","rhyme-task_switching-same_different-phon_sim","","null","rhyme","<div style=""font-size:60px;"">+</div>","null","1000","","","","","","","","","","","","","","","","","","","","","","","","","","","","","","","","","",""
"","","","","","html-keyboard-response","177","886199","0.0-6.0-1.53","A2PUL3ZDXOW0VZ","2022-05-23T18:27:34.946Z","rhyme-task_switching-same_different-phon_sim","","null","rhyme","<img src=""square.png"" width=""306"" height=""306"" style=""position: fixed;left:14%;top:30%""><img src=""square.png"" width=""306"" height=""306"" style=""position: fixed;left:64%;top:30%"">","null","","","","","","","","","","","","","","","","","","","","","","","","","","","","","","","","","","",""
"","","","","","html-keyboard-response","178","887488","0.0-6.0-2.53","A2PUL3ZDXOW0VZ","2022-05-23T18:27:34.946Z","rhyme-task_switching-same_different-phon_sim","","1287.5","rhyme","<div style=""border: 3px solid #000000; position: fixed;left:14%;top:30%""><img src=""visual/tie.png"" width=""300""></div><div style=""border: 3px solid #000000; position: fixed;left:64%;top:30%""><img src=""visual/fly.png"" width=""300""></div>","arrowup","","true","experiment","visual/tie.png","visual/fly.png","ArrowUp","non-ortho","","","","","","","","","","","","","","","","","","","","","","","","","","","",""
"","","","","","html-keyboard-response","179","888246","0.0-6.0-0.54","A2PUL3ZDXOW0VZ","2022-05-23T18:27:34.946Z","rhyme-task_switching-same_different-phon_sim","","null","rhyme","<div style=""font-size:60px;"">+</div>","null","750","","","","","","","","","","","","","","","","","","","","","","","","","","","","","","","","","",""
"","","","","","html-keyboard-response","180","888753","0.0-6.0-1.54","A2PUL3ZDXOW0VZ","2022-05-23T18:27:34.946Z","rhyme-task_switching-same_different-phon_sim","","null","rhyme","<img src=""square.png"" width=""306"" height=""306"" style=""position: fixed;left:14%;top:30%""><img src=""square.png"" width=""306"" height=""306"" style=""position: fixed;left:64%;top:30%"">","null","","","","","","","","","","","","","","","","","","","","","","","","","","","","","","","","","","",""
"","","","","","html-keyboard-response","181","891417","0.0-6.0-2.54","A2PUL3ZDXOW0VZ","2022-05-23T18:27:34.946Z","rhyme-task_switching-same_different-phon_sim","","2662.400000035763","rhyme","<div style=""border: 3px solid #000000; position: fixed;left:14%;top:30%""><img src=""visual/nail.png"" width=""300""></div><div style=""border: 3px solid #000000; position: fixed;left:64%;top:30%""><img src=""visual/whale.png"" width=""300""></div>","arrowup","","true","experiment","visual/nail.png","visual/whale.png","ArrowUp","non-ortho","","","","","","","","","","","","","","","","","","","","","","","","","","","",""
"","","","","","html-keyboard-response","182","891928","0.0-6.0-0.55","A2PUL3ZDXOW0VZ","2022-05-23T18:27:34.946Z","rhyme-task_switching-same_different-phon_sim","","null","rhyme","<div style=""font-size:60px;"">+</div>","null","500","","","","","","","","","","","","","","","","","","","","","","","","","","","","","","","","","",""
"","","","","","html-keyboard-response","183","892439","0.0-6.0-1.55","A2PUL3ZDXOW0VZ","2022-05-23T18:27:34.946Z","rhyme-task_switching-same_different-phon_sim","","null","rhyme","<img src=""square.png"" width=""306"" height=""306"" style=""position: fixed;left:14%;top:30%""><img src=""square.png"" width=""306"" height=""306"" style=""position: fixed;left:64%;top:30%"">","null","","","","","","","","","","","","","","","","","","","","","","","","","","","","","","","","","","",""
"","","","","","html-keyboard-response","184","894711","0.0-6.0-2.55","A2PUL3ZDXOW0VZ","2022-05-23T18:27:34.946Z","rhyme-task_switching-same_different-phon_sim","","2269.800000011921","rhyme","<div style=""border: 3px solid #000000; position: fixed;left:14%;top:30%""><img src=""visual/dart.png"" width=""300""></div><div style=""border: 3px solid #000000; position: fixed;left:64%;top:30%""><img src=""visual/tie.png"" width=""300""></div>","arrowdown","","true","experiment","visual/dart.png","visual/tie.png","ArrowDown","NR","","","","","","","","","","","","","","","","","","","","","","","","","","","",""
"","","","","","html-keyboard-response","185","894966","0.0-6.0-0.56","A2PUL3ZDXOW0VZ","2022-05-23T18:27:34.946Z","rhyme-task_switching-same_different-phon_sim","","null","rhyme","<div style=""font-size:60px;"">+</div>","null","250","","","","","","","","","","","","","","","","","","","","","","","","","","","","","","","","","",""
"","","","","","html-keyboard-response","186","895480","0.0-6.0-1.56","A2PUL3ZDXOW0VZ","2022-05-23T18:27:34.946Z","rhyme-task_switching-same_different-phon_sim","","null","rhyme","<img src=""square.png"" width=""306"" height=""306"" style=""position: fixed;left:14%;top:30%""><img src=""square.png"" width=""306"" height=""306"" style=""position: fixed;left:64%;top:30%"">","null","","","","","","","","","","","","","","","","","","","","","","","","","","","","","","","","","","",""
"","","","","","html-keyboard-response","187","897525","0.0-6.0-2.56","A2PUL3ZDXOW0VZ","2022-05-23T18:27:34.946Z","rhyme-task_switching-same_different-phon_sim","","2044","rhyme","<div style=""border: 3px solid #000000; position: fixed;left:14%;top:30%""><img src=""visual/chair.png"" width=""300""></div><div style=""border: 3px solid #000000; position: fixed;left:64%;top:30%""><img src=""visual/pear.png"" width=""300""></div>","arrowup","","true","experiment","visual/chair.png","visual/pear.png","ArrowUp","non-ortho","","","","","","","","","","","","","","","","","","","","","","","","","","","",""
"","","","","","html-keyboard-response","188","898277","0.0-6.0-0.57","A2PUL3ZDXOW0VZ","2022-05-23T18:27:34.946Z","rhyme-task_switching-same_different-phon_sim","","null","rhyme","<div style=""font-size:60px;"">+</div>","null","750","","","","","","","","","","","","","","","","","","","","","","","","","","","","","","","","","",""
"","","","","","html-keyboard-response","189","898790","0.0-6.0-1.57","A2PUL3ZDXOW0VZ","2022-05-23T18:27:34.946Z","rhyme-task_switching-same_different-phon_sim","","null","rhyme","<img src=""square.png"" width=""306"" height=""306"" style=""position: fixed;left:14%;top:30%""><img src=""square.png"" width=""306"" height=""306"" style=""position: fixed;left:64%;top:30%"">","null","","","","","","","","","","","","","","","","","","","","","","","","","","","","","","","","","","",""
"","","","","","html-keyboard-response","190","902908","0.0-6.0-2.57","A2PUL3ZDXOW0VZ","2022-05-23T18:27:34.946Z","rhyme-task_switching-same_different-phon_sim","","4116.100000023842","rhyme","<div style=""border: 3px solid #000000; position: fixed;left:14%;top:30%""><img src=""visual/drawer.png"" width=""300""></div><div style=""border: 3px solid #000000; position: fixed;left:64%;top:30%""><img src=""visual/chair.png"" width=""300""></div>","arrowdown","","true","experiment","visual/drawer.png","visual/chair.png","ArrowDown","NR","","","","","","","","","","","","","","","","","","","","","","","","","","","",""
"","","","","","html-keyboard-response","191","903912","0.0-6.0-0.58","A2PUL3ZDXOW0VZ","2022-05-23T18:27:34.946Z","rhyme-task_switching-same_different-phon_sim","","null","rhyme","<div style=""font-size:60px;"">+</div>","null","1000","","","","","","","","","","","","","","","","","","","","","","","","","","","","","","","","","",""
"","","","","","html-keyboard-response","192","904424","0.0-6.0-1.58","A2PUL3ZDXOW0VZ","2022-05-23T18:27:34.946Z","rhyme-task_switching-same_different-phon_sim","","null","rhyme","<img src=""square.png"" width=""306"" height=""306"" style=""position: fixed;left:14%;top:30%""><img src=""square.png"" width=""306"" height=""306"" style=""position: fixed;left:64%;top:30%"">","null","","","","","","","","","","","","","","","","","","","","","","","","","","","","","","","","","","",""
"","","","","","html-keyboard-response","193","906034","0.0-6.0-2.58","A2PUL3ZDXOW0VZ","2022-05-23T18:27:34.946Z","rhyme-task_switching-same_different-phon_sim","","1607.5","rhyme","<div style=""border: 3px solid #000000; position: fixed;left:14%;top:30%""><img src=""visual/screw.png"" width=""300""></div><div style=""border: 3px solid #000000; position: fixed;left:64%;top:30%""><img src=""visual/shoe.png"" width=""300""></div>","arrowup","","true","experiment","visual/screw.png","visual/shoe.png","ArrowUp","non-ortho","","","","","","","","","","","","","","","","","","","","","","","","","","","",""
"","","","","","html-keyboard-response","194","906798","0.0-6.0-0.59","A2PUL3ZDXOW0VZ","2022-05-23T18:27:34.946Z","rhyme-task_switching-same_different-phon_sim","","null","rhyme","<div style=""font-size:60px;"">+</div>","null","750","","","","","","","","","","","","","","","","","","","","","","","","","","","","","","","","","",""
"","","","","","html-keyboard-response","195","907315","0.0-6.0-1.59","A2PUL3ZDXOW0VZ","2022-05-23T18:27:34.946Z","rhyme-task_switching-same_different-phon_sim","","null","rhyme","<img src=""square.png"" width=""306"" height=""306"" style=""position: fixed;left:14%;top:30%""><img src=""square.png"" width=""306"" height=""306"" style=""position: fixed;left:64%;top:30%"">","null","","","","","","","","","","","","","","","","","","","","","","","","","","","","","","","","","","",""
"","","","","","html-keyboard-response","196","908598","0.0-6.0-2.59","A2PUL3ZDXOW0VZ","2022-05-23T18:27:34.946Z","rhyme-task_switching-same_different-phon_sim","","1281.1000000238419","rhyme","<div style=""border: 3px solid #000000; position: fixed;left:14%;top:30%""><img src=""visual/soap.png"" width=""300""></div><div style=""border: 3px solid #000000; position: fixed;left:64%;top:30%""><img src=""visual/rope.png"" width=""300""></div>","arrowup","","true","experiment","visual/soap.png","visual/rope.png","ArrowUp","non-ortho","","","","","","","","","","","","","","","","","","","","","","","","","","","",""
"","","","","","survey-multi-choice","197","914374","0.0-7.0","A2PUL3ZDXOW0VZ","2022-05-23T18:27:34.946Z","rhyme-task_switching-same_different-phon_sim","","5774.100000023842","rhyme","","{""Q0"":""No""}","","","","","","","","[0]","No","","","","","","","","","","","","","","","","","","","","","","","","","",""
"","","","","","survey-text","198","978741","0.0-8.0","A2PUL3ZDXOW0VZ","2022-05-23T18:27:34.946Z","rhyme-task_switching-same_different-phon_sim","","64362.40000003576","rhyme","","{""Q0"":""I spoke the words in my mind, which was sufficient.""}","","","","","","","","","","I spoke the words in my mind, which was sufficient.","","","","","","","","","","","","","","","","","","","","","","","","",""
"","","","","","instructions","199","981117","0.0-9.0","A2PUL3ZDXOW0VZ","2022-05-23T18:27:34.946Z","rhyme-task_switching-same_different-phon_sim","[{""page_index"":0,""viewing_time"":2374}]","2374.399999976158","rhyme","","","","","","","","","","","","","","","","","","","","","","","","","","","","","","","","","","","","",""
"","","","","","instructions","200","1110040","0.0-10.0","A2PUL3ZDXOW0VZ","2022-05-23T18:27:34.946Z","rhyme-task_switching-same_different-phon_sim","[{""page_index"":0,""viewing_time"":128922}]","128922.40000003576","task_switching","","","","","","","","","","","","","","","","","","","","","","","","","","","","","","","","","","","","",""
"","","","","","instructions","201","1126274","0.0-11.0","A2PUL3ZDXOW0VZ","2022-05-23T18:27:34.946Z","rhyme-task_switching-same_different-phon_sim","[{""page_index"":0,""viewing_time"":16231.899999976158}]","16232.199999988079","task_switching","","","","","","","","","","","","","","","","","","","","","","","","","","","","","","","","","","","","",""
"","","","","","survey-text","202","1130669","0.0-12.0","A2PUL3ZDXOW0VZ","2022-05-23T18:27:34.946Z","rhyme-task_switching-same_different-phon_sim","","4388.199999988079","task_switching","29","{""subtraction_ans"":""26""}","","true","training","","","","","","","","subtraction","26","subtract","","","","","","","","","","","","","","","","","","","","","",""
"","","","","","html-keyboard-response","203","1131682","0.0-13.0","A2PUL3ZDXOW0VZ","2022-05-23T18:27:34.946Z","rhyme-task_switching-same_different-phon_sim","","null","task_switching","<div style=""color:darkgreen; font-size:60px"">Well done!</div>","null","","","training","","","","","","","","subtraction","","","","","","","","","","","","","","","","","","","","","","","",""
"","","","","","survey-text","204","1133608","0.0-14.0","A2PUL3ZDXOW0VZ","2022-05-23T18:27:34.946Z","rhyme-task_switching-same_different-phon_sim","","1922.8999999761581","task_switching","33","{""subtraction_ans"":""30""}","","true","training","","","","","","","","subtraction","30","subtract","","","","","","","","","","","","","","","","","","","","","",""
"","","","","","html-keyboard-response","205","1134625","0.0-15.0","A2PUL3ZDXOW0VZ","2022-05-23T18:27:34.946Z","rhyme-task_switching-same_different-phon_sim","","null","task_switching","<div style=""color:darkgreen; font-size:60px"">Well done!</div>","null","","","training","","","","","","","","subtraction","","","","","","","","","","","","","","","","","","","","","","","",""
"","","","","","survey-text","206","1136563","0.0-16.0","A2PUL3ZDXOW0VZ","2022-05-23T18:27:34.946Z","rhyme-task_switching-same_different-phon_sim","","1935","task_switching","68","{""subtraction_ans"":""65""}","","true","training","","","","","","","","subtraction","65","subtract","","","","","","","","","","","","","","","","","","","","","",""
"","","","","","html-keyboard-response","207","1137569","0.0-17.0","A2PUL3ZDXOW0VZ","2022-05-23T18:27:34.946Z","rhyme-task_switching-same_different-phon_sim","","null","task_switching","<div style=""color:darkgreen; font-size:60px"">Well done!</div>","null","","","training","","","","","","","","subtraction","","","","","","","","","","","","","","","","","","","","","","","",""
"","","","","","survey-text","208","1139768","0.0-18.0","A2PUL3ZDXOW0VZ","2022-05-23T18:27:34.946Z","rhyme-task_switching-same_different-phon_sim","","2196.100000023842","task_switching","65","{""subtraction_ans"":""62""}","","true","training","","","","","","","","subtraction","62","subtract","","","","","","","","","","","","","","","","","","","","","",""
"","","","","","html-keyboard-response","209","1140781","0.0-19.0","A2PUL3ZDXOW0VZ","2022-05-23T18:27:34.946Z","rhyme-task_switching-same_different-phon_sim","","null","task_switching","<div style=""color:darkgreen; font-size:60px"">Well done!</div>","null","","","training","","","","","","","","subtraction","","","","","","","","","","","","","","","","","","","","","","","",""
"","","","","","survey-text","210","1144060","0.0-20.0","A2PUL3ZDXOW0VZ","2022-05-23T18:27:34.946Z","rhyme-task_switching-same_different-phon_sim","","3276.5","task_switching","50","{""subtraction_ans"":""47""}","","true","training","","","","","","","","subtraction","47","subtract","","","","","","","","","","","","","","","","","","","","","",""
"","","","","","html-keyboard-response","211","1145072","0.0-21.0","A2PUL3ZDXOW0VZ","2022-05-23T18:27:34.946Z","rhyme-task_switching-same_different-phon_sim","","null","task_switching","<div style=""color:darkgreen; font-size:60px"">Well done!</div>","null","","","training","","","","","","","","subtraction","","","","","","","","","","","","","","","","","","","","","","","",""
"","","","","","survey-text","212","1147783","0.0-22.0","A2PUL3ZDXOW0VZ","2022-05-23T18:27:34.946Z","rhyme-task_switching-same_different-phon_sim","","2708.899999976158","task_switching","35","{""subtraction_ans"":""32""}","","true","training","","","","","","","","subtraction","32","subtract","","","","","","","","","","","","","","","","","","","","","",""
