"success","timeout","failed_images","failed_audio","failed_video","trial_type","trial_index","time_elapsed","internal_node_id","worker_id","start_time","experiment_order","view_history","rt","experiment","stimulus","response","wait_time","correct","phase","image_1","image_2","cor_key","type","question_order","talk_out_loud","strategy_free_ans","word_1","word_2","word_3","word_4","word_5","original_word_set","response_1","response_2","response_3","response_4","response_5","judgment_type","stim_1","stim_2","inverted","answer","true_pos","true_neg","false_neg","false_pos","condition","operation","symbol_cue","trial_no","color_cue"
"true","false","[]","[]","[]","preload","0","3249","0.0-0.0","A1DUPOUC9RNU4L","2022-05-19T10:57:08.352Z","rhyme-phon_sim-same_different-task_switching","","","","","","","","","","","","","","","","","","","","","","","","","","","","","","","","","","","","","","","",""
"","","","","","instructions","1","1016827","0.0-1.0","A1DUPOUC9RNU4L","2022-05-19T10:57:08.352Z","rhyme-phon_sim-same_different-task_switching","[{""page_index"":0,""viewing_time"":1013577.1000000238}]","1013577.3000000119","","","","","","","","","","","","","","","","","","","","","","","","","","","","","","","","","","","","","",""
"true","","","","","fullscreen","2","1242409","0.0-2.0","A1DUPOUC9RNU4L","2022-05-19T10:57:08.352Z","rhyme-phon_sim-same_different-task_switching","","","","","","","","","","","","","","","","","","","","","","","","","","","","","","","","","","","","","","","",""
"","","","","","instructions","3","1265666","0.0-3.0","A1DUPOUC9RNU4L","2022-05-19T10:57:08.352Z","rhyme-phon_sim-same_different-task_switching","[{""page_index"":0,""viewing_time"":23255.5}]","23255.799999952316","rhyme","","","","","","","","","","","","","","","","","","","","","","","","","","","","","","","","","","","","",""
"","","","","","html-keyboard-response","4","1266678","0.0-4.0-0.0","A1DUPOUC9RNU4L","2022-05-19T10:57:08.352Z","rhyme-phon_sim-same_different-task_switching","","null","rhyme","<div style=""font-size:60px;"">+</div>","null","1000","","","","","","","","","","","","","","","","","","","","","","","","","","","","","","","","","",""
"","","","","","html-keyboard-response","5","1267196","0.0-4.0-1.0","A1DUPOUC9RNU4L","2022-05-19T10:57:08.352Z","rhyme-phon_sim-same_different-task_switching","","null","rhyme","<img src=""square.png"" width=""306"" height=""306"" style=""position: fixed;left:14%;top:30%""><img src=""square.png"" width=""306"" height=""306"" style=""position: fixed;left:64%;top:30%"">","null","","","","","","","","","","","","","","","","","","","","","","","","","","","","","","","","","","",""
"","","","","","categorize-html","6","1269579","0.0-4.0-2.0","A1DUPOUC9RNU4L","2022-05-19T10:57:08.352Z","rhyme-phon_sim-same_different-task_switching","","1368.699999988079","rhyme","<div style=""border: 3px solid #000000; position: fixed;left:14%;top:30%""><img src=""visual/house.png"" width=""300""></div><div style=""border: 3px solid #000000; position: fixed;left:64%;top:30%""><img src=""visual/mouse.png"" width=""300""></div>","arrowdown","","false","training","visual/house.png","visual/mouse.png","ArrowUp","NA","","","","","","","","","","","","","","","","","","","","","","","","","","","",""
"","","","","","html-keyboard-response","7","1269846","0.0-4.0-0.1","A1DUPOUC9RNU4L","2022-05-19T10:57:08.352Z","rhyme-phon_sim-same_different-task_switching","","null","rhyme","<div style=""font-size:60px;"">+</div>","null","250","","","","","","","","","","","","","","","","","","","","","","","","","","","","","","","","","",""
"","","","","","html-keyboard-response","8","1270350","0.0-4.0-1.1","A1DUPOUC9RNU4L","2022-05-19T10:57:08.352Z","rhyme-phon_sim-same_different-task_switching","","null","rhyme","<img src=""square.png"" width=""306"" height=""306"" style=""position: fixed;left:14%;top:30%""><img src=""square.png"" width=""306"" height=""306"" style=""position: fixed;left:64%;top:30%"">","null","","","","","","","","","","","","","","","","","","","","","","","","","","","","","","","","","","",""
"","","","","","categorize-html","9","1274098","0.0-4.0-2.1","A1DUPOUC9RNU4L","2022-05-19T10:57:08.352Z","rhyme-phon_sim-same_different-task_switching","","2732.699999988079","rhyme","<div style=""border: 3px solid #000000; position: fixed;left:14%;top:30%""><img src=""visual/chess.png"" width=""300""></div><div style=""border: 3px solid #000000; position: fixed;left:64%;top:30%""><img src=""visual/suit.png"" width=""300""></div>","arrowdown","","true","training","visual/chess.png","visual/suit.png","ArrowDown","NA","","","","","","","","","","","","","","","","","","","","","","","","","","","",""
"","","","","","html-keyboard-response","10","1274615","0.0-4.0-0.2","A1DUPOUC9RNU4L","2022-05-19T10:57:08.352Z","rhyme-phon_sim-same_different-task_switching","","null","rhyme","<div style=""font-size:60px;"">+</div>","null","500","","","","","","","","","","","","","","","","","","","","","","","","","","","","","","","","","",""
"","","","","","html-keyboard-response","11","1275119","0.0-4.0-1.2","A1DUPOUC9RNU4L","2022-05-19T10:57:08.352Z","rhyme-phon_sim-same_different-task_switching","","null","rhyme","<img src=""square.png"" width=""306"" height=""306"" style=""position: fixed;left:14%;top:30%""><img src=""square.png"" width=""306"" height=""306"" style=""position: fixed;left:64%;top:30%"">","null","","","","","","","","","","","","","","","","","","","","","","","","","","","","","","","","","","",""
"","","","","","categorize-html","12","1278302","0.0-4.0-2.2","A1DUPOUC9RNU4L","2022-05-19T10:57:08.352Z","rhyme-phon_sim-same_different-task_switching","","2165.400000035763","rhyme","<div style=""border: 3px solid #000000; position: fixed;left:14%;top:30%""><img src=""visual/mouse.png"" width=""300""></div><div style=""border: 3px solid #000000; position: fixed;left:64%;top:30%""><img src=""visual/dress.png"" width=""300""></div>","arrowdown","","true","training","visual/mouse.png","visual/dress.png","ArrowDown","NA","","","","","","","","","","","","","","","","","","","","","","","","","","","",""
"","","","","","html-keyboard-response","13","1279320","0.0-4.0-0.3","A1DUPOUC9RNU4L","2022-05-19T10:57:08.352Z","rhyme-phon_sim-same_different-task_switching","","null","rhyme","<div style=""font-size:60px;"">+</div>","null","1000","","","","","","","","","","","","","","","","","","","","","","","","","","","","","","","","","",""
"","","","","","html-keyboard-response","14","1279837","0.0-4.0-1.3","A1DUPOUC9RNU4L","2022-05-19T10:57:08.352Z","rhyme-phon_sim-same_different-task_switching","","null","rhyme","<img src=""square.png"" width=""306"" height=""306"" style=""position: fixed;left:14%;top:30%""><img src=""square.png"" width=""306"" height=""306"" style=""position: fixed;left:64%;top:30%"">","null","","","","","","","","","","","","","","","","","","","","","","","","","","","","","","","","","","",""
"","","","","","categorize-html","15","1282640","0.0-4.0-2.3","A1DUPOUC9RNU4L","2022-05-19T10:57:08.352Z","rhyme-phon_sim-same_different-task_switching","","1797.3999999761581","rhyme","<div style=""border: 3px solid #000000; position: fixed;left:14%;top:30%""><img src=""visual/dress.png"" width=""300""></div><div style=""border: 3px solid #000000; position: fixed;left:64%;top:30%""><img src=""visual/chess.png"" width=""300""></div>","arrowup","","true","training","visual/dress.png","visual/chess.png","ArrowUp","NA","","","","","","","","","","","","","","","","","","","","","","","","","","","",""
"","","","","","instructions","16","1293428","0.0-5.0","A1DUPOUC9RNU4L","2022-05-19T10:57:08.352Z","rhyme-phon_sim-same_different-task_switching","[{""page_index"":0,""viewing_time"":10787.099999964237}]","10787.299999952316","","","","","","","","","","","","","","","","","","","","","","","","","","","","","","","","","","","","","",""
"","","","","","html-keyboard-response","17","1294189","0.0-6.0-0.0","A1DUPOUC9RNU4L","2022-05-19T10:57:08.352Z","rhyme-phon_sim-same_different-task_switching","","null","rhyme","<div style=""font-size:60px;"">+</div>","null","750","","","","","","","","","","","","","","","","","","","","","","","","","","","","","","","","","",""
"","","","","","html-keyboard-response","18","1294700","0.0-6.0-1.0","A1DUPOUC9RNU4L","2022-05-19T10:57:08.352Z","rhyme-phon_sim-same_different-task_switching","","null","rhyme","<img src=""square.png"" width=""306"" height=""306"" style=""position: fixed;left:14%;top:30%""><img src=""square.png"" width=""306"" height=""306"" style=""position: fixed;left:64%;top:30%"">","null","","","","","","","","","","","","","","","","","","","","","","","","","","","","","","","","","","",""
"","","","","","html-keyboard-response","19","1296278","0.0-6.0-2.0","A1DUPOUC9RNU4L","2022-05-19T10:57:08.352Z","rhyme-phon_sim-same_different-task_switching","","1574.0999999642372","rhyme","<div style=""border: 3px solid #000000; position: fixed;left:14%;top:30%""><img src=""visual/pear.png"" width=""300""></div><div style=""border: 3px solid #000000; position: fixed;left:64%;top:30%""><img src=""visual/rope.png"" width=""300""></div>","arrowdown","","true","experiment","visual/pear.png","visual/rope.png","ArrowDown","NR","","","","","","","","","","","","","","","","","","","","","","","","","","","",""
"","","","","","html-keyboard-response","20","1297034","0.0-6.0-0.1","A1DUPOUC9RNU4L","2022-05-19T10:57:08.352Z","rhyme-phon_sim-same_different-task_switching","","null","rhyme","<div style=""font-size:60px;"">+</div>","null","750","","","","","","","","","","","","","","","","","","","","","","","","","","","","","","","","","",""
"","","","","","html-keyboard-response","21","1297536","0.0-6.0-1.1","A1DUPOUC9RNU4L","2022-05-19T10:57:08.352Z","rhyme-phon_sim-same_different-task_switching","","null","rhyme","<img src=""square.png"" width=""306"" height=""306"" style=""position: fixed;left:14%;top:30%""><img src=""square.png"" width=""306"" height=""306"" style=""position: fixed;left:64%;top:30%"">","null","","","","","","","","","","","","","","","","","","","","","","","","","","","","","","","","","","",""
"","","","","","html-keyboard-response","22","1299474","0.0-6.0-2.1","A1DUPOUC9RNU4L","2022-05-19T10:57:08.352Z","rhyme-phon_sim-same_different-task_switching","","1947.1000000238419","rhyme","<div style=""border: 3px solid #000000; position: fixed;left:14%;top:30%""><img src=""visual/tie.png"" width=""300""></div><div style=""border: 3px solid #000000; position: fixed;left:64%;top:30%""><img src=""visual/fly.png"" width=""300""></div>","arrowup","","true","experiment","visual/tie.png","visual/fly.png","ArrowUp","non-ortho","","","","","","","","","","","","","","","","","","","","","","","","","","","",""
"","","","","","html-keyboard-response","23","1300489","0.0-6.0-0.2","A1DUPOUC9RNU4L","2022-05-19T10:57:08.352Z","rhyme-phon_sim-same_different-task_switching","","null","rhyme","<div style=""font-size:60px;"">+</div>","null","1000","","","","","","","","","","","","","","","","","","","","","","","","","","","","","","","","","",""
"","","","","","html-keyboard-response","24","1300996","0.0-6.0-1.2","A1DUPOUC9RNU4L","2022-05-19T10:57:08.352Z","rhyme-phon_sim-same_different-task_switching","","null","rhyme","<img src=""square.png"" width=""306"" height=""306"" style=""position: fixed;left:14%;top:30%""><img src=""square.png"" width=""306"" height=""306"" style=""position: fixed;left:64%;top:30%"">","null","","","","","","","","","","","","","","","","","","","","","","","","","","","","","","","","","","",""
"","","","","","html-keyboard-response","25","1302313","0.0-6.0-2.2","A1DUPOUC9RNU4L","2022-05-19T10:57:08.352Z","rhyme-phon_sim-same_different-task_switching","","1315.300000011921","rhyme","<div style=""border: 3px solid #000000; position: fixed;left:14%;top:30%""><img src=""visual/bone.png"" width=""300""></div><div style=""border: 3px solid #000000; position: fixed;left:64%;top:30%""><img src=""visual/cone.png"" width=""300""></div>","arrowup","","true","experiment","visual/bone.png","visual/cone.png","ArrowUp","ortho","","","","","","","","","","","","","","","","","","","","","","","","","","","",""
"","","","","","html-keyboard-response","26","1303075","0.0-6.0-0.3","A1DUPOUC9RNU4L","2022-05-19T10:57:08.352Z","rhyme-phon_sim-same_different-task_switching","","null","rhyme","<div style=""font-size:60px;"">+</div>","null","750","","","","","","","","","","","","","","","","","","","","","","","","","","","","","","","","","",""
"","","","","","html-keyboard-response","27","1303577","0.0-6.0-1.3","A1DUPOUC9RNU4L","2022-05-19T10:57:08.352Z","rhyme-phon_sim-same_different-task_switching","","null","rhyme","<img src=""square.png"" width=""306"" height=""306"" style=""position: fixed;left:14%;top:30%""><img src=""square.png"" width=""306"" height=""306"" style=""position: fixed;left:64%;top:30%"">","null","","","","","","","","","","","","","","","","","","","","","","","","","","","","","","","","","","",""
"","","","","","html-keyboard-response","28","1304675","0.0-6.0-2.3","A1DUPOUC9RNU4L","2022-05-19T10:57:08.352Z","rhyme-phon_sim-same_different-task_switching","","1095.800000011921","rhyme","<div style=""border: 3px solid #000000; position: fixed;left:14%;top:30%""><img src=""visual/cat.png"" width=""300""></div><div style=""border: 3px solid #000000; position: fixed;left:64%;top:30%""><img src=""visual/hat.png"" width=""300""></div>","arrowup","","true","experiment","visual/cat.png","visual/hat.png","ArrowUp","ortho","","","","","","","","","","","","","","","","","","","","","","","","","","","",""
"","","","","","html-keyboard-response","29","1304928","0.0-6.0-0.4","A1DUPOUC9RNU4L","2022-05-19T10:57:08.352Z","rhyme-phon_sim-same_different-task_switching","","null","rhyme","<div style=""font-size:60px;"">+</div>","null","250","","","","","","","","","","","","","","","","","","","","","","","","","","","","","","","","","",""
"","","","","","html-keyboard-response","30","1305429","0.0-6.0-1.4","A1DUPOUC9RNU4L","2022-05-19T10:57:08.352Z","rhyme-phon_sim-same_different-task_switching","","null","rhyme","<img src=""square.png"" width=""306"" height=""306"" style=""position: fixed;left:14%;top:30%""><img src=""square.png"" width=""306"" height=""306"" style=""position: fixed;left:64%;top:30%"">","null","","","","","","","","","","","","","","","","","","","","","","","","","","","","","","","","","","",""
"","","","","","html-keyboard-response","31","1307305","0.0-6.0-2.4","A1DUPOUC9RNU4L","2022-05-19T10:57:08.352Z","rhyme-phon_sim-same_different-task_switching","","1874.800000011921","rhyme","<div style=""border: 3px solid #000000; position: fixed;left:14%;top:30%""><img src=""visual/fan.png"" width=""300""></div><div style=""border: 3px solid #000000; position: fixed;left:64%;top:30%""><img src=""visual/man.png"" width=""300""></div>","arrowup","","true","experiment","visual/fan.png","visual/man.png","ArrowUp","ortho","","","","","","","","","","","","","","","","","","","","","","","","","","","",""
"","","","","","html-keyboard-response","32","1308062","0.0-6.0-0.5","A1DUPOUC9RNU4L","2022-05-19T10:57:08.352Z","rhyme-phon_sim-same_different-task_switching","","null","rhyme","<div style=""font-size:60px;"">+</div>","null","750","","","","","","","","","","","","","","","","","","","","","","","","","","","","","","","","","",""
"","","","","","html-keyboard-response","33","1308565","0.0-6.0-1.5","A1DUPOUC9RNU4L","2022-05-19T10:57:08.352Z","rhyme-phon_sim-same_different-task_switching","","null","rhyme","<img src=""square.png"" width=""306"" height=""306"" style=""position: fixed;left:14%;top:30%""><img src=""square.png"" width=""306"" height=""306"" style=""position: fixed;left:64%;top:30%"">","null","","","","","","","","","","","","","","","","","","","","","","","","","","","","","","","","","","",""
"","","","","","html-keyboard-response","34","1310513","0.0-6.0-2.5","A1DUPOUC9RNU4L","2022-05-19T10:57:08.352Z","rhyme-phon_sim-same_different-task_switching","","1945.800000011921","rhyme","<div style=""border: 3px solid #000000; position: fixed;left:14%;top:30%""><img src=""visual/train.png"" width=""300""></div><div style=""border: 3px solid #000000; position: fixed;left:64%;top:30%""><img src=""visual/screw.png"" width=""300""></div>","arrowdown","","true","experiment","visual/train.png","visual/screw.png","ArrowDown","NR","","","","","","","","","","","","","","","","","","","","","","","","","","","",""
"","","","","","html-keyboard-response","35","1311015","0.0-6.0-0.6","A1DUPOUC9RNU4L","2022-05-19T10:57:08.352Z","rhyme-phon_sim-same_different-task_switching","","null","rhyme","<div style=""font-size:60px;"">+</div>","null","500","","","","","","","","","","","","","","","","","","","","","","","","","","","","","","","","","",""
"","","","","","html-keyboard-response","36","1311517","0.0-6.0-1.6","A1DUPOUC9RNU4L","2022-05-19T10:57:08.352Z","rhyme-phon_sim-same_different-task_switching","","null","rhyme","<img src=""square.png"" width=""306"" height=""306"" style=""position: fixed;left:14%;top:30%""><img src=""square.png"" width=""306"" height=""306"" style=""position: fixed;left:64%;top:30%"">","null","","","","","","","","","","","","","","","","","","","","","","","","","","","","","","","","","","",""
"","","","","","html-keyboard-response","37","1312697","0.0-6.0-2.6","A1DUPOUC9RNU4L","2022-05-19T10:57:08.352Z","rhyme-phon_sim-same_different-task_switching","","1176.800000011921","rhyme","<div style=""border: 3px solid #000000; position: fixed;left:14%;top:30%""><img src=""visual/king.png"" width=""300""></div><div style=""border: 3px solid #000000; position: fixed;left:64%;top:30%""><img src=""visual/ring.png"" width=""300""></div>","arrowup","","true","experiment","visual/king.png","visual/ring.png","ArrowUp","ortho","","","","","","","","","","","","","","","","","","","","","","","","","","","",""
"","","","","","html-keyboard-response","38","1313451","0.0-6.0-0.7","A1DUPOUC9RNU4L","2022-05-19T10:57:08.352Z","rhyme-phon_sim-same_different-task_switching","","null","rhyme","<div style=""font-size:60px;"">+</div>","null","750","","","","","","","","","","","","","","","","","","","","","","","","","","","","","","","","","",""
"","","","","","html-keyboard-response","39","1313952","0.0-6.0-1.7","A1DUPOUC9RNU4L","2022-05-19T10:57:08.352Z","rhyme-phon_sim-same_different-task_switching","","null","rhyme","<img src=""square.png"" width=""306"" height=""306"" style=""position: fixed;left:14%;top:30%""><img src=""square.png"" width=""306"" height=""306"" style=""position: fixed;left:64%;top:30%"">","null","","","","","","","","","","","","","","","","","","","","","","","","","","","","","","","","","","",""
"","","","","","html-keyboard-response","40","1315611","0.0-6.0-2.7","A1DUPOUC9RNU4L","2022-05-19T10:57:08.352Z","rhyme-phon_sim-same_different-task_switching","","1656.6000000238419","rhyme","<div style=""border: 3px solid #000000; position: fixed;left:14%;top:30%""><img src=""visual/tree.png"" width=""300""></div><div style=""border: 3px solid #000000; position: fixed;left:64%;top:30%""><img src=""visual/door.png"" width=""300""></div>","arrowdown","","true","experiment","visual/tree.png","visual/door.png","ArrowDown","NR","","","","","","","","","","","","","","","","","","","","","","","","","","","",""
"","","","","","html-keyboard-response","41","1316367","0.0-6.0-0.8","A1DUPOUC9RNU4L","2022-05-19T10:57:08.352Z","rhyme-phon_sim-same_different-task_switching","","null","rhyme","<div style=""font-size:60px;"">+</div>","null","750","","","","","","","","","","","","","","","","","","","","","","","","","","","","","","","","","",""
"","","","","","html-keyboard-response","42","1316871","0.0-6.0-1.8","A1DUPOUC9RNU4L","2022-05-19T10:57:08.352Z","rhyme-phon_sim-same_different-task_switching","","null","rhyme","<img src=""square.png"" width=""306"" height=""306"" style=""position: fixed;left:14%;top:30%""><img src=""square.png"" width=""306"" height=""306"" style=""position: fixed;left:64%;top:30%"">","null","","","","","","","","","","","","","","","","","","","","","","","","","","","","","","","","","","",""
"","","","","","html-keyboard-response","43","1318441","0.0-6.0-2.8","A1DUPOUC9RNU4L","2022-05-19T10:57:08.352Z","rhyme-phon_sim-same_different-task_switching","","1567.5","rhyme","<div style=""border: 3px solid #000000; position: fixed;left:14%;top:30%""><img src=""visual/plane.png"" width=""300""></div><div style=""border: 3px solid #000000; position: fixed;left:64%;top:30%""><img src=""visual/train.png"" width=""300""></div>","arrowup","","true","experiment","visual/plane.png","visual/train.png","ArrowUp","non-ortho","","","","","","","","","","","","","","","","","","","","","","","","","","","",""
"","","","","","html-keyboard-response","44","1318953","0.0-6.0-0.9","A1DUPOUC9RNU4L","2022-05-19T10:57:08.352Z","rhyme-phon_sim-same_different-task_switching","","null","rhyme","<div style=""font-size:60px;"">+</div>","null","500","","","","","","","","","","","","","","","","","","","","","","","","","","","","","","","","","",""
"","","","","","html-keyboard-response","45","1319470","0.0-6.0-1.9","A1DUPOUC9RNU4L","2022-05-19T10:57:08.352Z","rhyme-phon_sim-same_different-task_switching","","null","rhyme","<img src=""square.png"" width=""306"" height=""306"" style=""position: fixed;left:14%;top:30%""><img src=""square.png"" width=""306"" height=""306"" style=""position: fixed;left:64%;top:30%"">","null","","","","","","","","","","","","","","","","","","","","","","","","","","","","","","","","","","",""
"","","","","","html-keyboard-response","46","1320737","0.0-6.0-2.9","A1DUPOUC9RNU4L","2022-05-19T10:57:08.352Z","rhyme-phon_sim-same_different-task_switching","","1264.199999988079","rhyme","<div style=""border: 3px solid #000000; position: fixed;left:14%;top:30%""><img src=""visual/sock.png"" width=""300""></div><div style=""border: 3px solid #000000; position: fixed;left:64%;top:30%""><img src=""visual/clock.png"" width=""300""></div>","arrowup","","true","experiment","visual/sock.png","visual/clock.png","ArrowUp","ortho","","","","","","","","","","","","","","","","","","","","","","","","","","","",""
"","","","","","html-keyboard-response","47","1321241","0.0-6.0-0.10","A1DUPOUC9RNU4L","2022-05-19T10:57:08.352Z","rhyme-phon_sim-same_different-task_switching","","null","rhyme","<div style=""font-size:60px;"">+</div>","null","500","","","","","","","","","","","","","","","","","","","","","","","","","","","","","","","","","",""
"","","","","","html-keyboard-response","48","1321756","0.0-6.0-1.10","A1DUPOUC9RNU4L","2022-05-19T10:57:08.352Z","rhyme-phon_sim-same_different-task_switching","","null","rhyme","<img src=""square.png"" width=""306"" height=""306"" style=""position: fixed;left:14%;top:30%""><img src=""square.png"" width=""306"" height=""306"" style=""position: fixed;left:64%;top:30%"">","null","","","","","","","","","","","","","","","","","","","","","","","","","","","","","","","","","","",""
"","","","","","html-keyboard-response","49","1323385","0.0-6.0-2.10","A1DUPOUC9RNU4L","2022-05-19T10:57:08.352Z","rhyme-phon_sim-same_different-task_switching","","1626.0999999642372","rhyme","<div style=""border: 3px solid #000000; position: fixed;left:14%;top:30%""><img src=""visual/spoon.png"" width=""300""></div><div style=""border: 3px solid #000000; position: fixed;left:64%;top:30%""><img src=""visual/crab.png"" width=""300""></div>","arrowdown","","true","experiment","visual/spoon.png","visual/crab.png","ArrowDown","NR","","","","","","","","","","","","","","","","","","","","","","","","","","","",""
"","","","","","html-keyboard-response","50","1324140","0.0-6.0-0.11","A1DUPOUC9RNU4L","2022-05-19T10:57:08.352Z","rhyme-phon_sim-same_different-task_switching","","null","rhyme","<div style=""font-size:60px;"">+</div>","null","750","","","","","","","","","","","","","","","","","","","","","","","","","","","","","","","","","",""
"","","","","","html-keyboard-response","51","1324643","0.0-6.0-1.11","A1DUPOUC9RNU4L","2022-05-19T10:57:08.352Z","rhyme-phon_sim-same_different-task_switching","","null","rhyme","<img src=""square.png"" width=""306"" height=""306"" style=""position: fixed;left:14%;top:30%""><img src=""square.png"" width=""306"" height=""306"" style=""position: fixed;left:64%;top:30%"">","null","","","","","","","","","","","","","","","","","","","","","","","","","","","","","","","","","","",""
"","","","","","html-keyboard-response","52","1326667","0.0-6.0-2.11","A1DUPOUC9RNU4L","2022-05-19T10:57:08.352Z","rhyme-phon_sim-same_different-task_switching","","2021.2999999523163","rhyme","<div style=""border: 3px solid #000000; position: fixed;left:14%;top:30%""><img src=""visual/king.png"" width=""300""></div><div style=""border: 3px solid #000000; position: fixed;left:64%;top:30%""><img src=""visual/cab.png"" width=""300""></div>","arrowdown","","true","experiment","visual/king.png","visual/cab.png","ArrowDown","NR","","","","","","","","","","","","","","","","","","","","","","","","","","","",""
"","","","","","html-keyboard-response","53","1326925","0.0-6.0-0.12","A1DUPOUC9RNU4L","2022-05-19T10:57:08.352Z","rhyme-phon_sim-same_different-task_switching","","null","rhyme","<div style=""font-size:60px;"">+</div>","null","250","","","","","","","","","","","","","","","","","","","","","","","","","","","","","","","","","",""
"","","","","","html-keyboard-response","54","1327442","0.0-6.0-1.12","A1DUPOUC9RNU4L","2022-05-19T10:57:08.352Z","rhyme-phon_sim-same_different-task_switching","","null","rhyme","<img src=""square.png"" width=""306"" height=""306"" style=""position: fixed;left:14%;top:30%""><img src=""square.png"" width=""306"" height=""306"" style=""position: fixed;left:64%;top:30%"">","null","","","","","","","","","","","","","","","","","","","","","","","","","","","","","","","","","","",""
"","","","","","html-keyboard-response","55","1328593","0.0-6.0-2.12","A1DUPOUC9RNU4L","2022-05-19T10:57:08.352Z","rhyme-phon_sim-same_different-task_switching","","1148.7999999523163","rhyme","<div style=""border: 3px solid #000000; position: fixed;left:14%;top:30%""><img src=""visual/eye.png"" width=""300""></div><div style=""border: 3px solid #000000; position: fixed;left:64%;top:30%""><img src=""visual/tie.png"" width=""300""></div>","arrowup","","true","experiment","visual/eye.png","visual/tie.png","ArrowUp","non-ortho","","","","","","","","","","","","","","","","","","","","","","","","","","","",""
"","","","","","html-keyboard-response","56","1329595","0.0-6.0-0.13","A1DUPOUC9RNU4L","2022-05-19T10:57:08.352Z","rhyme-phon_sim-same_different-task_switching","","null","rhyme","<div style=""font-size:60px;"">+</div>","null","1000","","","","","","","","","","","","","","","","","","","","","","","","","","","","","","","","","",""
"","","","","","html-keyboard-response","57","1330097","0.0-6.0-1.13","A1DUPOUC9RNU4L","2022-05-19T10:57:08.352Z","rhyme-phon_sim-same_different-task_switching","","null","rhyme","<img src=""square.png"" width=""306"" height=""306"" style=""position: fixed;left:14%;top:30%""><img src=""square.png"" width=""306"" height=""306"" style=""position: fixed;left:64%;top:30%"">","null","","","","","","","","","","","","","","","","","","","","","","","","","","","","","","","","","","",""
"","","","","","html-keyboard-response","58","1332001","0.0-6.0-2.13","A1DUPOUC9RNU4L","2022-05-19T10:57:08.352Z","rhyme-phon_sim-same_different-task_switching","","1901.8999999761581","rhyme","<div style=""border: 3px solid #000000; position: fixed;left:14%;top:30%""><img src=""visual/bear.png"" width=""300""></div><div style=""border: 3px solid #000000; position: fixed;left:64%;top:30%""><img src=""visual/square_rhyme.png"" width=""300""></div>","arrowup","","true","experiment","visual/bear.png","visual/square_rhyme.png","ArrowUp","non-ortho","","","","","","","","","","","","","","","","","","","","","","","","","","","",""
"","","","","","html-keyboard-response","59","1333013","0.0-6.0-0.14","A1DUPOUC9RNU4L","2022-05-19T10:57:08.352Z","rhyme-phon_sim-same_different-task_switching","","null","rhyme","<div style=""font-size:60px;"">+</div>","null","1000","","","","","","","","","","","","","","","","","","","","","","","","","","","","","","","","","",""
"","","","","","html-keyboard-response","60","1333515","0.0-6.0-1.14","A1DUPOUC9RNU4L","2022-05-19T10:57:08.352Z","rhyme-phon_sim-same_different-task_switching","","null","rhyme","<img src=""square.png"" width=""306"" height=""306"" style=""position: fixed;left:14%;top:30%""><img src=""square.png"" width=""306"" height=""306"" style=""position: fixed;left:64%;top:30%"">","null","","","","","","","","","","","","","","","","","","","","","","","","","","","","","","","","","","",""
"","","","","","html-keyboard-response","61","1336521","0.0-6.0-2.14","A1DUPOUC9RNU4L","2022-05-19T10:57:08.352Z","rhyme-phon_sim-same_different-task_switching","","3003.800000011921","rhyme","<div style=""border: 3px solid #000000; position: fixed;left:14%;top:30%""><img src=""visual/drawer.png"" width=""300""></div><div style=""border: 3px solid #000000; position: fixed;left:64%;top:30%""><img src=""visual/chair.png"" width=""300""></div>","arrowdown","","true","experiment","visual/drawer.png","visual/chair.png","ArrowDown","NR","","","","","","","","","","","","","","","","","","","","","","","","","","","",""
"","","","","","html-keyboard-response","62","1336782","0.0-6.0-0.15","A1DUPOUC9RNU4L","2022-05-19T10:57:08.352Z","rhyme-phon_sim-same_different-task_switching","","null","rhyme","<div style=""font-size:60px;"">+</div>","null","250","","","","","","","","","","","","","","","","","","","","","","","","","","","","","","","","","",""
"","","","","","html-keyboard-response","63","1337285","0.0-6.0-1.15","A1DUPOUC9RNU4L","2022-05-19T10:57:08.352Z","rhyme-phon_sim-same_different-task_switching","","null","rhyme","<img src=""square.png"" width=""306"" height=""306"" style=""position: fixed;left:14%;top:30%""><img src=""square.png"" width=""306"" height=""306"" style=""position: fixed;left:64%;top:30%"">","null","","","","","","","","","","","","","","","","","","","","","","","","","","","","","","","","","","",""
"","","","","","html-keyboard-response","64","1338795","0.0-6.0-2.15","A1DUPOUC9RNU4L","2022-05-19T10:57:08.352Z","rhyme-phon_sim-same_different-task_switching","","1506.8999999761581","rhyme","<div style=""border: 3px solid #000000; position: fixed;left:14%;top:30%""><img src=""visual/bear.png"" width=""300""></div><div style=""border: 3px solid #000000; position: fixed;left:64%;top:30%""><img src=""visual/hair.png"" width=""300""></div>","arrowup","","true","experiment","visual/bear.png","visual/hair.png","ArrowUp","non-ortho","","","","","","","","","","","","","","","","","","","","","","","","","","","",""
"","","","","","html-keyboard-response","65","1339052","0.0-6.0-0.16","A1DUPOUC9RNU4L","2022-05-19T10:57:08.352Z","rhyme-phon_sim-same_different-task_switching","","null","rhyme","<div style=""font-size:60px;"">+</div>","null","250","","","","","","","","","","","","","","","","","","","","","","","","","","","","","","","","","",""
"","","","","","html-keyboard-response","66","1339570","0.0-6.0-1.16","A1DUPOUC9RNU4L","2022-05-19T10:57:08.352Z","rhyme-phon_sim-same_different-task_switching","","null","rhyme","<img src=""square.png"" width=""306"" height=""306"" style=""position: fixed;left:14%;top:30%""><img src=""square.png"" width=""306"" height=""306"" style=""position: fixed;left:64%;top:30%"">","null","","","","","","","","","","","","","","","","","","","","","","","","","","","","","","","","","","",""
"","","","","","html-keyboard-response","67","1342209","0.0-6.0-2.16","A1DUPOUC9RNU4L","2022-05-19T10:57:08.352Z","rhyme-phon_sim-same_different-task_switching","","2636.600000023842","rhyme","<div style=""border: 3px solid #000000; position: fixed;left:14%;top:30%""><img src=""visual/jar.png"" width=""300""></div><div style=""border: 3px solid #000000; position: fixed;left:64%;top:30%""><img src=""visual/whale.png"" width=""300""></div>","arrowdown","","true","experiment","visual/jar.png","visual/whale.png","ArrowDown","NR","","","","","","","","","","","","","","","","","","","","","","","","","","","",""
"","","","","","html-keyboard-response","68","1342719","0.0-6.0-0.17","A1DUPOUC9RNU4L","2022-05-19T10:57:08.352Z","rhyme-phon_sim-same_different-task_switching","","null","rhyme","<div style=""font-size:60px;"">+</div>","null","500","","","","","","","","","","","","","","","","","","","","","","","","","","","","","","","","","",""
"","","","","","html-keyboard-response","69","1343222","0.0-6.0-1.17","A1DUPOUC9RNU4L","2022-05-19T10:57:08.352Z","rhyme-phon_sim-same_different-task_switching","","null","rhyme","<img src=""square.png"" width=""306"" height=""306"" style=""position: fixed;left:14%;top:30%""><img src=""square.png"" width=""306"" height=""306"" style=""position: fixed;left:64%;top:30%"">","null","","","","","","","","","","","","","","","","","","","","","","","","","","","","","","","","","","",""
"","","","","","html-keyboard-response","70","1346153","0.0-6.0-2.17","A1DUPOUC9RNU4L","2022-05-19T10:57:08.352Z","rhyme-phon_sim-same_different-task_switching","","2928.399999976158","rhyme","<div style=""border: 3px solid #000000; position: fixed;left:14%;top:30%""><img src=""visual/bin.png"" width=""300""></div><div style=""border: 3px solid #000000; position: fixed;left:64%;top:30%""><img src=""visual/chin.png"" width=""300""></div>","arrowup","","true","experiment","visual/bin.png","visual/chin.png","ArrowUp","ortho","","","","","","","","","","","","","","","","","","","","","","","","","","","",""
"","","","","","html-keyboard-response","71","1346657","0.0-6.0-0.18","A1DUPOUC9RNU4L","2022-05-19T10:57:08.352Z","rhyme-phon_sim-same_different-task_switching","","null","rhyme","<div style=""font-size:60px;"">+</div>","null","500","","","","","","","","","","","","","","","","","","","","","","","","","","","","","","","","","",""
"","","","","","html-keyboard-response","72","1347161","0.0-6.0-1.18","A1DUPOUC9RNU4L","2022-05-19T10:57:08.352Z","rhyme-phon_sim-same_different-task_switching","","null","rhyme","<img src=""square.png"" width=""306"" height=""306"" style=""position: fixed;left:14%;top:30%""><img src=""square.png"" width=""306"" height=""306"" style=""position: fixed;left:64%;top:30%"">","null","","","","","","","","","","","","","","","","","","","","","","","","","","","","","","","","","","",""
"","","","","","html-keyboard-response","73","1348593","0.0-6.0-2.18","A1DUPOUC9RNU4L","2022-05-19T10:57:08.352Z","rhyme-phon_sim-same_different-task_switching","","1429.4000000357628","rhyme","<div style=""border: 3px solid #000000; position: fixed;left:14%;top:30%""><img src=""visual/deer.png"" width=""300""></div><div style=""border: 3px solid #000000; position: fixed;left:64%;top:30%""><img src=""visual/beer.png"" width=""300""></div>","arrowup","","true","experiment","visual/deer.png","visual/beer.png","ArrowUp","ortho","","","","","","","","","","","","","","","","","","","","","","","","","","","",""
"","","","","","html-keyboard-response","74","1348859","0.0-6.0-0.19","A1DUPOUC9RNU4L","2022-05-19T10:57:08.352Z","rhyme-phon_sim-same_different-task_switching","","null","rhyme","<div style=""font-size:60px;"">+</div>","null","250","","","","","","","","","","","","","","","","","","","","","","","","","","","","","","","","","",""
"","","","","","html-keyboard-response","75","1349361","0.0-6.0-1.19","A1DUPOUC9RNU4L","2022-05-19T10:57:08.352Z","rhyme-phon_sim-same_different-task_switching","","null","rhyme","<img src=""square.png"" width=""306"" height=""306"" style=""position: fixed;left:14%;top:30%""><img src=""square.png"" width=""306"" height=""306"" style=""position: fixed;left:64%;top:30%"">","null","","","","","","","","","","","","","","","","","","","","","","","","","","","","","","","","","","",""
"","","","","","html-keyboard-response","76","1352139","0.0-6.0-2.19","A1DUPOUC9RNU4L","2022-05-19T10:57:08.352Z","rhyme-phon_sim-same_different-task_switching","","2775.199999988079","rhyme","<div style=""border: 3px solid #000000; position: fixed;left:14%;top:30%""><img src=""visual/rake.png"" width=""300""></div><div style=""border: 3px solid #000000; position: fixed;left:64%;top:30%""><img src=""visual/park.png"" width=""300""></div>","arrowdown","","true","experiment","visual/rake.png","visual/park.png","ArrowDown","NR","","","","","","","","","","","","","","","","","","","","","","","","","","","",""
"","","","","","html-keyboard-response","77","1352894","0.0-6.0-0.20","A1DUPOUC9RNU4L","2022-05-19T10:57:08.352Z","rhyme-phon_sim-same_different-task_switching","","null","rhyme","<div style=""font-size:60px;"">+</div>","null","750","","","","","","","","","","","","","","","","","","","","","","","","","","","","","","","","","",""
"","","","","","html-keyboard-response","78","1353398","0.0-6.0-1.20","A1DUPOUC9RNU4L","2022-05-19T10:57:08.352Z","rhyme-phon_sim-same_different-task_switching","","null","rhyme","<img src=""square.png"" width=""306"" height=""306"" style=""position: fixed;left:14%;top:30%""><img src=""square.png"" width=""306"" height=""306"" style=""position: fixed;left:64%;top:30%"">","null","","","","","","","","","","","","","","","","","","","","","","","","","","","","","","","","","","",""
"","","","","","html-keyboard-response","79","1355457","0.0-6.0-2.20","A1DUPOUC9RNU4L","2022-05-19T10:57:08.352Z","rhyme-phon_sim-same_different-task_switching","","2056.2000000476837","rhyme","<div style=""border: 3px solid #000000; position: fixed;left:14%;top:30%""><img src=""visual/nail.png"" width=""300""></div><div style=""border: 3px solid #000000; position: fixed;left:64%;top:30%""><img src=""visual/whale.png"" width=""300""></div>","arrowup","","true","experiment","visual/nail.png","visual/whale.png","ArrowUp","non-ortho","","","","","","","","","","","","","","","","","","","","","","","","","","","",""
"","","","","","html-keyboard-response","80","1355964","0.0-6.0-0.21","A1DUPOUC9RNU4L","2022-05-19T10:57:08.352Z","rhyme-phon_sim-same_different-task_switching","","null","rhyme","<div style=""font-size:60px;"">+</div>","null","500","","","","","","","","","","","","","","","","","","","","","","","","","","","","","","","","","",""
"","","","","","html-keyboard-response","81","1356467","0.0-6.0-1.21","A1DUPOUC9RNU4L","2022-05-19T10:57:08.352Z","rhyme-phon_sim-same_different-task_switching","","null","rhyme","<img src=""square.png"" width=""306"" height=""306"" style=""position: fixed;left:14%;top:30%""><img src=""square.png"" width=""306"" height=""306"" style=""position: fixed;left:64%;top:30%"">","null","","","","","","","","","","","","","","","","","","","","","","","","","","","","","","","","","","",""
"","","","","","html-keyboard-response","82","1358449","0.0-6.0-2.21","A1DUPOUC9RNU4L","2022-05-19T10:57:08.352Z","rhyme-phon_sim-same_different-task_switching","","1979.5","rhyme","<div style=""border: 3px solid #000000; position: fixed;left:14%;top:30%""><img src=""visual/wave.png"" width=""300""></div><div style=""border: 3px solid #000000; position: fixed;left:64%;top:30%""><img src=""visual/cave.png"" width=""300""></div>","arrowup","","true","experiment","visual/wave.png","visual/cave.png","ArrowUp","ortho","","","","","","","","","","","","","","","","","","","","","","","","","","","",""
"","","","","","html-keyboard-response","83","1358950","0.0-6.0-0.22","A1DUPOUC9RNU4L","2022-05-19T10:57:08.352Z","rhyme-phon_sim-same_different-task_switching","","null","rhyme","<div style=""font-size:60px;"">+</div>","null","500","","","","","","","","","","","","","","","","","","","","","","","","","","","","","","","","","",""
"","","","","","html-keyboard-response","84","1359467","0.0-6.0-1.22","A1DUPOUC9RNU4L","2022-05-19T10:57:08.352Z","rhyme-phon_sim-same_different-task_switching","","null","rhyme","<img src=""square.png"" width=""306"" height=""306"" style=""position: fixed;left:14%;top:30%""><img src=""square.png"" width=""306"" height=""306"" style=""position: fixed;left:64%;top:30%"">","null","","","","","","","","","","","","","","","","","","","","","","","","","","","","","","","","","","",""
"","","","","","html-keyboard-response","85","1360917","0.0-6.0-2.22","A1DUPOUC9RNU4L","2022-05-19T10:57:08.352Z","rhyme-phon_sim-same_different-task_switching","","1435.300000011921","rhyme","<div style=""border: 3px solid #000000; position: fixed;left:14%;top:30%""><img src=""visual/rose.png"" width=""300""></div><div style=""border: 3px solid #000000; position: fixed;left:64%;top:30%""><img src=""visual/nose.png"" width=""300""></div>","arrowup","","true","experiment","visual/rose.png","visual/nose.png","ArrowUp","ortho","","","","","","","","","","","","","","","","","","","","","","","","","","","",""
"","","","","","html-keyboard-response","86","1361680","0.0-6.0-0.23","A1DUPOUC9RNU4L","2022-05-19T10:57:08.352Z","rhyme-phon_sim-same_different-task_switching","","null","rhyme","<div style=""font-size:60px;"">+</div>","null","750","","","","","","","","","","","","","","","","","","","","","","","","","","","","","","","","","",""
"","","","","","html-keyboard-response","87","1362196","0.0-6.0-1.23","A1DUPOUC9RNU4L","2022-05-19T10:57:08.352Z","rhyme-phon_sim-same_different-task_switching","","null","rhyme","<img src=""square.png"" width=""306"" height=""306"" style=""position: fixed;left:14%;top:30%""><img src=""square.png"" width=""306"" height=""306"" style=""position: fixed;left:64%;top:30%"">","null","","","","","","","","","","","","","","","","","","","","","","","","","","","","","","","","","","",""
"","","","","","html-keyboard-response","88","1365438","0.0-6.0-2.23","A1DUPOUC9RNU4L","2022-05-19T10:57:08.352Z","rhyme-phon_sim-same_different-task_switching","","3239.199999988079","rhyme","<div style=""border: 3px solid #000000; position: fixed;left:14%;top:30%""><img src=""visual/cake.png"" width=""300""></div><div style=""border: 3px solid #000000; position: fixed;left:64%;top:30%""><img src=""visual/rake.png"" width=""300""></div>","arrowdown","","false","experiment","visual/cake.png","visual/rake.png","ArrowUp","ortho","","","","","","","","","","","","","","","","","","","","","","","","","","","",""
"","","","","","html-keyboard-response","89","1365699","0.0-6.0-0.24","A1DUPOUC9RNU4L","2022-05-19T10:57:08.352Z","rhyme-phon_sim-same_different-task_switching","","null","rhyme","<div style=""font-size:60px;"">+</div>","null","250","","","","","","","","","","","","","","","","","","","","","","","","","","","","","","","","","",""
"","","","","","html-keyboard-response","90","1366216","0.0-6.0-1.24","A1DUPOUC9RNU4L","2022-05-19T10:57:08.352Z","rhyme-phon_sim-same_different-task_switching","","null","rhyme","<img src=""square.png"" width=""306"" height=""306"" style=""position: fixed;left:14%;top:30%""><img src=""square.png"" width=""306"" height=""306"" style=""position: fixed;left:64%;top:30%"">","null","","","","","","","","","","","","","","","","","","","","","","","","","","","","","","","","","","",""
"","","","","","html-keyboard-response","91","1368716","0.0-6.0-2.24","A1DUPOUC9RNU4L","2022-05-19T10:57:08.352Z","rhyme-phon_sim-same_different-task_switching","","2498","rhyme","<div style=""border: 3px solid #000000; position: fixed;left:14%;top:30%""><img src=""visual/cab.png"" width=""300""></div><div style=""border: 3px solid #000000; position: fixed;left:64%;top:30%""><img src=""visual/crab.png"" width=""300""></div>","arrowdown","","false","experiment","visual/cab.png","visual/crab.png","ArrowUp","ortho","","","","","","","","","","","","","","","","","","","","","","","","","","","",""
"","","","","","html-keyboard-response","92","1369219","0.0-6.0-0.25","A1DUPOUC9RNU4L","2022-05-19T10:57:08.352Z","rhyme-phon_sim-same_different-task_switching","","null","rhyme","<div style=""font-size:60px;"">+</div>","null","500","","","","","","","","","","","","","","","","","","","","","","","","","","","","","","","","","",""
"","","","","","html-keyboard-response","93","1369722","0.0-6.0-1.25","A1DUPOUC9RNU4L","2022-05-19T10:57:08.352Z","rhyme-phon_sim-same_different-task_switching","","null","rhyme","<img src=""square.png"" width=""306"" height=""306"" style=""position: fixed;left:14%;top:30%""><img src=""square.png"" width=""306"" height=""306"" style=""position: fixed;left:64%;top:30%"">","null","","","","","","","","","","","","","","","","","","","","","","","","","","","","","","","","","","",""
"","","","","","html-keyboard-response","94","1371989","0.0-6.0-2.25","A1DUPOUC9RNU4L","2022-05-19T10:57:08.352Z","rhyme-phon_sim-same_different-task_switching","","2265.100000023842","rhyme","<div style=""border: 3px solid #000000; position: fixed;left:14%;top:30%""><img src=""visual/nose.png"" width=""300""></div><div style=""border: 3px solid #000000; position: fixed;left:64%;top:30%""><img src=""visual/bell.png"" width=""300""></div>","arrowdown","","true","experiment","visual/nose.png","visual/bell.png","ArrowDown","NR","","","","","","","","","","","","","","","","","","","","","","","","","","","",""
"","","","","","html-keyboard-response","95","1372504","0.0-6.0-0.26","A1DUPOUC9RNU4L","2022-05-19T10:57:08.352Z","rhyme-phon_sim-same_different-task_switching","","null","rhyme","<div style=""font-size:60px;"">+</div>","null","500","","","","","","","","","","","","","","","","","","","","","","","","","","","","","","","","","",""
"","","","","","html-keyboard-response","96","1373006","0.0-6.0-1.26","A1DUPOUC9RNU4L","2022-05-19T10:57:08.352Z","rhyme-phon_sim-same_different-task_switching","","null","rhyme","<img src=""square.png"" width=""306"" height=""306"" style=""position: fixed;left:14%;top:30%""><img src=""square.png"" width=""306"" height=""306"" style=""position: fixed;left:64%;top:30%"">","null","","","","","","","","","","","","","","","","","","","","","","","","","","","","","","","","","","",""
"","","","","","html-keyboard-response","97","1373997","0.0-6.0-2.26","A1DUPOUC9RNU4L","2022-05-19T10:57:08.352Z","rhyme-phon_sim-same_different-task_switching","","985.6999999880791","rhyme","<div style=""border: 3px solid #000000; position: fixed;left:14%;top:30%""><img src=""visual/chair.png"" width=""300""></div><div style=""border: 3px solid #000000; position: fixed;left:64%;top:30%""><img src=""visual/pear.png"" width=""300""></div>","arrowup","","true","experiment","visual/chair.png","visual/pear.png","ArrowUp","non-ortho","","","","","","","","","","","","","","","","","","","","","","","","","","","",""
"","","","","","html-keyboard-response","98","1375006","0.0-6.0-0.27","A1DUPOUC9RNU4L","2022-05-19T10:57:08.352Z","rhyme-phon_sim-same_different-task_switching","","null","rhyme","<div style=""font-size:60px;"">+</div>","null","1000","","","","","","","","","","","","","","","","","","","","","","","","","","","","","","","","","",""
"","","","","","html-keyboard-response","99","1375508","0.0-6.0-1.27","A1DUPOUC9RNU4L","2022-05-19T10:57:08.352Z","rhyme-phon_sim-same_different-task_switching","","null","rhyme","<img src=""square.png"" width=""306"" height=""306"" style=""position: fixed;left:14%;top:30%""><img src=""square.png"" width=""306"" height=""306"" style=""position: fixed;left:64%;top:30%"">","null","","","","","","","","","","","","","","","","","","","","","","","","","","","","","","","","","","",""
"","","","","","html-keyboard-response","100","1378358","0.0-6.0-2.27","A1DUPOUC9RNU4L","2022-05-19T10:57:08.352Z","rhyme-phon_sim-same_different-task_switching","","2847.899999976158","rhyme","<div style=""border: 3px solid #000000; position: fixed;left:14%;top:30%""><img src=""visual/fly.png"" width=""300""></div><div style=""border: 3px solid #000000; position: fixed;left:64%;top:30%""><img src=""visual/plane.png"" width=""300""></div>","arrowdown","","true","experiment","visual/fly.png","visual/plane.png","ArrowDown","NR","","","","","","","","","","","","","","","","","","","","","","","","","","","",""
"","","","","","html-keyboard-response","101","1379374","0.0-6.0-0.28","A1DUPOUC9RNU4L","2022-05-19T10:57:08.352Z","rhyme-phon_sim-same_different-task_switching","","null","rhyme","<div style=""font-size:60px;"">+</div>","null","1000","","","","","","","","","","","","","","","","","","","","","","","","","","","","","","","","","",""
"","","","","","html-keyboard-response","102","1379878","0.0-6.0-1.28","A1DUPOUC9RNU4L","2022-05-19T10:57:08.352Z","rhyme-phon_sim-same_different-task_switching","","null","rhyme","<img src=""square.png"" width=""306"" height=""306"" style=""position: fixed;left:14%;top:30%""><img src=""square.png"" width=""306"" height=""306"" style=""position: fixed;left:64%;top:30%"">","null","","","","","","","","","","","","","","","","","","","","","","","","","","","","","","","","","","",""
"","","","","","html-keyboard-response","103","1381613","0.0-6.0-2.28","A1DUPOUC9RNU4L","2022-05-19T10:57:08.352Z","rhyme-phon_sim-same_different-task_switching","","1732.8999999761581","rhyme","<div style=""border: 3px solid #000000; position: fixed;left:14%;top:30%""><img src=""visual/snail.png"" width=""300""></div><div style=""border: 3px solid #000000; position: fixed;left:64%;top:30%""><img src=""visual/whale.png"" width=""300""></div>","arrowup","","true","experiment","visual/snail.png","visual/whale.png","ArrowUp","non-ortho","","","","","","","","","","","","","","","","","","","","","","","","","","","",""
"","","","","","html-keyboard-response","104","1381878","0.0-6.0-0.29","A1DUPOUC9RNU4L","2022-05-19T10:57:08.352Z","rhyme-phon_sim-same_different-task_switching","","null","rhyme","<div style=""font-size:60px;"">+</div>","null","250","","","","","","","","","","","","","","","","","","","","","","","","","","","","","","","","","",""
"","","","","","html-keyboard-response","105","1382395","0.0-6.0-1.29","A1DUPOUC9RNU4L","2022-05-19T10:57:08.352Z","rhyme-phon_sim-same_different-task_switching","","null","rhyme","<img src=""square.png"" width=""306"" height=""306"" style=""position: fixed;left:14%;top:30%""><img src=""square.png"" width=""306"" height=""306"" style=""position: fixed;left:64%;top:30%"">","null","","","","","","","","","","","","","","","","","","","","","","","","","","","","","","","","","","",""
"","","","","","html-keyboard-response","106","1383733","0.0-6.0-2.29","A1DUPOUC9RNU4L","2022-05-19T10:57:08.352Z","rhyme-phon_sim-same_different-task_switching","","1335.800000011921","rhyme","<div style=""border: 3px solid #000000; position: fixed;left:14%;top:30%""><img src=""visual/flag.png"" width=""300""></div><div style=""border: 3px solid #000000; position: fixed;left:64%;top:30%""><img src=""visual/bag.png"" width=""300""></div>","arrowup","","true","experiment","visual/flag.png","visual/bag.png","ArrowUp","ortho","","","","","","","","","","","","","","","","","","","","","","","","","","","",""
"","","","","","html-keyboard-response","107","1384496","0.0-6.0-0.30","A1DUPOUC9RNU4L","2022-05-19T10:57:08.352Z","rhyme-phon_sim-same_different-task_switching","","null","rhyme","<div style=""font-size:60px;"">+</div>","null","750","","","","","","","","","","","","","","","","","","","","","","","","","","","","","","","","","",""
"","","","","","html-keyboard-response","108","1384998","0.0-6.0-1.30","A1DUPOUC9RNU4L","2022-05-19T10:57:08.352Z","rhyme-phon_sim-same_different-task_switching","","null","rhyme","<img src=""square.png"" width=""306"" height=""306"" style=""position: fixed;left:14%;top:30%""><img src=""square.png"" width=""306"" height=""306"" style=""position: fixed;left:64%;top:30%"">","null","","","","","","","","","","","","","","","","","","","","","","","","","","","","","","","","","","",""
"","","","","","html-keyboard-response","109","1386573","0.0-6.0-2.30","A1DUPOUC9RNU4L","2022-05-19T10:57:08.352Z","rhyme-phon_sim-same_different-task_switching","","1573.1000000238419","rhyme","<div style=""border: 3px solid #000000; position: fixed;left:14%;top:30%""><img src=""visual/key.png"" width=""300""></div><div style=""border: 3px solid #000000; position: fixed;left:64%;top:30%""><img src=""visual/snail.png"" width=""300""></div>","arrowdown","","true","experiment","visual/key.png","visual/snail.png","ArrowDown","NR","","","","","","","","","","","","","","","","","","","","","","","","","","","",""
"","","","","","html-keyboard-response","110","1387332","0.0-6.0-0.31","A1DUPOUC9RNU4L","2022-05-19T10:57:08.352Z","rhyme-phon_sim-same_different-task_switching","","null","rhyme","<div style=""font-size:60px;"">+</div>","null","750","","","","","","","","","","","","","","","","","","","","","","","","","","","","","","","","","",""
"","","","","","html-keyboard-response","111","1387849","0.0-6.0-1.31","A1DUPOUC9RNU4L","2022-05-19T10:57:08.352Z","rhyme-phon_sim-same_different-task_switching","","null","rhyme","<img src=""square.png"" width=""306"" height=""306"" style=""position: fixed;left:14%;top:30%""><img src=""square.png"" width=""306"" height=""306"" style=""position: fixed;left:64%;top:30%"">","null","","","","","","","","","","","","","","","","","","","","","","","","","","","","","","","","","","",""
"","","","","","html-keyboard-response","112","1389166","0.0-6.0-2.31","A1DUPOUC9RNU4L","2022-05-19T10:57:08.352Z","rhyme-phon_sim-same_different-task_switching","","1314.8999999761581","rhyme","<div style=""border: 3px solid #000000; position: fixed;left:14%;top:30%""><img src=""visual/drum.png"" width=""300""></div><div style=""border: 3px solid #000000; position: fixed;left:64%;top:30%""><img src=""visual/thumb.png"" width=""300""></div>","arrowup","","true","experiment","visual/drum.png","visual/thumb.png","ArrowUp","non-ortho","","","","","","","","","","","","","","","","","","","","","","","","","","","",""
"","","","","","html-keyboard-response","113","1390168","0.0-6.0-0.32","A1DUPOUC9RNU4L","2022-05-19T10:57:08.352Z","rhyme-phon_sim-same_different-task_switching","","null","rhyme","<div style=""font-size:60px;"">+</div>","null","1000","","","","","","","","","","","","","","","","","","","","","","","","","","","","","","","","","",""
"","","","","","html-keyboard-response","114","1390685","0.0-6.0-1.32","A1DUPOUC9RNU4L","2022-05-19T10:57:08.352Z","rhyme-phon_sim-same_different-task_switching","","null","rhyme","<img src=""square.png"" width=""306"" height=""306"" style=""position: fixed;left:14%;top:30%""><img src=""square.png"" width=""306"" height=""306"" style=""position: fixed;left:64%;top:30%"">","null","","","","","","","","","","","","","","","","","","","","","","","","","","","","","","","","","","",""
"","","","","","html-keyboard-response","115","1392205","0.0-6.0-2.32","A1DUPOUC9RNU4L","2022-05-19T10:57:08.352Z","rhyme-phon_sim-same_different-task_switching","","1517.3999999761581","rhyme","<div style=""border: 3px solid #000000; position: fixed;left:14%;top:30%""><img src=""visual/well.png"" width=""300""></div><div style=""border: 3px solid #000000; position: fixed;left:64%;top:30%""><img src=""visual/rose.png"" width=""300""></div>","arrowdown","","true","experiment","visual/well.png","visual/rose.png","ArrowDown","NR","","","","","","","","","","","","","","","","","","","","","","","","","","","",""
"","","","","","html-keyboard-response","116","1393220","0.0-6.0-0.33","A1DUPOUC9RNU4L","2022-05-19T10:57:08.352Z","rhyme-phon_sim-same_different-task_switching","","null","rhyme","<div style=""font-size:60px;"">+</div>","null","1000","","","","","","","","","","","","","","","","","","","","","","","","","","","","","","","","","",""
"","","","","","html-keyboard-response","117","1393737","0.0-6.0-1.33","A1DUPOUC9RNU4L","2022-05-19T10:57:08.352Z","rhyme-phon_sim-same_different-task_switching","","null","rhyme","<img src=""square.png"" width=""306"" height=""306"" style=""position: fixed;left:14%;top:30%""><img src=""square.png"" width=""306"" height=""306"" style=""position: fixed;left:64%;top:30%"">","null","","","","","","","","","","","","","","","","","","","","","","","","","","","","","","","","","","",""
"","","","","","html-keyboard-response","118","1396117","0.0-6.0-2.33","A1DUPOUC9RNU4L","2022-05-19T10:57:08.352Z","rhyme-phon_sim-same_different-task_switching","","2377.699999988079","rhyme","<div style=""border: 3px solid #000000; position: fixed;left:14%;top:30%""><img src=""visual/shark.png"" width=""300""></div><div style=""border: 3px solid #000000; position: fixed;left:64%;top:30%""><img src=""visual/park.png"" width=""300""></div>","arrowdown","","false","experiment","visual/shark.png","visual/park.png","ArrowUp","ortho","","","","","","","","","","","","","","","","","","","","","","","","","","","",""
"","","","","","html-keyboard-response","119","1397122","0.0-6.0-0.34","A1DUPOUC9RNU4L","2022-05-19T10:57:08.352Z","rhyme-phon_sim-same_different-task_switching","","null","rhyme","<div style=""font-size:60px;"">+</div>","null","1000","","","","","","","","","","","","","","","","","","","","","","","","","","","","","","","","","",""
"","","","","","html-keyboard-response","120","1397625","0.0-6.0-1.34","A1DUPOUC9RNU4L","2022-05-19T10:57:08.352Z","rhyme-phon_sim-same_different-task_switching","","null","rhyme","<img src=""square.png"" width=""306"" height=""306"" style=""position: fixed;left:14%;top:30%""><img src=""square.png"" width=""306"" height=""306"" style=""position: fixed;left:64%;top:30%"">","null","","","","","","","","","","","","","","","","","","","","","","","","","","","","","","","","","","",""
"","","","","","html-keyboard-response","121","1401830","0.0-6.0-2.34","A1DUPOUC9RNU4L","2022-05-19T10:57:08.352Z","rhyme-phon_sim-same_different-task_switching","","4202.799999952316","rhyme","<div style=""border: 3px solid #000000; position: fixed;left:14%;top:30%""><img src=""visual/bear.png"" width=""300""></div><div style=""border: 3px solid #000000; position: fixed;left:64%;top:30%""><img src=""visual/crane.png"" width=""300""></div>","arrowdown","","true","experiment","visual/bear.png","visual/crane.png","ArrowDown","NR","","","","","","","","","","","","","","","","","","","","","","","","","","","",""
"","","","","","html-keyboard-response","122","1402341","0.0-6.0-0.35","A1DUPOUC9RNU4L","2022-05-19T10:57:08.352Z","rhyme-phon_sim-same_different-task_switching","","null","rhyme","<div style=""font-size:60px;"">+</div>","null","500","","","","","","","","","","","","","","","","","","","","","","","","","","","","","","","","","",""
"","","","","","html-keyboard-response","123","1402846","0.0-6.0-1.35","A1DUPOUC9RNU4L","2022-05-19T10:57:08.352Z","rhyme-phon_sim-same_different-task_switching","","null","rhyme","<img src=""square.png"" width=""306"" height=""306"" style=""position: fixed;left:14%;top:30%""><img src=""square.png"" width=""306"" height=""306"" style=""position: fixed;left:64%;top:30%"">","null","","","","","","","","","","","","","","","","","","","","","","","","","","","","","","","","","","",""
"","","","","","html-keyboard-response","124","1404605","0.0-6.0-2.35","A1DUPOUC9RNU4L","2022-05-19T10:57:08.352Z","rhyme-phon_sim-same_different-task_switching","","1756.1000000238419","rhyme","<div style=""border: 3px solid #000000; position: fixed;left:14%;top:30%""><img src=""visual/egg.png"" width=""300""></div><div style=""border: 3px solid #000000; position: fixed;left:64%;top:30%""><img src=""visual/leg.png"" width=""300""></div>","arrowup","","true","experiment","visual/egg.png","visual/leg.png","ArrowUp","ortho","","","","","","","","","","","","","","","","","","","","","","","","","","","",""
"","","","","","html-keyboard-response","125","1404862","0.0-6.0-0.36","A1DUPOUC9RNU4L","2022-05-19T10:57:08.352Z","rhyme-phon_sim-same_different-task_switching","","null","rhyme","<div style=""font-size:60px;"">+</div>","null","250","","","","","","","","","","","","","","","","","","","","","","","","","","","","","","","","","",""
"","","","","","html-keyboard-response","126","1405365","0.0-6.0-1.36","A1DUPOUC9RNU4L","2022-05-19T10:57:08.352Z","rhyme-phon_sim-same_different-task_switching","","null","rhyme","<img src=""square.png"" width=""306"" height=""306"" style=""position: fixed;left:14%;top:30%""><img src=""square.png"" width=""306"" height=""306"" style=""position: fixed;left:64%;top:30%"">","null","","","","","","","","","","","","","","","","","","","","","","","","","","","","","","","","","","",""
"","","","","","html-keyboard-response","127","1408212","0.0-6.0-2.36","A1DUPOUC9RNU4L","2022-05-19T10:57:08.352Z","rhyme-phon_sim-same_different-task_switching","","2845.600000023842","rhyme","<div style=""border: 3px solid #000000; position: fixed;left:14%;top:30%""><img src=""visual/soap.png"" width=""300""></div><div style=""border: 3px solid #000000; position: fixed;left:64%;top:30%""><img src=""visual/shoe.png"" width=""300""></div>","arrowdown","","true","experiment","visual/soap.png","visual/shoe.png","ArrowDown","NR","","","","","","","","","","","","","","","","","","","","","","","","","","","",""
"","","","","","html-keyboard-response","128","1408464","0.0-6.0-0.37","A1DUPOUC9RNU4L","2022-05-19T10:57:08.352Z","rhyme-phon_sim-same_different-task_switching","","null","rhyme","<div style=""font-size:60px;"">+</div>","null","250","","","","","","","","","","","","","","","","","","","","","","","","","","","","","","","","","",""
"","","","","","html-keyboard-response","129","1408967","0.0-6.0-1.37","A1DUPOUC9RNU4L","2022-05-19T10:57:08.352Z","rhyme-phon_sim-same_different-task_switching","","null","rhyme","<img src=""square.png"" width=""306"" height=""306"" style=""position: fixed;left:14%;top:30%""><img src=""square.png"" width=""306"" height=""306"" style=""position: fixed;left:64%;top:30%"">","null","","","","","","","","","","","","","","","","","","","","","","","","","","","","","","","","","","",""
"","","","","","html-keyboard-response","130","1410636","0.0-6.0-2.37","A1DUPOUC9RNU4L","2022-05-19T10:57:08.352Z","rhyme-phon_sim-same_different-task_switching","","1667.3999999761581","rhyme","<div style=""border: 3px solid #000000; position: fixed;left:14%;top:30%""><img src=""visual/egg.png"" width=""300""></div><div style=""border: 3px solid #000000; position: fixed;left:64%;top:30%""><img src=""visual/ring.png"" width=""300""></div>","arrowdown","","true","experiment","visual/egg.png","visual/ring.png","ArrowDown","NR","","","","","","","","","","","","","","","","","","","","","","","","","","","",""
"","","","","","html-keyboard-response","131","1411399","0.0-6.0-0.38","A1DUPOUC9RNU4L","2022-05-19T10:57:08.352Z","rhyme-phon_sim-same_different-task_switching","","null","rhyme","<div style=""font-size:60px;"">+</div>","null","750","","","","","","","","","","","","","","","","","","","","","","","","","","","","","","","","","",""
"","","","","","html-keyboard-response","132","1411903","0.0-6.0-1.38","A1DUPOUC9RNU4L","2022-05-19T10:57:08.352Z","rhyme-phon_sim-same_different-task_switching","","null","rhyme","<img src=""square.png"" width=""306"" height=""306"" style=""position: fixed;left:14%;top:30%""><img src=""square.png"" width=""306"" height=""306"" style=""position: fixed;left:64%;top:30%"">","null","","","","","","","","","","","","","","","","","","","","","","","","","","","","","","","","","","",""
"","","","","","html-keyboard-response","133","1413246","0.0-6.0-2.38","A1DUPOUC9RNU4L","2022-05-19T10:57:08.352Z","rhyme-phon_sim-same_different-task_switching","","1341.199999988079","rhyme","<div style=""border: 3px solid #000000; position: fixed;left:14%;top:30%""><img src=""visual/box.png"" width=""300""></div><div style=""border: 3px solid #000000; position: fixed;left:64%;top:30%""><img src=""visual/fox.png"" width=""300""></div>","arrowup","","true","experiment","visual/box.png","visual/fox.png","ArrowUp","ortho","","","","","","","","","","","","","","","","","","","","","","","","","","","",""
"","","","","","html-keyboard-response","134","1413752","0.0-6.0-0.39","A1DUPOUC9RNU4L","2022-05-19T10:57:08.352Z","rhyme-phon_sim-same_different-task_switching","","null","rhyme","<div style=""font-size:60px;"">+</div>","null","500","","","","","","","","","","","","","","","","","","","","","","","","","","","","","","","","","",""
"","","","","","html-keyboard-response","135","1414255","0.0-6.0-1.39","A1DUPOUC9RNU4L","2022-05-19T10:57:08.352Z","rhyme-phon_sim-same_different-task_switching","","null","rhyme","<img src=""square.png"" width=""306"" height=""306"" style=""position: fixed;left:14%;top:30%""><img src=""square.png"" width=""306"" height=""306"" style=""position: fixed;left:64%;top:30%"">","null","","","","","","","","","","","","","","","","","","","","","","","","","","","","","","","","","","",""
"","","","","","html-keyboard-response","136","1416388","0.0-6.0-2.39","A1DUPOUC9RNU4L","2022-05-19T10:57:08.352Z","rhyme-phon_sim-same_different-task_switching","","2130.5","rhyme","<div style=""border: 3px solid #000000; position: fixed;left:14%;top:30%""><img src=""visual/key.png"" width=""300""></div><div style=""border: 3px solid #000000; position: fixed;left:64%;top:30%""><img src=""visual/tree.png"" width=""300""></div>","arrowup","","true","experiment","visual/key.png","visual/tree.png","ArrowUp","non-ortho","","","","","","","","","","","","","","","","","","","","","","","","","","","",""
"","","","","","html-keyboard-response","137","1417153","0.0-6.0-0.40","A1DUPOUC9RNU4L","2022-05-19T10:57:08.352Z","rhyme-phon_sim-same_different-task_switching","","null","rhyme","<div style=""font-size:60px;"">+</div>","null","750","","","","","","","","","","","","","","","","","","","","","","","","","","","","","","","","","",""
"","","","","","html-keyboard-response","138","1417670","0.0-6.0-1.40","A1DUPOUC9RNU4L","2022-05-19T10:57:08.352Z","rhyme-phon_sim-same_different-task_switching","","null","rhyme","<img src=""square.png"" width=""306"" height=""306"" style=""position: fixed;left:14%;top:30%""><img src=""square.png"" width=""306"" height=""306"" style=""position: fixed;left:64%;top:30%"">","null","","","","","","","","","","","","","","","","","","","","","","","","","","","","","","","","","","",""
"","","","","","html-keyboard-response","139","1420300","0.0-6.0-2.40","A1DUPOUC9RNU4L","2022-05-19T10:57:08.352Z","rhyme-phon_sim-same_different-task_switching","","2627.899999976158","rhyme","<div style=""border: 3px solid #000000; position: fixed;left:14%;top:30%""><img src=""visual/train.png"" width=""300""></div><div style=""border: 3px solid #000000; position: fixed;left:64%;top:30%""><img src=""visual/crane.png"" width=""300""></div>","arrowup","","true","experiment","visual/train.png","visual/crane.png","ArrowUp","non-ortho","","","","","","","","","","","","","","","","","","","","","","","","","","","",""
"","","","","","html-keyboard-response","140","1421058","0.0-6.0-0.41","A1DUPOUC9RNU4L","2022-05-19T10:57:08.352Z","rhyme-phon_sim-same_different-task_switching","","null","rhyme","<div style=""font-size:60px;"">+</div>","null","750","","","","","","","","","","","","","","","","","","","","","","","","","","","","","","","","","",""
"","","","","","html-keyboard-response","141","1421573","0.0-6.0-1.41","A1DUPOUC9RNU4L","2022-05-19T10:57:08.352Z","rhyme-phon_sim-same_different-task_switching","","null","rhyme","<img src=""square.png"" width=""306"" height=""306"" style=""position: fixed;left:14%;top:30%""><img src=""square.png"" width=""306"" height=""306"" style=""position: fixed;left:64%;top:30%"">","null","","","","","","","","","","","","","","","","","","","","","","","","","","","","","","","","","","",""
"","","","","","html-keyboard-response","142","1424317","0.0-6.0-2.41","A1DUPOUC9RNU4L","2022-05-19T10:57:08.352Z","rhyme-phon_sim-same_different-task_switching","","2742.600000023842","rhyme","<div style=""border: 3px solid #000000; position: fixed;left:14%;top:30%""><img src=""visual/chain.png"" width=""300""></div><div style=""border: 3px solid #000000; position: fixed;left:64%;top:30%""><img src=""visual/brain.png"" width=""300""></div>","arrowup","","true","experiment","visual/chain.png","visual/brain.png","ArrowUp","ortho","","","","","","","","","","","","","","","","","","","","","","","","","","","",""
"","","","","","html-keyboard-response","143","1424827","0.0-6.0-0.42","A1DUPOUC9RNU4L","2022-05-19T10:57:08.352Z","rhyme-phon_sim-same_different-task_switching","","null","rhyme","<div style=""font-size:60px;"">+</div>","null","500","","","","","","","","","","","","","","","","","","","","","","","","","","","","","","","","","",""
"","","","","","html-keyboard-response","144","1425342","0.0-6.0-1.42","A1DUPOUC9RNU4L","2022-05-19T10:57:08.352Z","rhyme-phon_sim-same_different-task_switching","","null","rhyme","<img src=""square.png"" width=""306"" height=""306"" style=""position: fixed;left:14%;top:30%""><img src=""square.png"" width=""306"" height=""306"" style=""position: fixed;left:64%;top:30%"">","null","","","","","","","","","","","","","","","","","","","","","","","","","","","","","","","","","","",""
"","","","","","html-keyboard-response","145","1427476","0.0-6.0-2.42","A1DUPOUC9RNU4L","2022-05-19T10:57:08.352Z","rhyme-phon_sim-same_different-task_switching","","2131.899999976158","rhyme","<div style=""border: 3px solid #000000; position: fixed;left:14%;top:30%""><img src=""visual/shark.png"" width=""300""></div><div style=""border: 3px solid #000000; position: fixed;left:64%;top:30%""><img src=""visual/moon.png"" width=""300""></div>","arrowdown","","true","experiment","visual/shark.png","visual/moon.png","ArrowDown","NR","","","","","","","","","","","","","","","","","","","","","","","","","","","",""
"","","","","","html-keyboard-response","146","1428479","0.0-6.0-0.43","A1DUPOUC9RNU4L","2022-05-19T10:57:08.352Z","rhyme-phon_sim-same_different-task_switching","","null","rhyme","<div style=""font-size:60px;"">+</div>","null","1000","","","","","","","","","","","","","","","","","","","","","","","","","","","","","","","","","",""
"","","","","","html-keyboard-response","147","1428982","0.0-6.0-1.43","A1DUPOUC9RNU4L","2022-05-19T10:57:08.352Z","rhyme-phon_sim-same_different-task_switching","","null","rhyme","<img src=""square.png"" width=""306"" height=""306"" style=""position: fixed;left:14%;top:30%""><img src=""square.png"" width=""306"" height=""306"" style=""position: fixed;left:64%;top:30%"">","null","","","","","","","","","","","","","","","","","","","","","","","","","","","","","","","","","","",""
"","","","","","html-keyboard-response","148","1430252","0.0-6.0-2.43","A1DUPOUC9RNU4L","2022-05-19T10:57:08.352Z","rhyme-phon_sim-same_different-task_switching","","1267.800000011921","rhyme","<div style=""border: 3px solid #000000; position: fixed;left:14%;top:30%""><img src=""visual/well.png"" width=""300""></div><div style=""border: 3px solid #000000; position: fixed;left:64%;top:30%""><img src=""visual/bell.png"" width=""300""></div>","arrowup","","true","experiment","visual/well.png","visual/bell.png","ArrowUp","ortho","","","","","","","","","","","","","","","","","","","","","","","","","","","",""
"","","","","","html-keyboard-response","149","1430760","0.0-6.0-0.44","A1DUPOUC9RNU4L","2022-05-19T10:57:08.352Z","rhyme-phon_sim-same_different-task_switching","","null","rhyme","<div style=""font-size:60px;"">+</div>","null","500","","","","","","","","","","","","","","","","","","","","","","","","","","","","","","","","","",""
"","","","","","html-keyboard-response","150","1431265","0.0-6.0-1.44","A1DUPOUC9RNU4L","2022-05-19T10:57:08.352Z","rhyme-phon_sim-same_different-task_switching","","null","rhyme","<img src=""square.png"" width=""306"" height=""306"" style=""position: fixed;left:14%;top:30%""><img src=""square.png"" width=""306"" height=""306"" style=""position: fixed;left:64%;top:30%"">","null","","","","","","","","","","","","","","","","","","","","","","","","","","","","","","","","","","",""
"","","","","","html-keyboard-response","151","1433652","0.0-6.0-2.44","A1DUPOUC9RNU4L","2022-05-19T10:57:08.352Z","rhyme-phon_sim-same_different-task_switching","","2385.5","rhyme","<div style=""border: 3px solid #000000; position: fixed;left:14%;top:30%""><img src=""visual/drawer.png"" width=""300""></div><div style=""border: 3px solid #000000; position: fixed;left:64%;top:30%""><img src=""visual/door.png"" width=""300""></div>","arrowup","","true","experiment","visual/drawer.png","visual/door.png","ArrowUp","non-ortho","","","","","","","","","","","","","","","","","","","","","","","","","","","",""
"","","","","","html-keyboard-response","152","1434416","0.0-6.0-0.45","A1DUPOUC9RNU4L","2022-05-19T10:57:08.352Z","rhyme-phon_sim-same_different-task_switching","","null","rhyme","<div style=""font-size:60px;"">+</div>","null","750","","","","","","","","","","","","","","","","","","","","","","","","","","","","","","","","","",""
"","","","","","html-keyboard-response","153","1434918","0.0-6.0-1.45","A1DUPOUC9RNU4L","2022-05-19T10:57:08.352Z","rhyme-phon_sim-same_different-task_switching","","null","rhyme","<img src=""square.png"" width=""306"" height=""306"" style=""position: fixed;left:14%;top:30%""><img src=""square.png"" width=""306"" height=""306"" style=""position: fixed;left:64%;top:30%"">","null","","","","","","","","","","","","","","","","","","","","","","","","","","","","","","","","","","",""
"","","","","","html-keyboard-response","154","1437814","0.0-6.0-2.45","A1DUPOUC9RNU4L","2022-05-19T10:57:08.352Z","rhyme-phon_sim-same_different-task_switching","","2893.5","rhyme","<div style=""border: 3px solid #000000; position: fixed;left:14%;top:30%""><img src=""visual/claw.png"" width=""300""></div><div style=""border: 3px solid #000000; position: fixed;left:64%;top:30%""><img src=""visual/beer.png"" width=""300""></div>","arrowdown","","true","experiment","visual/claw.png","visual/beer.png","ArrowDown","NR","","","","","","","","","","","","","","","","","","","","","","","","","","","",""
"","","","","","html-keyboard-response","155","1438820","0.0-6.0-0.46","A1DUPOUC9RNU4L","2022-05-19T10:57:08.352Z","rhyme-phon_sim-same_different-task_switching","","null","rhyme","<div style=""font-size:60px;"">+</div>","null","1000","","","","","","","","","","","","","","","","","","","","","","","","","","","","","","","","","",""
"","","","","","html-keyboard-response","156","1439322","0.0-6.0-1.46","A1DUPOUC9RNU4L","2022-05-19T10:57:08.352Z","rhyme-phon_sim-same_different-task_switching","","null","rhyme","<img src=""square.png"" width=""306"" height=""306"" style=""position: fixed;left:14%;top:30%""><img src=""square.png"" width=""306"" height=""306"" style=""position: fixed;left:64%;top:30%"">","null","","","","","","","","","","","","","","","","","","","","","","","","","","","","","","","","","","",""
"","","","","","html-keyboard-response","157","1442252","0.0-6.0-2.46","A1DUPOUC9RNU4L","2022-05-19T10:57:08.352Z","rhyme-phon_sim-same_different-task_switching","","2927.300000011921","rhyme","<div style=""border: 3px solid #000000; position: fixed;left:14%;top:30%""><img src=""visual/cat.png"" width=""300""></div><div style=""border: 3px solid #000000; position: fixed;left:64%;top:30%""><img src=""visual/sock.png"" width=""300""></div>","arrowdown","","true","experiment","visual/cat.png","visual/sock.png","ArrowDown","NR","","","","","","","","","","","","","","","","","","","","","","","","","","","",""
"","","","","","html-keyboard-response","158","1443256","0.0-6.0-0.47","A1DUPOUC9RNU4L","2022-05-19T10:57:08.352Z","rhyme-phon_sim-same_different-task_switching","","null","rhyme","<div style=""font-size:60px;"">+</div>","null","1000","","","","","","","","","","","","","","","","","","","","","","","","","","","","","","","","","",""
"","","","","","html-keyboard-response","159","1443758","0.0-6.0-1.47","A1DUPOUC9RNU4L","2022-05-19T10:57:08.352Z","rhyme-phon_sim-same_different-task_switching","","null","rhyme","<img src=""square.png"" width=""306"" height=""306"" style=""position: fixed;left:14%;top:30%""><img src=""square.png"" width=""306"" height=""306"" style=""position: fixed;left:64%;top:30%"">","null","","","","","","","","","","","","","","","","","","","","","","","","","","","","","","","","","","",""
"","","","","","html-keyboard-response","160","1445180","0.0-6.0-2.47","A1DUPOUC9RNU4L","2022-05-19T10:57:08.352Z","rhyme-phon_sim-same_different-task_switching","","1419.199999988079","rhyme","<div style=""border: 3px solid #000000; position: fixed;left:14%;top:30%""><img src=""visual/spoon.png"" width=""300""></div><div style=""border: 3px solid #000000; position: fixed;left:64%;top:30%""><img src=""visual/moon.png"" width=""300""></div>","arrowup","","true","experiment","visual/spoon.png","visual/moon.png","ArrowUp","ortho","","","","","","","","","","","","","","","","","","","","","","","","","","","",""
"","","","","","html-keyboard-response","161","1445691","0.0-6.0-0.48","A1DUPOUC9RNU4L","2022-05-19T10:57:08.352Z","rhyme-phon_sim-same_different-task_switching","","null","rhyme","<div style=""font-size:60px;"">+</div>","null","500","","","","","","","","","","","","","","","","","","","","","","","","","","","","","","","","","",""
"","","","","","html-keyboard-response","162","1446208","0.0-6.0-1.48","A1DUPOUC9RNU4L","2022-05-19T10:57:08.352Z","rhyme-phon_sim-same_different-task_switching","","null","rhyme","<img src=""square.png"" width=""306"" height=""306"" style=""position: fixed;left:14%;top:30%""><img src=""square.png"" width=""306"" height=""306"" style=""position: fixed;left:64%;top:30%"">","null","","","","","","","","","","","","","","","","","","","","","","","","","","","","","","","","","","",""
"","","","","","html-keyboard-response","163","1448142","0.0-6.0-2.48","A1DUPOUC9RNU4L","2022-05-19T10:57:08.352Z","rhyme-phon_sim-same_different-task_switching","","1932","rhyme","<div style=""border: 3px solid #000000; position: fixed;left:14%;top:30%""><img src=""visual/bed.png"" width=""300""></div><div style=""border: 3px solid #000000; position: fixed;left:64%;top:30%""><img src=""visual/bread.png"" width=""300""></div>","arrowup","","true","experiment","visual/bed.png","visual/bread.png","ArrowUp","non-ortho","","","","","","","","","","","","","","","","","","","","","","","","","","","",""
"","","","","","html-keyboard-response","164","1448895","0.0-6.0-0.49","A1DUPOUC9RNU4L","2022-05-19T10:57:08.352Z","rhyme-phon_sim-same_different-task_switching","","null","rhyme","<div style=""font-size:60px;"">+</div>","null","750","","","","","","","","","","","","","","","","","","","","","","","","","","","","","","","","","",""
"","","","","","html-keyboard-response","165","1449411","0.0-6.0-1.49","A1DUPOUC9RNU4L","2022-05-19T10:57:08.352Z","rhyme-phon_sim-same_different-task_switching","","null","rhyme","<img src=""square.png"" width=""306"" height=""306"" style=""position: fixed;left:14%;top:30%""><img src=""square.png"" width=""306"" height=""306"" style=""position: fixed;left:64%;top:30%"">","null","","","","","","","","","","","","","","","","","","","","","","","","","","","","","","","","","","",""
"","","","","","html-keyboard-response","166","1451556","0.0-6.0-2.49","A1DUPOUC9RNU4L","2022-05-19T10:57:08.352Z","rhyme-phon_sim-same_different-task_switching","","2142.900000035763","rhyme","<div style=""border: 3px solid #000000; position: fixed;left:14%;top:30%""><img src=""visual/brain.png"" width=""300""></div><div style=""border: 3px solid #000000; position: fixed;left:64%;top:30%""><img src=""visual/clock.png"" width=""300""></div>","arrowdown","","true","experiment","visual/brain.png","visual/clock.png","ArrowDown","NR","","","","","","","","","","","","","","","","","","","","","","","","","","","",""
"","","","","","html-keyboard-response","167","1452562","0.0-6.0-0.50","A1DUPOUC9RNU4L","2022-05-19T10:57:08.352Z","rhyme-phon_sim-same_different-task_switching","","null","rhyme","<div style=""font-size:60px;"">+</div>","null","1000","","","","","","","","","","","","","","","","","","","","","","","","","","","","","","","","","",""
"","","","","","html-keyboard-response","168","1453065","0.0-6.0-1.50","A1DUPOUC9RNU4L","2022-05-19T10:57:08.352Z","rhyme-phon_sim-same_different-task_switching","","null","rhyme","<img src=""square.png"" width=""306"" height=""306"" style=""position: fixed;left:14%;top:30%""><img src=""square.png"" width=""306"" height=""306"" style=""position: fixed;left:64%;top:30%"">","null","","","","","","","","","","","","","","","","","","","","","","","","","","","","","","","","","","",""
"","","","","","html-keyboard-response","169","1454572","0.0-6.0-2.50","A1DUPOUC9RNU4L","2022-05-19T10:57:08.352Z","rhyme-phon_sim-same_different-task_switching","","1504.199999988079","rhyme","<div style=""border: 3px solid #000000; position: fixed;left:14%;top:30%""><img src=""visual/screw.png"" width=""300""></div><div style=""border: 3px solid #000000; position: fixed;left:64%;top:30%""><img src=""visual/shoe.png"" width=""300""></div>","arrowup","","true","experiment","visual/screw.png","visual/shoe.png","ArrowUp","non-ortho","","","","","","","","","","","","","","","","","","","","","","","","","","","",""
"","","","","","html-keyboard-response","170","1454831","0.0-6.0-0.51","A1DUPOUC9RNU4L","2022-05-19T10:57:08.352Z","rhyme-phon_sim-same_different-task_switching","","null","rhyme","<div style=""font-size:60px;"">+</div>","null","250","","","","","","","","","","","","","","","","","","","","","","","","","","","","","","","","","",""
"","","","","","html-keyboard-response","171","1455349","0.0-6.0-1.51","A1DUPOUC9RNU4L","2022-05-19T10:57:08.352Z","rhyme-phon_sim-same_different-task_switching","","null","rhyme","<img src=""square.png"" width=""306"" height=""306"" style=""position: fixed;left:14%;top:30%""><img src=""square.png"" width=""306"" height=""306"" style=""position: fixed;left:64%;top:30%"">","null","","","","","","","","","","","","","","","","","","","","","","","","","","","","","","","","","","",""
"","","","","","html-keyboard-response","172","1457804","0.0-6.0-2.51","A1DUPOUC9RNU4L","2022-05-19T10:57:08.352Z","rhyme-phon_sim-same_different-task_switching","","2453.5","rhyme","<div style=""border: 3px solid #000000; position: fixed;left:14%;top:30%""><img src=""visual/wheel.png"" width=""300""></div><div style=""border: 3px solid #000000; position: fixed;left:64%;top:30%""><img src=""visual/seal.png"" width=""300""></div>","arrowup","","true","experiment","visual/wheel.png","visual/seal.png","ArrowUp","non-ortho","","","","","","","","","","","","","","","","","","","","","","","","","","","",""
"","","","","","html-keyboard-response","173","1458317","0.0-6.0-0.52","A1DUPOUC9RNU4L","2022-05-19T10:57:08.352Z","rhyme-phon_sim-same_different-task_switching","","null","rhyme","<div style=""font-size:60px;"">+</div>","null","500","","","","","","","","","","","","","","","","","","","","","","","","","","","","","","","","","",""
"","","","","","html-keyboard-response","174","1458821","0.0-6.0-1.52","A1DUPOUC9RNU4L","2022-05-19T10:57:08.352Z","rhyme-phon_sim-same_different-task_switching","","null","rhyme","<img src=""square.png"" width=""306"" height=""306"" style=""position: fixed;left:14%;top:30%""><img src=""square.png"" width=""306"" height=""306"" style=""position: fixed;left:64%;top:30%"">","null","","","","","","","","","","","","","","","","","","","","","","","","","","","","","","","","","","",""
"","","","","","html-keyboard-response","175","1460142","0.0-6.0-2.52","A1DUPOUC9RNU4L","2022-05-19T10:57:08.352Z","rhyme-phon_sim-same_different-task_switching","","1318.5","rhyme","<div style=""border: 3px solid #000000; position: fixed;left:14%;top:30%""><img src=""visual/star.png"" width=""300""></div><div style=""border: 3px solid #000000; position: fixed;left:64%;top:30%""><img src=""visual/jar.png"" width=""300""></div>","arrowup","","true","experiment","visual/star.png","visual/jar.png","ArrowUp","ortho","","","","","","","","","","","","","","","","","","","","","","","","","","","",""
"","","","","","html-keyboard-response","176","1461153","0.0-6.0-0.53","A1DUPOUC9RNU4L","2022-05-19T10:57:08.352Z","rhyme-phon_sim-same_different-task_switching","","null","rhyme","<div style=""font-size:60px;"">+</div>","null","1000","","","","","","","","","","","","","","","","","","","","","","","","","","","","","","","","","",""
"","","","","","html-keyboard-response","177","1461669","0.0-6.0-1.53","A1DUPOUC9RNU4L","2022-05-19T10:57:08.352Z","rhyme-phon_sim-same_different-task_switching","","null","rhyme","<img src=""square.png"" width=""306"" height=""306"" style=""position: fixed;left:14%;top:30%""><img src=""square.png"" width=""306"" height=""306"" style=""position: fixed;left:64%;top:30%"">","null","","","","","","","","","","","","","","","","","","","","","","","","","","","","","","","","","","",""
"","","","","","html-keyboard-response","178","1464124","0.0-6.0-2.53","A1DUPOUC9RNU4L","2022-05-19T10:57:08.352Z","rhyme-phon_sim-same_different-task_switching","","2452.599999964237","rhyme","<div style=""border: 3px solid #000000; position: fixed;left:14%;top:30%""><img src=""visual/dart.png"" width=""300""></div><div style=""border: 3px solid #000000; position: fixed;left:64%;top:30%""><img src=""visual/tie.png"" width=""300""></div>","arrowdown","","true","experiment","visual/dart.png","visual/tie.png","ArrowDown","NR","","","","","","","","","","","","","","","","","","","","","","","","","","","",""
"","","","","","html-keyboard-response","179","1464388","0.0-6.0-0.54","A1DUPOUC9RNU4L","2022-05-19T10:57:08.352Z","rhyme-phon_sim-same_different-task_switching","","null","rhyme","<div style=""font-size:60px;"">+</div>","null","250","","","","","","","","","","","","","","","","","","","","","","","","","","","","","","","","","",""
"","","","","","html-keyboard-response","180","1464905","0.0-6.0-1.54","A1DUPOUC9RNU4L","2022-05-19T10:57:08.352Z","rhyme-phon_sim-same_different-task_switching","","null","rhyme","<img src=""square.png"" width=""306"" height=""306"" style=""position: fixed;left:14%;top:30%""><img src=""square.png"" width=""306"" height=""306"" style=""position: fixed;left:64%;top:30%"">","null","","","","","","","","","","","","","","","","","","","","","","","","","","","","","","","","","","",""
"","","","","","html-keyboard-response","181","1467116","0.0-6.0-2.54","A1DUPOUC9RNU4L","2022-05-19T10:57:08.352Z","rhyme-phon_sim-same_different-task_switching","","2208.400000035763","rhyme","<div style=""border: 3px solid #000000; position: fixed;left:14%;top:30%""><img src=""visual/soap.png"" width=""300""></div><div style=""border: 3px solid #000000; position: fixed;left:64%;top:30%""><img src=""visual/rope.png"" width=""300""></div>","arrowup","","true","experiment","visual/soap.png","visual/rope.png","ArrowUp","non-ortho","","","","","","","","","","","","","","","","","","","","","","","","","","","",""
"","","","","","html-keyboard-response","182","1468123","0.0-6.0-0.55","A1DUPOUC9RNU4L","2022-05-19T10:57:08.352Z","rhyme-phon_sim-same_different-task_switching","","null","rhyme","<div style=""font-size:60px;"">+</div>","null","1000","","","","","","","","","","","","","","","","","","","","","","","","","","","","","","","","","",""
"","","","","","html-keyboard-response","183","1468640","0.0-6.0-1.55","A1DUPOUC9RNU4L","2022-05-19T10:57:08.352Z","rhyme-phon_sim-same_different-task_switching","","null","rhyme","<img src=""square.png"" width=""306"" height=""306"" style=""position: fixed;left:14%;top:30%""><img src=""square.png"" width=""306"" height=""306"" style=""position: fixed;left:64%;top:30%"">","null","","","","","","","","","","","","","","","","","","","","","","","","","","","","","","","","","","",""
"","","","","","html-keyboard-response","184","1470271","0.0-6.0-2.55","A1DUPOUC9RNU4L","2022-05-19T10:57:08.352Z","rhyme-phon_sim-same_different-task_switching","","1628.199999988079","rhyme","<div style=""border: 3px solid #000000; position: fixed;left:14%;top:30%""><img src=""visual/socks.png"" width=""300""></div><div style=""border: 3px solid #000000; position: fixed;left:64%;top:30%""><img src=""visual/fox.png"" width=""300""></div>","arrowup","","true","experiment","visual/socks.png","visual/fox.png","ArrowUp","non-ortho","","","","","","","","","","","","","","","","","","","","","","","","","","","",""
"","","","","","html-keyboard-response","185","1470527","0.0-6.0-0.56","A1DUPOUC9RNU4L","2022-05-19T10:57:08.352Z","rhyme-phon_sim-same_different-task_switching","","null","rhyme","<div style=""font-size:60px;"">+</div>","null","250","","","","","","","","","","","","","","","","","","","","","","","","","","","","","","","","","",""
"","","","","","html-keyboard-response","186","1471044","0.0-6.0-1.56","A1DUPOUC9RNU4L","2022-05-19T10:57:08.352Z","rhyme-phon_sim-same_different-task_switching","","null","rhyme","<img src=""square.png"" width=""306"" height=""306"" style=""position: fixed;left:14%;top:30%""><img src=""square.png"" width=""306"" height=""306"" style=""position: fixed;left:64%;top:30%"">","null","","","","","","","","","","","","","","","","","","","","","","","","","","","","","","","","","","",""
"","","","","","html-keyboard-response","187","1472612","0.0-6.0-2.56","A1DUPOUC9RNU4L","2022-05-19T10:57:08.352Z","rhyme-phon_sim-same_different-task_switching","","1567.2999999523163","rhyme","<div style=""border: 3px solid #000000; position: fixed;left:14%;top:30%""><img src=""visual/dart.png"" width=""300""></div><div style=""border: 3px solid #000000; position: fixed;left:64%;top:30%""><img src=""visual/heart.png"" width=""300""></div>","arrowup","","true","experiment","visual/dart.png","visual/heart.png","ArrowUp","non-ortho","","","","","","","","","","","","","","","","","","","","","","","","","","","",""
"","","","","","html-keyboard-response","188","1473378","0.0-6.0-0.57","A1DUPOUC9RNU4L","2022-05-19T10:57:08.352Z","rhyme-phon_sim-same_different-task_switching","","null","rhyme","<div style=""font-size:60px;"">+</div>","null","750","","","","","","","","","","","","","","","","","","","","","","","","","","","","","","","","","",""
"","","","","","html-keyboard-response","189","1473895","0.0-6.0-1.57","A1DUPOUC9RNU4L","2022-05-19T10:57:08.352Z","rhyme-phon_sim-same_different-task_switching","","null","rhyme","<img src=""square.png"" width=""306"" height=""306"" style=""position: fixed;left:14%;top:30%""><img src=""square.png"" width=""306"" height=""306"" style=""position: fixed;left:64%;top:30%"">","null","","","","","","","","","","","","","","","","","","","","","","","","","","","","","","","","","","",""
"","","","","","html-keyboard-response","190","1475756","0.0-6.0-2.57","A1DUPOUC9RNU4L","2022-05-19T10:57:08.352Z","rhyme-phon_sim-same_different-task_switching","","1859.199999988079","rhyme","<div style=""border: 3px solid #000000; position: fixed;left:14%;top:30%""><img src=""visual/pope.png"" width=""300""></div><div style=""border: 3px solid #000000; position: fixed;left:64%;top:30%""><img src=""visual/soap.png"" width=""300""></div>","arrowup","","true","experiment","visual/pope.png","visual/soap.png","ArrowUp","non-ortho","","","","","","","","","","","","","","","","","","","","","","","","","","","",""
"","","","","","html-keyboard-response","191","1476013","0.0-6.0-0.58","A1DUPOUC9RNU4L","2022-05-19T10:57:08.352Z","rhyme-phon_sim-same_different-task_switching","","null","rhyme","<div style=""font-size:60px;"">+</div>","null","250","","","","","","","","","","","","","","","","","","","","","","","","","","","","","","","","","",""
"","","","","","html-keyboard-response","192","1476530","0.0-6.0-1.58","A1DUPOUC9RNU4L","2022-05-19T10:57:08.352Z","rhyme-phon_sim-same_different-task_switching","","null","rhyme","<img src=""square.png"" width=""306"" height=""306"" style=""position: fixed;left:14%;top:30%""><img src=""square.png"" width=""306"" height=""306"" style=""position: fixed;left:64%;top:30%"">","null","","","","","","","","","","","","","","","","","","","","","","","","","","","","","","","","","","",""
"","","","","","html-keyboard-response","193","1478036","0.0-6.0-2.58","A1DUPOUC9RNU4L","2022-05-19T10:57:08.352Z","rhyme-phon_sim-same_different-task_switching","","1503","rhyme","<div style=""border: 3px solid #000000; position: fixed;left:14%;top:30%""><img src=""visual/plane.png"" width=""300""></div><div style=""border: 3px solid #000000; position: fixed;left:64%;top:30%""><img src=""visual/chain.png"" width=""300""></div>","arrowup","","true","experiment","visual/plane.png","visual/chain.png","ArrowUp","non-ortho","","","","","","","","","","","","","","","","","","","","","","","","","","","",""
"","","","","","html-keyboard-response","194","1479049","0.0-6.0-0.59","A1DUPOUC9RNU4L","2022-05-19T10:57:08.352Z","rhyme-phon_sim-same_different-task_switching","","null","rhyme","<div style=""font-size:60px;"">+</div>","null","1000","","","","","","","","","","","","","","","","","","","","","","","","","","","","","","","","","",""
"","","","","","html-keyboard-response","195","1479566","0.0-6.0-1.59","A1DUPOUC9RNU4L","2022-05-19T10:57:08.352Z","rhyme-phon_sim-same_different-task_switching","","null","rhyme","<img src=""square.png"" width=""306"" height=""306"" style=""position: fixed;left:14%;top:30%""><img src=""square.png"" width=""306"" height=""306"" style=""position: fixed;left:64%;top:30%"">","null","","","","","","","","","","","","","","","","","","","","","","","","","","","","","","","","","","",""
"","","","","","html-keyboard-response","196","1481755","0.0-6.0-2.59","A1DUPOUC9RNU4L","2022-05-19T10:57:08.352Z","rhyme-phon_sim-same_different-task_switching","","2189.899999976158","rhyme","<div style=""border: 3px solid #000000; position: fixed;left:14%;top:30%""><img src=""visual/saw.png"" width=""300""></div><div style=""border: 3px solid #000000; position: fixed;left:64%;top:30%""><img src=""visual/claw.png"" width=""300""></div>","arrowup","","true","experiment","visual/saw.png","visual/claw.png","ArrowUp","ortho","","","","","","","","","","","","","","","","","","","","","","","","","","","",""
"","","","","","survey-multi-choice","197","1487537","0.0-7.0","A1DUPOUC9RNU4L","2022-05-19T10:57:08.352Z","rhyme-phon_sim-same_different-task_switching","","5779","rhyme","","{""Q0"":""Yes""}","","","","","","","","[0]","Yes","","","","","","","","","","","","","","","","","","","","","","","","","",""
"","","","","","survey-text","198","1491291","0.0-8.0","A1DUPOUC9RNU4L","2022-05-19T10:57:08.352Z","rhyme-phon_sim-same_different-task_switching","","3751.099999964237","rhyme","","{""Q0"":""""}","","","","","","","","","","","","","","","","","","","","","","","","","","","","","","","","","","",""
"","","","","","instructions","199","1493192","0.0-9.0","A1DUPOUC9RNU4L","2022-05-19T10:57:08.352Z","rhyme-phon_sim-same_different-task_switching","[{""page_index"":0,""viewing_time"":1900.4000000357628}]","1900.5","rhyme","","","","","","","","","","","","","","","","","","","","","","","","","","","","","","","","","","","","",""
"","","","","","instructions","200","1550810","0.0-10.0","A1DUPOUC9RNU4L","2022-05-19T10:57:08.352Z","rhyme-phon_sim-same_different-task_switching","[{""page_index"":0,""viewing_time"":57615.10000002384}]","57615.200000047684","phon_sim","","","","","","","","","","","","","","","","","","","","","","","","","","","","","","","","","","","","",""
"","","","","","html-keyboard-response","201","1563828","0.0-11.0-0.0","A1DUPOUC9RNU4L","2022-05-19T10:57:08.352Z","rhyme-phon_sim-same_different-task_switching","","null","phon_sim","<div style=""display:grid""><h1 id=""word_1"" style=""grid-column:1; grid-row:1"">mad</h1><h1 id=""word_2"" style=""visibility:hidden;grid-column:1; grid-row:1"">man</h1><h1 id=""word_3"" style=""visibility:hidden;grid-column:1; grid-row:1"">map</h1><h1 id=""word_4"" style=""visibility:hidden;grid-column:1; grid-row:1"">mat</h1><h1 id=""word_5"" style=""visibility:hidden;grid-column:1; grid-row:1"">max</h1></div>","null","","","training","","","","","","","","mad","man","map","mat","max","training","","","","","","","","","","","","","","","","","","",""
"","","","","","survey-text","202","1584480","0.0-11.0-1.0","A1DUPOUC9RNU4L","2022-05-19T10:57:08.352Z","rhyme-phon_sim-same_different-task_switching","","20646.900000035763","phon_sim","","{""position_1"":""mad"",""position_2"":""man"",""position_3"":""mat"",""position_4"":""map"",""position_5"":""max""}","","","training","","","","","","","","","","","","","","mad","man","mat","map","max","","","","","","","","","","","","","",""
"","","","","","html-keyboard-response","203","1589494","0.0-11.0-2.0","A1DUPOUC9RNU4L","2022-05-19T10:57:08.352Z","rhyme-phon_sim-same_different-task_switching","","null","phon_sim","<h1 id=""word_1"">mad</h1><h1 id=""word_2"">man</h1><h1 id=""word_3"">map</h1><h1 id=""word_4"">mat</h1><h1 id=""word_5"">max</h1>","null","","","","","","","","","","","","","","","","","","","","","","","","","","","","","","","","","","",""
"","","","","","html-keyboard-response","204","1602506","0.0-11.0-0.1","A1DUPOUC9RNU4L","2022-05-19T10:57:08.352Z","rhyme-phon_sim-same_different-task_switching","","null","phon_sim","<div style=""display:grid""><h1 id=""word_1"" style=""grid-column:1; grid-row:1"">pen</h1><h1 id=""word_2"" style=""visibility:hidden;grid-column:1; grid-row:1"">rig</h1><h1 id=""word_3"" style=""visibility:hidden;grid-column:1; grid-row:1"">day</h1><h1 id=""word_4"" style=""visibility:hidden;grid-column:1; grid-row:1"">bar</h1><h1 id=""word_5"" style=""visibility:hidden;grid-column:1; grid-row:1"">cow</h1></div>","null","","","training","","","","","","","","pen","rig","day","bar","cow","training","","","","","","","","","","","","","","","","","","",""
"","","","","","survey-text","205","1619024","0.0-11.0-1.1","A1DUPOUC9RNU4L","2022-05-19T10:57:08.352Z","rhyme-phon_sim-same_different-task_switching","","16512.900000035763","phon_sim","","{""position_1"":""pen"",""position_2"":""rig"",""position_3"":""day"",""position_4"":""bar"",""position_5"":""cow""}","","","training","","","","","","","","","","","","","","pen","rig","day","bar","cow","","","","","","","","","","","","","",""
"","","","","","html-keyboard-response","206","1624036","0.0-11.0-2.1","A1DUPOUC9RNU4L","2022-05-19T10:57:08.352Z","rhyme-phon_sim-same_different-task_switching","","null","phon_sim","<h1 id=""word_1"">pen</h1><h1 id=""word_2"">rig</h1><h1 id=""word_3"">day</h1><h1 id=""word_4"">bar</h1><h1 id=""word_5"">cow</h1>","null","","","","","","","","","","","","","","","","","","","","","","","","","","","","","","","","","","",""
"","","","","","instructions","207","1641738","0.0-12.0","A1DUPOUC9RNU4L","2022-05-19T10:57:08.352Z","rhyme-phon_sim-same_different-task_switching","[{""page_index"":0,""viewing_time"":17700.600000023842}]","17700.80000001192","","","","","","","","","","","","","","","","","","","","","","","","","","","","","","","","","","","","","",""
"","","","","","html-keyboard-response","208","1654745","0.0-13.0-0.0","A1DUPOUC9RNU4L","2022-05-19T10:57:08.352Z","rhyme-phon_sim-same_different-task_switching","","null","phon_sim","<div style=""display:grid""><h1 id=""word_1"" style=""grid-column:1; grid-row:1"">taut</h1><h1 id=""word_2"" style=""visibility:hidden;grid-column:1; grid-row:1"">bought</h1><h1 id=""word_3"" style=""visibility:hidden;grid-column:1; grid-row:1"">caught</h1><h1 id=""word_4"" style=""visibility:hidden;grid-column:1; grid-row:1"">wart</h1><h1 id=""word_5"" style=""visibility:hidden;grid-column:1; grid-row:1"">sort</h1></div>","null","","","experiment","","","","","","","","taut","bought","caught","wart","sort","phonSet","","","","","","","","","","","","","","","","","","",""
