"success","timeout","failed_images","failed_audio","failed_video","trial_type","trial_index","time_elapsed","internal_node_id","worker_id","start_time","experiment_order","view_history","rt","experiment","response","phase","stimulus","condition","answer","correct","operation","color_cue","trial_no","symbol_cue","question_order","talk_out_loud","strategy_free_ans","word_1","word_2","word_3","word_4","word_5","original_word_set","response_1","response_2","response_3","response_4","response_5","wait_time","image_1","image_2","cor_key","type","judgment_type","stim_1","stim_2","inverted","true_neg","true_pos","false_pos","false_neg"
"true","false","[]","[]","[]","preload","0","8395","0.0-0.0","A2PWUACCQI97J8","2022-05-22T22:19:56.198Z","task_switching-phon_sim-rhyme-same_different","","","","","","","","","","","","","","","","","","","","","","","","","","","","","","","","","","","","","","","",""
"","","","","","instructions","1","19046","0.0-1.0","A2PWUACCQI97J8","2022-05-22T22:19:56.198Z","task_switching-phon_sim-rhyme-same_different","[{""page_index"":0,""viewing_time"":10649.600000023842}]","10649.799999952316","","","","","","","","","","","","","","","","","","","","","","","","","","","","","","","","","","","","","",""
"true","","","","","fullscreen","2","21804","0.0-2.0","A2PWUACCQI97J8","2022-05-22T22:19:56.198Z","task_switching-phon_sim-rhyme-same_different","","","","","","","","","","","","","","","","","","","","","","","","","","","","","","","","","","","","","","","",""
"","","","","","instructions","3","45095","0.0-3.0","A2PWUACCQI97J8","2022-05-22T22:19:56.198Z","task_switching-phon_sim-rhyme-same_different","[{""page_index"":0,""viewing_time"":23290.200000047684}]","23290.300000071526","task_switching","","","","","","","","","","","","","","","","","","","","","","","","","","","","","","","","","","","","",""
"","","","","","instructions","4","53113","0.0-4.0","A2PWUACCQI97J8","2022-05-22T22:19:56.198Z","task_switching-phon_sim-rhyme-same_different","[{""page_index"":0,""viewing_time"":8015.799999952316}]","8015.899999976158","task_switching","","","","","","","","","","","","","","","","","","","","","","","","","","","","","","","","","","","","",""
"","","","","","survey-text","5","55133","0.0-5.0","A2PWUACCQI97J8","2022-05-22T22:19:56.198Z","task_switching-phon_sim-rhyme-same_different","","2010.6999999284744","task_switching","{""subtraction_ans"":""14""}","training","17","subtraction","14","true","subtract","","","","","","","","","","","","","","","","","","","","","","","","","","","","","",""
"","","","","","html-keyboard-response","6","56139","0.0-6.0","A2PWUACCQI97J8","2022-05-22T22:19:56.198Z","task_switching-phon_sim-rhyme-same_different","","null","task_switching","null","training","<div style=""color:darkgreen; font-size:60px"">Well done!</div>","subtraction","","","","","","","","","","","","","","","","","","","","","","","","","","","","","","","","",""
"","","","","","survey-text","7","58984","0.0-7.0","A2PWUACCQI97J8","2022-05-22T22:19:56.198Z","task_switching-phon_sim-rhyme-same_different","","2842.6999999284744","task_switching","{""subtraction_ans"":""84""}","training","87","subtraction","84","true","subtract","","","","","","","","","","","","","","","","","","","","","","","","","","","","","",""
"","","","","","html-keyboard-response","8","59987","0.0-8.0","A2PWUACCQI97J8","2022-05-22T22:19:56.198Z","task_switching-phon_sim-rhyme-same_different","","null","task_switching","null","training","<div style=""color:darkgreen; font-size:60px"">Well done!</div>","subtraction","","","","","","","","","","","","","","","","","","","","","","","","","","","","","","","","",""
"","","","","","survey-text","9","62985","0.0-9.0","A2PWUACCQI97J8","2022-05-22T22:19:56.198Z","task_switching-phon_sim-rhyme-same_different","","2992.2000000476837","task_switching","{""subtraction_ans"":""59""}","training","62","subtraction","59","true","subtract","","","","","","","","","","","","","","","","","","","","","","","","","","","","","",""
"","","","","","html-keyboard-response","10","63995","0.0-10.0","A2PWUACCQI97J8","2022-05-22T22:19:56.198Z","task_switching-phon_sim-rhyme-same_different","","null","task_switching","null","training","<div style=""color:darkgreen; font-size:60px"">Well done!</div>","subtraction","","","","","","","","","","","","","","","","","","","","","","","","","","","","","","","","",""
"","","","","","survey-text","11","66597","0.0-11.0","A2PWUACCQI97J8","2022-05-22T22:19:56.198Z","task_switching-phon_sim-rhyme-same_different","","2599.8000000715256","task_switching","{""subtraction_ans"":""69""}","training","72","subtraction","69","true","subtract","","","","","","","","","","","","","","","","","","","","","","","","","","","","","",""
"","","","","","html-keyboard-response","12","67602","0.0-12.0","A2PWUACCQI97J8","2022-05-22T22:19:56.198Z","task_switching-phon_sim-rhyme-same_different","","null","task_switching","null","training","<div style=""color:darkgreen; font-size:60px"">Well done!</div>","subtraction","","","","","","","","","","","","","","","","","","","","","","","","","","","","","","","","",""
"","","","","","survey-text","13","69676","0.0-13.0","A2PWUACCQI97J8","2022-05-22T22:19:56.198Z","task_switching-phon_sim-rhyme-same_different","","2071.7999999523163","task_switching","{""subtraction_ans"":""61""}","training","64","subtraction","61","true","subtract","","","","","","","","","","","","","","","","","","","","","","","","","","","","","",""
"","","","","","html-keyboard-response","14","70690","0.0-14.0","A2PWUACCQI97J8","2022-05-22T22:19:56.198Z","task_switching-phon_sim-rhyme-same_different","","null","task_switching","null","training","<div style=""color:darkgreen; font-size:60px"">Well done!</div>","subtraction","","","","","","","","","","","","","","","","","","","","","","","","","","","","","","","","",""
"","","","","","survey-text","15","72244","0.0-15.0","A2PWUACCQI97J8","2022-05-22T22:19:56.198Z","task_switching-phon_sim-rhyme-same_different","","1550.0999999046326","task_switching","{""subtraction_ans"":""91""}","training","94","subtraction","91","true","subtract","","","","","","","","","","","","","","","","","","","","","","","","","","","","","",""
"","","","","","html-keyboard-response","16","73250","0.0-16.0","A2PWUACCQI97J8","2022-05-22T22:19:56.198Z","task_switching-phon_sim-rhyme-same_different","","null","task_switching","null","training","<div style=""color:darkgreen; font-size:60px"">Well done!</div>","subtraction","","","","","","","","","","","","","","","","","","","","","","","","","","","","","","","","",""
"","","","","","survey-text","17","74794","0.0-17.0","A2PWUACCQI97J8","2022-05-22T22:19:56.198Z","task_switching-phon_sim-rhyme-same_different","","1540.8999999761581","task_switching","{""subtraction_ans"":""83""}","training","86","subtraction","83","true","subtract","","","","","","","","","","","","","","","","","","","","","","","","","","","","","",""
"","","","","","html-keyboard-response","18","75805","0.0-18.0","A2PWUACCQI97J8","2022-05-22T22:19:56.198Z","task_switching-phon_sim-rhyme-same_different","","null","task_switching","null","training","<div style=""color:darkgreen; font-size:60px"">Well done!</div>","subtraction","","","","","","","","","","","","","","","","","","","","","","","","","","","","","","","","",""
"","","","","","survey-text","19","77168","0.0-19.0","A2PWUACCQI97J8","2022-05-22T22:19:56.198Z","task_switching-phon_sim-rhyme-same_different","","1360.8000000715256","task_switching","{""subtraction_ans"":""60""}","training","63","subtraction","60","true","subtract","","","","","","","","","","","","","","","","","","","","","","","","","","","","","",""
"","","","","","html-keyboard-response","20","78181","0.0-20.0","A2PWUACCQI97J8","2022-05-22T22:19:56.198Z","task_switching-phon_sim-rhyme-same_different","","null","task_switching","null","training","<div style=""color:darkgreen; font-size:60px"">Well done!</div>","subtraction","","","","","","","","","","","","","","","","","","","","","","","","","","","","","","","","",""
"","","","","","survey-text","21","80522","0.0-21.0","A2PWUACCQI97J8","2022-05-22T22:19:56.198Z","task_switching-phon_sim-rhyme-same_different","","2338.7999999523163","task_switching","{""subtraction_ans"":""28""}","training","31","subtraction","28","true","subtract","","","","","","","","","","","","","","","","","","","","","","","","","","","","","",""
"","","","","","html-keyboard-response","22","81525","0.0-22.0","A2PWUACCQI97J8","2022-05-22T22:19:56.198Z","task_switching-phon_sim-rhyme-same_different","","null","task_switching","null","training","<div style=""color:darkgreen; font-size:60px"">Well done!</div>","subtraction","","","","","","","","","","","","","","","","","","","","","","","","","","","","","","","","",""
"","","","","","survey-text","23","83148","0.0-23.0","A2PWUACCQI97J8","2022-05-22T22:19:56.198Z","task_switching-phon_sim-rhyme-same_different","","1621.6000000238419","task_switching","{""subtraction_ans"":""82""}","training","85","subtraction","82","true","subtract","","","","","","","","","","","","","","","","","","","","","","","","","","","","","",""
"","","","","","html-keyboard-response","24","84158","0.0-24.0","A2PWUACCQI97J8","2022-05-22T22:19:56.198Z","task_switching-phon_sim-rhyme-same_different","","null","task_switching","null","training","<div style=""color:darkgreen; font-size:60px"">Well done!</div>","subtraction","","","","","","","","","","","","","","","","","","","","","","","","","","","","","","","","",""
"","","","","","instructions","25","86432","0.0-25.0","A2PWUACCQI97J8","2022-05-22T22:19:56.198Z","task_switching-phon_sim-rhyme-same_different","[{""page_index"":0,""viewing_time"":2273.5}]","2273.7000000476837","task_switching","","","","","","","","","","","","","","","","","","","","","","","","","","","","","","","","","","","","",""
"","","","","","survey-text","26","88371","0.0-26.0","A2PWUACCQI97J8","2022-05-22T22:19:56.198Z","task_switching-phon_sim-rhyme-same_different","","1936.8000000715256","task_switching","{""subtraction_ans"":""39""}","experiment","42","subtraction","39","true","subtract","","","","","","","","","","","","","","","","","","","","","","","","","","","","","",""
"","","","","","survey-text","27","90045","0.0-27.0","A2PWUACCQI97J8","2022-05-22T22:19:56.198Z","task_switching-phon_sim-rhyme-same_different","","1673.1999999284744","task_switching","{""subtraction_ans"":""51""}","experiment","54","subtraction","51","true","subtract","","","","","","","","","","","","","","","","","","","","","","","","","","","","","",""
"","","","","","survey-text","28","91647","0.0-28.0","A2PWUACCQI97J8","2022-05-22T22:19:56.198Z","task_switching-phon_sim-rhyme-same_different","","1600","task_switching","{""subtraction_ans"":""19""}","experiment","22","subtraction","19","true","subtract","","","","","","","","","","","","","","","","","","","","","","","","","","","","","",""
"","","","","","survey-text","29","93255","0.0-29.0","A2PWUACCQI97J8","2022-05-22T22:19:56.198Z","task_switching-phon_sim-rhyme-same_different","","1606.1000000238419","task_switching","{""subtraction_ans"":""84""}","experiment","87","subtraction","84","true","subtract","","","","","","","","","","","","","","","","","","","","","","","","","","","","","",""
"","","","","","survey-text","30","95035","0.0-30.0","A2PWUACCQI97J8","2022-05-22T22:19:56.198Z","task_switching-phon_sim-rhyme-same_different","","1778.2000000476837","task_switching","{""subtraction_ans"":""47""}","experiment","50","subtraction","47","true","subtract","","","","","","","","","","","","","","","","","","","","","","","","","","","","","",""
"","","","","","survey-text","31","96367","0.0-31.0","A2PWUACCQI97J8","2022-05-22T22:19:56.198Z","task_switching-phon_sim-rhyme-same_different","","1331.2999999523163","task_switching","{""subtraction_ans"":""10""}","experiment","13","subtraction","10","true","subtract","","","","","","","","","","","","","","","","","","","","","","","","","","","","","",""
"","","","","","survey-text","32","97797","0.0-32.0","A2PWUACCQI97J8","2022-05-22T22:19:56.198Z","task_switching-phon_sim-rhyme-same_different","","1428.8000000715256","task_switching","{""subtraction_ans"":""83""}","experiment","86","subtraction","83","true","subtract","","","","","","","","","","","","","","","","","","","","","","","","","","","","","",""
"","","","","","survey-text","33","99480","0.0-33.0","A2PWUACCQI97J8","2022-05-22T22:19:56.198Z","task_switching-phon_sim-rhyme-same_different","","1681","task_switching","{""subtraction_ans"":""42""}","experiment","45","subtraction","42","true","subtract","","","","","","","","","","","","","","","","","","","","","","","","","","","","","",""
"","","","","","survey-text","34","101616","0.0-34.0","A2PWUACCQI97J8","2022-05-22T22:19:56.198Z","task_switching-phon_sim-rhyme-same_different","","2135.399999976158","task_switching","{""subtraction_ans"":""45""}","experiment","48","subtraction","45","true","subtract","","","","","","","","","","","","","","","","","","","","","","","","","","","","","",""
"","","","","","survey-text","35","104763","0.0-35.0","A2PWUACCQI97J8","2022-05-22T22:19:56.198Z","task_switching-phon_sim-rhyme-same_different","","3146","task_switching","{""subtraction_ans"":""62""}","experiment","65","subtraction","62","true","subtract","","","","","","","","","","","","","","","","","","","","","","","","","","","","","",""
"","","","","","survey-text","36","106809","0.0-36.0","A2PWUACCQI97J8","2022-05-22T22:19:56.198Z","task_switching-phon_sim-rhyme-same_different","","2044.5","task_switching","{""subtraction_ans"":""69""}","experiment","72","subtraction","69","true","subtract","","","","","","","","","","","","","","","","","","","","","","","","","","","","","",""
"","","","","","survey-text","37","108253","0.0-37.0","A2PWUACCQI97J8","2022-05-22T22:19:56.198Z","task_switching-phon_sim-rhyme-same_different","","1442.5999999046326","task_switching","{""subtraction_ans"":""50""}","experiment","53","subtraction","50","true","subtract","","","","","","","","","","","","","","","","","","","","","","","","","","","","","",""
"","","","","","survey-text","38","110444","0.0-38.0","A2PWUACCQI97J8","2022-05-22T22:19:56.198Z","task_switching-phon_sim-rhyme-same_different","","2189.7999999523163","task_switching","{""subtraction_ans"":""77""}","experiment","80","subtraction","77","true","subtract","","","","","","","","","","","","","","","","","","","","","","","","","","","","","",""
"","","","","","survey-text","39","111822","0.0-39.0","A2PWUACCQI97J8","2022-05-22T22:19:56.198Z","task_switching-phon_sim-rhyme-same_different","","1376.2999999523163","task_switching","{""subtraction_ans"":""12""}","experiment","15","subtraction","12","true","subtract","","","","","","","","","","","","","","","","","","","","","","","","","","","","","",""
"","","","","","survey-text","40","115229","0.0-40.0","A2PWUACCQI97J8","2022-05-22T22:19:56.198Z","task_switching-phon_sim-rhyme-same_different","","3405.2000000476837","task_switching","{""subtraction_ans"":""75""}","experiment","78","subtraction","75","true","subtract","","","","","","","","","","","","","","","","","","","","","","","","","","","","","",""
"","","","","","survey-text","41","117292","0.0-41.0","A2PWUACCQI97J8","2022-05-22T22:19:56.198Z","task_switching-phon_sim-rhyme-same_different","","2062.600000023842","task_switching","{""subtraction_ans"":""16""}","experiment","19","subtraction","16","true","subtract","","","","","","","","","","","","","","","","","","","","","","","","","","","","","",""
"","","","","","survey-text","42","118965","0.0-42.0","A2PWUACCQI97J8","2022-05-22T22:19:56.198Z","task_switching-phon_sim-rhyme-same_different","","1671.3999999761581","task_switching","{""subtraction_ans"":""25""}","experiment","28","subtraction","25","true","subtract","","","","","","","","","","","","","","","","","","","","","","","","","","","","","",""
"","","","","","survey-text","43","120422","0.0-43.0","A2PWUACCQI97J8","2022-05-22T22:19:56.198Z","task_switching-phon_sim-rhyme-same_different","","1455.6000000238419","task_switching","{""subtraction_ans"":""80""}","experiment","83","subtraction","80","true","subtract","","","","","","","","","","","","","","","","","","","","","","","","","","","","","",""
"","","","","","survey-text","44","122094","0.0-44.0","A2PWUACCQI97J8","2022-05-22T22:19:56.198Z","task_switching-phon_sim-rhyme-same_different","","1670.6999999284744","task_switching","{""subtraction_ans"":""81""}","experiment","84","subtraction","81","true","subtract","","","","","","","","","","","","","","","","","","","","","","","","","","","","","",""
"","","","","","survey-text","45","124257","0.0-45.0","A2PWUACCQI97J8","2022-05-22T22:19:56.198Z","task_switching-phon_sim-rhyme-same_different","","2161.1999999284744","task_switching","{""subtraction_ans"":""55""}","experiment","58","subtraction","55","true","subtract","","","","","","","","","","","","","","","","","","","","","","","","","","","","","",""
"","","","","","survey-text","46","125795","0.0-46.0","A2PWUACCQI97J8","2022-05-22T22:19:56.198Z","task_switching-phon_sim-rhyme-same_different","","1536.1999999284744","task_switching","{""subtraction_ans"":""90""}","experiment","93","subtraction","90","true","subtract","","","","","","","","","","","","","","","","","","","","","","","","","","","","","",""
"","","","","","survey-text","47","127723","0.0-47.0","A2PWUACCQI97J8","2022-05-22T22:19:56.198Z","task_switching-phon_sim-rhyme-same_different","","1926.5","task_switching","{""subtraction_ans"":""48""}","experiment","51","subtraction","48","true","subtract","","","","","","","","","","","","","","","","","","","","","","","","","","","","","",""
"","","","","","survey-text","48","129986","0.0-48.0","A2PWUACCQI97J8","2022-05-22T22:19:56.198Z","task_switching-phon_sim-rhyme-same_different","","2261.6999999284744","task_switching","{""subtraction_ans"":""56""}","experiment","59","subtraction","56","true","subtract","","","","","","","","","","","","","","","","","","","","","","","","","","","","","",""
"","","","","","survey-text","49","132638","0.0-49.0","A2PWUACCQI97J8","2022-05-22T22:19:56.198Z","task_switching-phon_sim-rhyme-same_different","","2650.6999999284744","task_switching","{""subtraction_ans"":""68""}","experiment","71","subtraction","68","true","subtract","","","","","","","","","","","","","","","","","","","","","","","","","","","","","",""
"","","","","","survey-text","50","134171","0.0-50.0","A2PWUACCQI97J8","2022-05-22T22:19:56.198Z","task_switching-phon_sim-rhyme-same_different","","1531.5","task_switching","{""subtraction_ans"":""92""}","experiment","95","subtraction","92","true","subtract","","","","","","","","","","","","","","","","","","","","","","","","","","","","","",""
"","","","","","survey-text","51","135929","0.0-51.0","A2PWUACCQI97J8","2022-05-22T22:19:56.198Z","task_switching-phon_sim-rhyme-same_different","","1756.8999999761581","task_switching","{""subtraction_ans"":""36""}","experiment","39","subtraction","36","true","subtract","","","","","","","","","","","","","","","","","","","","","","","","","","","","","",""
"","","","","","survey-text","52","137421","0.0-52.0","A2PWUACCQI97J8","2022-05-22T22:19:56.198Z","task_switching-phon_sim-rhyme-same_different","","1490.7000000476837","task_switching","{""subtraction_ans"":""96""}","experiment","99","subtraction","96","true","subtract","","","","","","","","","","","","","","","","","","","","","","","","","","","","","",""
"","","","","","survey-text","53","139275","0.0-53.0","A2PWUACCQI97J8","2022-05-22T22:19:56.198Z","task_switching-phon_sim-rhyme-same_different","","1852.1000000238419","task_switching","{""subtraction_ans"":""73""}","experiment","76","subtraction","73","true","subtract","","","","","","","","","","","","","","","","","","","","","","","","","","","","","",""
"","","","","","survey-text","54","140682","0.0-54.0","A2PWUACCQI97J8","2022-05-22T22:19:56.198Z","task_switching-phon_sim-rhyme-same_different","","1405.8000000715256","task_switching","{""subtraction_ans"":""23""}","experiment","26","subtraction","23","true","subtract","","","","","","","","","","","","","","","","","","","","","","","","","","","","","",""
"","","","","","survey-text","55","142257","0.0-55.0","A2PWUACCQI97J8","2022-05-22T22:19:56.198Z","task_switching-phon_sim-rhyme-same_different","","1573.5","task_switching","{""subtraction_ans"":""22""}","experiment","25","subtraction","22","true","subtract","","","","","","","","","","","","","","","","","","","","","","","","","","","","","",""
"","","","","","instructions","56","145530","0.0-56.0","A2PWUACCQI97J8","2022-05-22T22:19:56.198Z","task_switching-phon_sim-rhyme-same_different","[{""page_index"":0,""viewing_time"":3272.600000023842}]","3272.7000000476837","task_switching","","","","","","","","","","","","","","","","","","","","","","","","","","","","","","","","","","","","",""
"","","","","","survey-text","57","147007","0.0-57.0","A2PWUACCQI97J8","2022-05-22T22:19:56.198Z","task_switching-phon_sim-rhyme-same_different","","1475","task_switching","{""addition_ans"":""21""}","training","18","addition","21","true","add","","","","","","","","","","","","","","","","","","","","","","","","","","","","","",""
"","","","","","html-keyboard-response","58","148019","0.0-58.0","A2PWUACCQI97J8","2022-05-22T22:19:56.198Z","task_switching-phon_sim-rhyme-same_different","","null","task_switching","null","training","<div style=""color:darkgreen; font-size:60px"">Well done!</div>","addition","","","","","","","","","","","","","","","","","","","","","","","","","","","","","","","","",""
"","","","","","survey-text","59","149257","0.0-59.0","A2PWUACCQI97J8","2022-05-22T22:19:56.198Z","task_switching-phon_sim-rhyme-same_different","","1235.1000000238419","task_switching","{""addition_ans"":""36""}","training","33","addition","36","true","add","","","","","","","","","","","","","","","","","","","","","","","","","","","","","",""
"","","","","","html-keyboard-response","60","150265","0.0-60.0","A2PWUACCQI97J8","2022-05-22T22:19:56.198Z","task_switching-phon_sim-rhyme-same_different","","null","task_switching","null","training","<div style=""color:darkgreen; font-size:60px"">Well done!</div>","addition","","","","","","","","","","","","","","","","","","","","","","","","","","","","","","","","",""
"","","","","","survey-text","61","151536","0.0-61.0","A2PWUACCQI97J8","2022-05-22T22:19:56.198Z","task_switching-phon_sim-rhyme-same_different","","1268","task_switching","{""addition_ans"":""60""}","training","57","addition","60","true","add","","","","","","","","","","","","","","","","","","","","","","","","","","","","","",""
"","","","","","html-keyboard-response","62","152545","0.0-62.0","A2PWUACCQI97J8","2022-05-22T22:19:56.198Z","task_switching-phon_sim-rhyme-same_different","","null","task_switching","null","training","<div style=""color:darkgreen; font-size:60px"">Well done!</div>","addition","","","","","","","","","","","","","","","","","","","","","","","","","","","","","","","","",""
"","","","","","survey-text","63","154063","0.0-63.0","A2PWUACCQI97J8","2022-05-22T22:19:56.198Z","task_switching-phon_sim-rhyme-same_different","","1516.2000000476837","task_switching","{""addition_ans"":""40""}","training","37","addition","40","true","add","","","","","","","","","","","","","","","","","","","","","","","","","","","","","",""
"","","","","","html-keyboard-response","64","155067","0.0-64.0","A2PWUACCQI97J8","2022-05-22T22:19:56.198Z","task_switching-phon_sim-rhyme-same_different","","null","task_switching","null","training","<div style=""color:darkgreen; font-size:60px"">Well done!</div>","addition","","","","","","","","","","","","","","","","","","","","","","","","","","","","","","","","",""
"","","","","","survey-text","65","156781","0.0-65.0","A2PWUACCQI97J8","2022-05-22T22:19:56.198Z","task_switching-phon_sim-rhyme-same_different","","1710.8999999761581","task_switching","{""addition_ans"":""61""}","training","58","addition","61","true","add","","","","","","","","","","","","","","","","","","","","","","","","","","","","","",""
"","","","","","html-keyboard-response","66","157793","0.0-66.0","A2PWUACCQI97J8","2022-05-22T22:19:56.198Z","task_switching-phon_sim-rhyme-same_different","","null","task_switching","null","training","<div style=""color:darkgreen; font-size:60px"">Well done!</div>","addition","","","","","","","","","","","","","","","","","","","","","","","","","","","","","","","","",""
"","","","","","survey-text","67","159681","0.0-67.0","A2PWUACCQI97J8","2022-05-22T22:19:56.198Z","task_switching-phon_sim-rhyme-same_different","","1886.2000000476837","task_switching","{""addition_ans"":""34""}","training","31","addition","34","true","add","","","","","","","","","","","","","","","","","","","","","","","","","","","","","",""
"","","","","","html-keyboard-response","68","160686","0.0-68.0","A2PWUACCQI97J8","2022-05-22T22:19:56.198Z","task_switching-phon_sim-rhyme-same_different","","null","task_switching","null","training","<div style=""color:darkgreen; font-size:60px"">Well done!</div>","addition","","","","","","","","","","","","","","","","","","","","","","","","","","","","","","","","",""
"","","","","","survey-text","69","161936","0.0-69.0","A2PWUACCQI97J8","2022-05-22T22:19:56.198Z","task_switching-phon_sim-rhyme-same_different","","1246.5","task_switching","{""addition_ans"":""13""}","training","10","addition","13","true","add","","","","","","","","","","","","","","","","","","","","","","","","","","","","","",""
"","","","","","html-keyboard-response","70","162938","0.0-70.0","A2PWUACCQI97J8","2022-05-22T22:19:56.198Z","task_switching-phon_sim-rhyme-same_different","","null","task_switching","null","training","<div style=""color:darkgreen; font-size:60px"">Well done!</div>","addition","","","","","","","","","","","","","","","","","","","","","","","","","","","","","","","","",""
"","","","","","survey-text","71","164311","0.0-71.0","A2PWUACCQI97J8","2022-05-22T22:19:56.198Z","task_switching-phon_sim-rhyme-same_different","","1372.2999999523163","task_switching","{""addition_ans"":""53""}","training","50","addition","53","true","add","","","","","","","","","","","","","","","","","","","","","","","","","","","","","",""
"","","","","","html-keyboard-response","72","165319","0.0-72.0","A2PWUACCQI97J8","2022-05-22T22:19:56.198Z","task_switching-phon_sim-rhyme-same_different","","null","task_switching","null","training","<div style=""color:darkgreen; font-size:60px"">Well done!</div>","addition","","","","","","","","","","","","","","","","","","","","","","","","","","","","","","","","",""
"","","","","","survey-text","73","168080","0.0-73.0","A2PWUACCQI97J8","2022-05-22T22:19:56.198Z","task_switching-phon_sim-rhyme-same_different","","2759.1999999284744","task_switching","{""addition_ans"":""73""}","training","70","addition","73","true","add","","","","","","","","","","","","","","","","","","","","","","","","","","","","","",""
"","","","","","html-keyboard-response","74","169084","0.0-74.0","A2PWUACCQI97J8","2022-05-22T22:19:56.198Z","task_switching-phon_sim-rhyme-same_different","","null","task_switching","null","training","<div style=""color:darkgreen; font-size:60px"">Well done!</div>","addition","","","","","","","","","","","","","","","","","","","","","","","","","","","","","","","","",""
"","","","","","survey-text","75","170276","0.0-75.0","A2PWUACCQI97J8","2022-05-22T22:19:56.198Z","task_switching-phon_sim-rhyme-same_different","","1190.5","task_switching","{""addition_ans"":""33""}","training","30","addition","33","true","add","","","","","","","","","","","","","","","","","","","","","","","","","","","","","",""
"","","","","","html-keyboard-response","76","171282","0.0-76.0","A2PWUACCQI97J8","2022-05-22T22:19:56.198Z","task_switching-phon_sim-rhyme-same_different","","null","task_switching","null","training","<div style=""color:darkgreen; font-size:60px"">Well done!</div>","addition","","","","","","","","","","","","","","","","","","","","","","","","","","","","","","","","",""
"","","","","","instructions","77","172953","0.0-77.0","A2PWUACCQI97J8","2022-05-22T22:19:56.198Z","task_switching-phon_sim-rhyme-same_different","[{""page_index"":0,""viewing_time"":1670}]","1670.1000000238419","task_switching","","","","","","","","","","","","","","","","","","","","","","","","","","","","","","","","","","","","",""
"","","","","","survey-text","78","174511","0.0-78.0","A2PWUACCQI97J8","2022-05-22T22:19:56.198Z","task_switching-phon_sim-rhyme-same_different","","1556.3999999761581","task_switching","{""addition_ans"":""91""}","experiment","88","addition","91","true","add","","","","","","","","","","","","","","","","","","","","","","","","","","","","","",""
"","","","","","survey-text","79","175694","0.0-79.0","A2PWUACCQI97J8","2022-05-22T22:19:56.198Z","task_switching-phon_sim-rhyme-same_different","","1182.1999999284744","task_switching","{""addition_ans"":""33""}","experiment","30","addition","33","true","add","","","","","","","","","","","","","","","","","","","","","","","","","","","","","",""
"","","","","","survey-text","80","177535","0.0-80.0","A2PWUACCQI97J8","2022-05-22T22:19:56.198Z","task_switching-phon_sim-rhyme-same_different","","1839","task_switching","{""addition_ans"":""42""}","experiment","39","addition","42","true","add","","","","","","","","","","","","","","","","","","","","","","","","","","","","","",""
"","","","","","survey-text","81","179224","0.0-81.0","A2PWUACCQI97J8","2022-05-22T22:19:56.198Z","task_switching-phon_sim-rhyme-same_different","","1687.7999999523163","task_switching","{""addition_ans"":""90""}","experiment","87","addition","90","true","add","","","","","","","","","","","","","","","","","","","","","","","","","","","","","",""
"","","","","","survey-text","82","180736","0.0-82.0","A2PWUACCQI97J8","2022-05-22T22:19:56.198Z","task_switching-phon_sim-rhyme-same_different","","1510.5","task_switching","{""addition_ans"":""66""}","experiment","63","addition","66","true","add","","","","","","","","","","","","","","","","","","","","","","","","","","","","","",""
"","","","","","survey-text","83","182366","0.0-83.0","A2PWUACCQI97J8","2022-05-22T22:19:56.198Z","task_switching-phon_sim-rhyme-same_different","","1629.0999999046326","task_switching","{""addition_ans"":""85""}","experiment","82","addition","85","true","add","","","","","","","","","","","","","","","","","","","","","","","","","","","","","",""
"","","","","","survey-text","84","183926","0.0-84.0","A2PWUACCQI97J8","2022-05-22T22:19:56.198Z","task_switching-phon_sim-rhyme-same_different","","1558","task_switching","{""addition_ans"":""50""}","experiment","47","addition","50","true","add","","","","","","","","","","","","","","","","","","","","","","","","","","","","","",""
"","","","","","survey-text","85","185364","0.0-85.0","A2PWUACCQI97J8","2022-05-22T22:19:56.198Z","task_switching-phon_sim-rhyme-same_different","","1436.8999999761581","task_switching","{""addition_ans"":""26""}","experiment","23","addition","26","true","add","","","","","","","","","","","","","","","","","","","","","","","","","","","","","",""
"","","","","","survey-text","86","186959","0.0-86.0","A2PWUACCQI97J8","2022-05-22T22:19:56.198Z","task_switching-phon_sim-rhyme-same_different","","1594.1000000238419","task_switching","{""addition_ans"":""21""}","experiment","18","addition","21","true","add","","","","","","","","","","","","","","","","","","","","","","","","","","","","","",""
"","","","","","survey-text","87","190324","0.0-87.0","A2PWUACCQI97J8","2022-05-22T22:19:56.198Z","task_switching-phon_sim-rhyme-same_different","","3363.399999976158","task_switching","{""addition_ans"":""56""}","experiment","53","addition","56","true","add","","","","","","","","","","","","","","","","","","","","","","","","","","","","","",""
"","","","","","survey-text","88","192054","0.0-88.0","A2PWUACCQI97J8","2022-05-22T22:19:56.198Z","task_switching-phon_sim-rhyme-same_different","","1727.5","task_switching","{""addition_ans"":""88""}","experiment","85","addition","88","true","add","","","","","","","","","","","","","","","","","","","","","","","","","","","","","",""
"","","","","","survey-text","89","193699","0.0-89.0","A2PWUACCQI97J8","2022-05-22T22:19:56.198Z","task_switching-phon_sim-rhyme-same_different","","1643.3999999761581","task_switching","{""addition_ans"":""51""}","experiment","48","addition","51","true","add","","","","","","","","","","","","","","","","","","","","","","","","","","","","","",""
"","","","","","survey-text","90","195122","0.0-90.0","A2PWUACCQI97J8","2022-05-22T22:19:56.198Z","task_switching-phon_sim-rhyme-same_different","","1421.6000000238419","task_switching","{""addition_ans"":""58""}","experiment","55","addition","58","true","add","","","","","","","","","","","","","","","","","","","","","","","","","","","","","",""
"","","","","","survey-text","91","197169","0.0-91.0","A2PWUACCQI97J8","2022-05-22T22:19:56.198Z","task_switching-phon_sim-rhyme-same_different","","2046.0999999046326","task_switching","{""addition_ans"":""71""}","experiment","68","addition","71","true","add","","","","","","","","","","","","","","","","","","","","","","","","","","","","","",""
"","","","","","survey-text","92","198961","0.0-92.0","A2PWUACCQI97J8","2022-05-22T22:19:56.198Z","task_switching-phon_sim-rhyme-same_different","","1790.6999999284744","task_switching","{""addition_ans"":""82""}","experiment","79","addition","82","true","add","","","","","","","","","","","","","","","","","","","","","","","","","","","","","",""
"","","","","","survey-text","93","201551","0.0-93.0","A2PWUACCQI97J8","2022-05-22T22:19:56.198Z","task_switching-phon_sim-rhyme-same_different","","2587.899999976158","task_switching","{""addition_ans"":""57""}","experiment","54","addition","57","true","add","","","","","","","","","","","","","","","","","","","","","","","","","","","","","",""
"","","","","","survey-text","94","203347","0.0-94.0","A2PWUACCQI97J8","2022-05-22T22:19:56.198Z","task_switching-phon_sim-rhyme-same_different","","1794.2000000476837","task_switching","{""addition_ans"":""35""}","experiment","32","addition","35","true","add","","","","","","","","","","","","","","","","","","","","","","","","","","","","","",""
"","","","","","survey-text","95","204635","0.0-95.0","A2PWUACCQI97J8","2022-05-22T22:19:56.198Z","task_switching-phon_sim-rhyme-same_different","","1287.2999999523163","task_switching","{""addition_ans"":""36""}","experiment","33","addition","36","true","add","","","","","","","","","","","","","","","","","","","","","","","","","","","","","",""
"","","","","","survey-text","96","206120","0.0-96.0","A2PWUACCQI97J8","2022-05-22T22:19:56.198Z","task_switching-phon_sim-rhyme-same_different","","1482.8000000715256","task_switching","{""addition_ans"":""52""}","experiment","49","addition","52","true","add","","","","","","","","","","","","","","","","","","","","","","","","","","","","","",""
"","","","","","survey-text","97","208218","0.0-97.0","A2PWUACCQI97J8","2022-05-22T22:19:56.198Z","task_switching-phon_sim-rhyme-same_different","","2097.0999999046326","task_switching","{""addition_ans"":""83""}","experiment","80","addition","83","true","add","","","","","","","","","","","","","","","","","","","","","","","","","","","","","",""
"","","","","","survey-text","98","209675","0.0-98.0","A2PWUACCQI97J8","2022-05-22T22:19:56.198Z","task_switching-phon_sim-rhyme-same_different","","1455.4000000953674","task_switching","{""addition_ans"":""39""}","experiment","36","addition","39","true","add","","","","","","","","","","","","","","","","","","","","","","","","","","","","","",""
"","","","","","survey-text","99","211744","0.0-99.0","A2PWUACCQI97J8","2022-05-22T22:19:56.198Z","task_switching-phon_sim-rhyme-same_different","","2067.899999976158","task_switching","{""addition_ans"":""18""}","experiment","15","addition","18","true","add","","","","","","","","","","","","","","","","","","","","","","","","","","","","","",""
"","","","","","survey-text","100","213255","0.0-100.0","A2PWUACCQI97J8","2022-05-22T22:19:56.198Z","task_switching-phon_sim-rhyme-same_different","","1509.6000000238419","task_switching","{""addition_ans"":""30""}","experiment","27","addition","30","true","add","","","","","","","","","","","","","","","","","","","","","","","","","","","","","",""
"","","","","","survey-text","101","216131","0.0-101.0","A2PWUACCQI97J8","2022-05-22T22:19:56.198Z","task_switching-phon_sim-rhyme-same_different","","2873.7000000476837","task_switching","{""addition_ans"":""96""}","experiment","93","addition","96","true","add","","","","","","","","","","","","","","","","","","","","","","","","","","","","","",""
"","","","","","survey-text","102","217770","0.0-102.0","A2PWUACCQI97J8","2022-05-22T22:19:56.198Z","task_switching-phon_sim-rhyme-same_different","","1637.8999999761581","task_switching","{""addition_ans"":""48""}","experiment","45","addition","48","true","add","","","","","","","","","","","","","","","","","","","","","","","","","","","","","",""
"","","","","","survey-text","103","219625","0.0-103.0","A2PWUACCQI97J8","2022-05-22T22:19:56.198Z","task_switching-phon_sim-rhyme-same_different","","1852.5","task_switching","{""addition_ans"":""27""}","experiment","24","addition","27","true","add","","","","","","","","","","","","","","","","","","","","","","","","","","","","","",""
"","","","","","survey-text","104","221277","0.0-104.0","A2PWUACCQI97J8","2022-05-22T22:19:56.198Z","task_switching-phon_sim-rhyme-same_different","","1650.3999999761581","task_switching","{""addition_ans"":""99""}","experiment","96","addition","99","true","add","","","","","","","","","","","","","","","","","","","","","","","","","","","","","",""
"","","","","","survey-text","105","223825","0.0-105.0","A2PWUACCQI97J8","2022-05-22T22:19:56.198Z","task_switching-phon_sim-rhyme-same_different","","2546.2999999523163","task_switching","{""addition_ans"":""87""}","experiment","84","addition","87","true","add","","","","","","","","","","","","","","","","","","","","","","","","","","","","","",""
"","","","","","survey-text","106","225324","0.0-106.0","A2PWUACCQI97J8","2022-05-22T22:19:56.198Z","task_switching-phon_sim-rhyme-same_different","","1497.5","task_switching","{""addition_ans"":""93""}","experiment","90","addition","93","true","add","","","","","","","","","","","","","","","","","","","","","","","","","","","","","",""
"","","","","","survey-text","107","227053","0.0-107.0","A2PWUACCQI97J8","2022-05-22T22:19:56.198Z","task_switching-phon_sim-rhyme-same_different","","1726.7999999523163","task_switching","{""addition_ans"":""24""}","experiment","21","addition","24","true","add","","","","","","","","","","","","","","","","","","","","","","","","","","","","","",""
"","","","","","instructions","108","235949","0.0-108.0","A2PWUACCQI97J8","2022-05-22T22:19:56.198Z","task_switching-phon_sim-rhyme-same_different","[{""page_index"":0,""viewing_time"":8895.700000047684}]","8896","task_switching","","","","","","","","","","","","","","","","","","","","","","","","","","","","","","","","","","","","",""
"","","","","","survey-text","109","238260","0.0-109.0","A2PWUACCQI97J8","2022-05-22T22:19:56.198Z","task_switching-phon_sim-rhyme-same_different","","2308.7999999523163","task_switching","{""colorcue_switch_ans"":""49""}","training","46","colorcue_switch","49","true","add","red","0","","","","","","","","","","","","","","","","","","","","","","","","","","","",""
"","","","","","html-keyboard-response","110","239276","0.0-110.0","A2PWUACCQI97J8","2022-05-22T22:19:56.198Z","task_switching-phon_sim-rhyme-same_different","","null","task_switching","null","training","<div style=""color:darkgreen; font-size:60px"">Well done!</div>","colorcue_switch","","","","","","","","","","","","","","","","","","","","","","","","","","","","","","","","",""
"","","","","","survey-text","111","241224","0.0-111.0","A2PWUACCQI97J8","2022-05-22T22:19:56.198Z","task_switching-phon_sim-rhyme-same_different","","1944.1999999284744","task_switching","{""colorcue_switch_ans"":""47""}","training","50","colorcue_switch","47","true","subtract","blue","1","","","","","","","","","","","","","","","","","","","","","","","","","","","",""
"","","","","","html-keyboard-response","112","242232","0.0-112.0","A2PWUACCQI97J8","2022-05-22T22:19:56.198Z","task_switching-phon_sim-rhyme-same_different","","null","task_switching","null","training","<div style=""color:darkgreen; font-size:60px"">Well done!</div>","colorcue_switch","","","","","","","","","","","","","","","","","","","","","","","","","","","","","","","","",""
"","","","","","survey-text","113","244205","0.0-113.0","A2PWUACCQI97J8","2022-05-22T22:19:56.198Z","task_switching-phon_sim-rhyme-same_different","","1970.8999999761581","task_switching","{""colorcue_switch_ans"":""85""}","training","82","colorcue_switch","85","true","add","red","2","","","","","","","","","","","","","","","","","","","","","","","","","","","",""
"","","","","","html-keyboard-response","114","245209","0.0-114.0","A2PWUACCQI97J8","2022-05-22T22:19:56.198Z","task_switching-phon_sim-rhyme-same_different","","null","task_switching","null","training","<div style=""color:darkgreen; font-size:60px"">Well done!</div>","colorcue_switch","","","","","","","","","","","","","","","","","","","","","","","","","","","","","","","","",""
"","","","","","survey-text","115","248488","0.0-115.0","A2PWUACCQI97J8","2022-05-22T22:19:56.198Z","task_switching-phon_sim-rhyme-same_different","","3277.6999999284744","task_switching","{""colorcue_switch_ans"":""93""}","training","96","colorcue_switch","93","true","subtract","blue","3","","","","","","","","","","","","","","","","","","","","","","","","","","","",""
"","","","","","html-keyboard-response","116","249500","0.0-116.0","A2PWUACCQI97J8","2022-05-22T22:19:56.198Z","task_switching-phon_sim-rhyme-same_different","","null","task_switching","null","training","<div style=""color:darkgreen; font-size:60px"">Well done!</div>","colorcue_switch","","","","","","","","","","","","","","","","","","","","","","","","","","","","","","","","",""
"","","","","","survey-text","117","252619","0.0-117.0","A2PWUACCQI97J8","2022-05-22T22:19:56.198Z","task_switching-phon_sim-rhyme-same_different","","3115.2999999523163","task_switching","{""colorcue_switch_ans"":""73""}","training","70","colorcue_switch","73","true","add","red","4","","","","","","","","","","","","","","","","","","","","","","","","","","","",""
"","","","","","html-keyboard-response","118","253626","0.0-118.0","A2PWUACCQI97J8","2022-05-22T22:19:56.198Z","task_switching-phon_sim-rhyme-same_different","","null","task_switching","null","training","<div style=""color:darkgreen; font-size:60px"">Well done!</div>","colorcue_switch","","","","","","","","","","","","","","","","","","","","","","","","","","","","","","","","",""
"","","","","","survey-text","119","255414","0.0-119.0","A2PWUACCQI97J8","2022-05-22T22:19:56.198Z","task_switching-phon_sim-rhyme-same_different","","1786.5","task_switching","{""colorcue_switch_ans"":""25""}","training","28","colorcue_switch","25","true","subtract","blue","5","","","","","","","","","","","","","","","","","","","","","","","","","","","",""
"","","","","","html-keyboard-response","120","256422","0.0-120.0","A2PWUACCQI97J8","2022-05-22T22:19:56.198Z","task_switching-phon_sim-rhyme-same_different","","null","task_switching","null","training","<div style=""color:darkgreen; font-size:60px"">Well done!</div>","colorcue_switch","","","","","","","","","","","","","","","","","","","","","","","","","","","","","","","","",""
"","","","","","survey-text","121","259599","0.0-121.0","A2PWUACCQI97J8","2022-05-22T22:19:56.198Z","task_switching-phon_sim-rhyme-same_different","","3174.2999999523163","task_switching","{""colorcue_switch_ans"":""68""}","training","65","colorcue_switch","68","true","add","red","6","","","","","","","","","","","","","","","","","","","","","","","","","","","",""
"","","","","","html-keyboard-response","122","260614","0.0-122.0","A2PWUACCQI97J8","2022-05-22T22:19:56.198Z","task_switching-phon_sim-rhyme-same_different","","null","task_switching","null","training","<div style=""color:darkgreen; font-size:60px"">Well done!</div>","colorcue_switch","","","","","","","","","","","","","","","","","","","","","","","","","","","","","","","","",""
"","","","","","survey-text","123","263654","0.0-123.0","A2PWUACCQI97J8","2022-05-22T22:19:56.198Z","task_switching-phon_sim-rhyme-same_different","","3038.8000000715256","task_switching","{""colorcue_switch_ans"":""78""}","training","81","colorcue_switch","78","true","subtract","blue","7","","","","","","","","","","","","","","","","","","","","","","","","","","","",""
"","","","","","html-keyboard-response","124","264663","0.0-124.0","A2PWUACCQI97J8","2022-05-22T22:19:56.198Z","task_switching-phon_sim-rhyme-same_different","","null","task_switching","null","training","<div style=""color:darkgreen; font-size:60px"">Well done!</div>","colorcue_switch","","","","","","","","","","","","","","","","","","","","","","","","","","","","","","","","",""
"","","","","","survey-text","125","266636","0.0-125.0","A2PWUACCQI97J8","2022-05-22T22:19:56.198Z","task_switching-phon_sim-rhyme-same_different","","1970.7999999523163","task_switching","{""colorcue_switch_ans"":""69""}","training","66","colorcue_switch","69","true","add","red","8","","","","","","","","","","","","","","","","","","","","","","","","","","","",""
"","","","","","html-keyboard-response","126","267652","0.0-126.0","A2PWUACCQI97J8","2022-05-22T22:19:56.198Z","task_switching-phon_sim-rhyme-same_different","","null","task_switching","null","training","<div style=""color:darkgreen; font-size:60px"">Well done!</div>","colorcue_switch","","","","","","","","","","","","","","","","","","","","","","","","","","","","","","","","",""
"","","","","","survey-text","127","269244","0.0-127.0","A2PWUACCQI97J8","2022-05-22T22:19:56.198Z","task_switching-phon_sim-rhyme-same_different","","1588.7000000476837","task_switching","{""colorcue_switch_ans"":""50""}","training","53","colorcue_switch","50","true","subtract","blue","9","","","","","","","","","","","","","","","","","","","","","","","","","","","",""
"","","","","","html-keyboard-response","128","270254","0.0-128.0","A2PWUACCQI97J8","2022-05-22T22:19:56.198Z","task_switching-phon_sim-rhyme-same_different","","null","task_switching","null","training","<div style=""color:darkgreen; font-size:60px"">Well done!</div>","colorcue_switch","","","","","","","","","","","","","","","","","","","","","","","","","","","","","","","","",""
"","","","","","instructions","129","272506","0.0-129.0","A2PWUACCQI97J8","2022-05-22T22:19:56.198Z","task_switching-phon_sim-rhyme-same_different","[{""page_index"":0,""viewing_time"":2251.7000000476837}]","2251.8000000715256","task_switching","","","","","","","","","","","","","","","","","","","","","","","","","","","","","","","","","","","","",""
"","","","","","survey-text","130","274258","0.0-130.0","A2PWUACCQI97J8","2022-05-22T22:19:56.198Z","task_switching-phon_sim-rhyme-same_different","","1750.2000000476837","task_switching","{""colorcue_switch_ans"":""20""}","experiment","17","colorcue_switch","20","true","add","red","0","","","","","","","","","","","","","","","","","","","","","","","","","","","",""
"","","","","","survey-text","131","276495","0.0-131.0","A2PWUACCQI97J8","2022-05-22T22:19:56.198Z","task_switching-phon_sim-rhyme-same_different","","2235.600000023842","task_switching","{""colorcue_switch_ans"":""42""}","experiment","45","colorcue_switch","42","true","subtract","blue","1","","","","","","","","","","","","","","","","","","","","","","","","","","","",""
"","","","","","survey-text","132","280448","0.0-132.0","A2PWUACCQI97J8","2022-05-22T22:19:56.198Z","task_switching-phon_sim-rhyme-same_different","","3951.100000023842","task_switching","{""colorcue_switch_ans"":""89""}","experiment","86","colorcue_switch","89","true","add","red","2","","","","","","","","","","","","","","","","","","","","","","","","","","","",""
"","","","","","survey-text","133","282069","0.0-133.0","A2PWUACCQI97J8","2022-05-22T22:19:56.198Z","task_switching-phon_sim-rhyme-same_different","","1618.8999999761581","task_switching","{""colorcue_switch_ans"":""63""}","experiment","66","colorcue_switch","63","true","subtract","blue","3","","","","","","","","","","","","","","","","","","","","","","","","","","","",""
"","","","","","survey-text","134","283872","0.0-134.0","A2PWUACCQI97J8","2022-05-22T22:19:56.198Z","task_switching-phon_sim-rhyme-same_different","","1801.9000000953674","task_switching","{""colorcue_switch_ans"":""40""}","experiment","37","colorcue_switch","40","true","add","red","4","","","","","","","","","","","","","","","","","","","","","","","","","","","",""
"","","","","","survey-text","135","285604","0.0-135.0","A2PWUACCQI97J8","2022-05-22T22:19:56.198Z","task_switching-phon_sim-rhyme-same_different","","1730.8999999761581","task_switching","{""colorcue_switch_ans"":""36""}","experiment","39","colorcue_switch","36","true","subtract","blue","5","","","","","","","","","","","","","","","","","","","","","","","","","","","",""
"","","","","","survey-text","136","287848","0.0-136.0","A2PWUACCQI97J8","2022-05-22T22:19:56.198Z","task_switching-phon_sim-rhyme-same_different","","2242.2999999523163","task_switching","{""colorcue_switch_ans"":""62""}","experiment","59","colorcue_switch","62","true","add","red","6","","","","","","","","","","","","","","","","","","","","","","","","","","","",""
"","","","","","survey-text","137","290477","0.0-137.0","A2PWUACCQI97J8","2022-05-22T22:19:56.198Z","task_switching-phon_sim-rhyme-same_different","","2627","task_switching","{""colorcue_switch_ans"":""92""}","experiment","95","colorcue_switch","92","true","subtract","blue","7","","","","","","","","","","","","","","","","","","","","","","","","","","","",""
"","","","","","survey-text","138","291944","0.0-138.0","A2PWUACCQI97J8","2022-05-22T22:19:56.198Z","task_switching-phon_sim-rhyme-same_different","","1465.8000000715256","task_switching","{""colorcue_switch_ans"":""53""}","experiment","50","colorcue_switch","53","true","add","red","8","","","","","","","","","","","","","","","","","","","","","","","","","","","",""
"","","","","","survey-text","139","293803","0.0-139.0","A2PWUACCQI97J8","2022-05-22T22:19:56.198Z","task_switching-phon_sim-rhyme-same_different","","1857.1999999284744","task_switching","{""colorcue_switch_ans"":""18""}","experiment","21","colorcue_switch","18","true","subtract","blue","9","","","","","","","","","","","","","","","","","","","","","","","","","","","",""
"","","","","","survey-text","140","295921","0.0-140.0","A2PWUACCQI97J8","2022-05-22T22:19:56.198Z","task_switching-phon_sim-rhyme-same_different","","2116.2999999523163","task_switching","{""colorcue_switch_ans"":""78""}","experiment","75","colorcue_switch","78","true","add","red","10","","","","","","","","","","","","","","","","","","","","","","","","","","","",""
"","","","","","survey-text","141","298011","0.0-141.0","A2PWUACCQI97J8","2022-05-22T22:19:56.198Z","task_switching-phon_sim-rhyme-same_different","","2089","task_switching","{""colorcue_switch_ans"":""46""}","experiment","49","colorcue_switch","46","true","subtract","blue","11","","","","","","","","","","","","","","","","","","","","","","","","","","","",""
"","","","","","survey-text","142","299730","0.0-142.0","A2PWUACCQI97J8","2022-05-22T22:19:56.198Z","task_switching-phon_sim-rhyme-same_different","","1717.5","task_switching","{""colorcue_switch_ans"":""30""}","experiment","27","colorcue_switch","30","true","add","red","12","","","","","","","","","","","","","","","","","","","","","","","","","","","",""
"","","","","","survey-text","143","301927","0.0-143.0","A2PWUACCQI97J8","2022-05-22T22:19:56.198Z","task_switching-phon_sim-rhyme-same_different","","2194.899999976158","task_switching","{""colorcue_switch_ans"":""84""}","experiment","87","colorcue_switch","84","true","subtract","blue","13","","","","","","","","","","","","","","","","","","","","","","","","","","","",""
"","","","","","survey-text","144","304363","0.0-144.0","A2PWUACCQI97J8","2022-05-22T22:19:56.198Z","task_switching-phon_sim-rhyme-same_different","","2434.6999999284744","task_switching","{""colorcue_switch_ans"":""51""}","experiment","48","colorcue_switch","51","true","add","red","14","","","","","","","","","","","","","","","","","","","","","","","","","","","",""
"","","","","","survey-text","145","306546","0.0-145.0","A2PWUACCQI97J8","2022-05-22T22:19:56.198Z","task_switching-phon_sim-rhyme-same_different","","2181.6999999284744","task_switching","{""colorcue_switch_ans"":""69""}","experiment","72","colorcue_switch","69","true","subtract","blue","15","","","","","","","","","","","","","","","","","","","","","","","","","","","",""
"","","","","","survey-text","146","309332","0.0-146.0","A2PWUACCQI97J8","2022-05-22T22:19:56.198Z","task_switching-phon_sim-rhyme-same_different","","2784.399999976158","task_switching","{""colorcue_switch_ans"":""23""}","experiment","20","colorcue_switch","23","true","add","red","16","","","","","","","","","","","","","","","","","","","","","","","","","","","",""
"","","","","","survey-text","147","312441","0.0-147.0","A2PWUACCQI97J8","2022-05-22T22:19:56.198Z","task_switching-phon_sim-rhyme-same_different","","3107.100000023842","task_switching","{""colorcue_switch_ans"":""85""}","experiment","88","colorcue_switch","85","true","subtract","blue","17","","","","","","","","","","","","","","","","","","","","","","","","","","","",""
"","","","","","survey-text","148","314362","0.0-148.0","A2PWUACCQI97J8","2022-05-22T22:19:56.198Z","task_switching-phon_sim-rhyme-same_different","","1919.5","task_switching","{""colorcue_switch_ans"":""77""}","experiment","74","colorcue_switch","77","true","add","red","18","","","","","","","","","","","","","","","","","","","","","","","","","","","",""
"","","","","","survey-text","149","316441","0.0-149.0","A2PWUACCQI97J8","2022-05-22T22:19:56.198Z","task_switching-phon_sim-rhyme-same_different","","2077.6999999284744","task_switching","{""colorcue_switch_ans"":""27""}","experiment","30","colorcue_switch","27","true","subtract","blue","19","","","","","","","","","","","","","","","","","","","","","","","","","","","",""
"","","","","","survey-text","150","318817","0.0-150.0","A2PWUACCQI97J8","2022-05-22T22:19:56.198Z","task_switching-phon_sim-rhyme-same_different","","2374.5999999046326","task_switching","{""colorcue_switch_ans"":""84""}","experiment","81","colorcue_switch","84","true","add","red","20","","","","","","","","","","","","","","","","","","","","","","","","","","","",""
"","","","","","survey-text","151","320649","0.0-151.0","A2PWUACCQI97J8","2022-05-22T22:19:56.198Z","task_switching-phon_sim-rhyme-same_different","","1830.5","task_switching","{""colorcue_switch_ans"":""66""}","experiment","69","colorcue_switch","66","true","subtract","blue","21","","","","","","","","","","","","","","","","","","","","","","","","","","","",""
"","","","","","survey-text","152","324096","0.0-152.0","A2PWUACCQI97J8","2022-05-22T22:19:56.198Z","task_switching-phon_sim-rhyme-same_different","","3446.2000000476837","task_switching","{""colorcue_switch_ans"":""65""}","experiment","62","colorcue_switch","65","true","add","red","22","","","","","","","","","","","","","","","","","","","","","","","","","","","",""
"","","","","","survey-text","153","326105","0.0-153.0","A2PWUACCQI97J8","2022-05-22T22:19:56.198Z","task_switching-phon_sim-rhyme-same_different","","2007.2999999523163","task_switching","{""colorcue_switch_ans"":""32""}","experiment","35","colorcue_switch","32","true","subtract","blue","23","","","","","","","","","","","","","","","","","","","","","","","","","","","",""
"","","","","","survey-text","154","328593","0.0-154.0","A2PWUACCQI97J8","2022-05-22T22:19:56.198Z","task_switching-phon_sim-rhyme-same_different","","2486.100000023842","task_switching","{""colorcue_switch_ans"":""81""}","experiment","78","colorcue_switch","81","true","add","red","24","","","","","","","","","","","","","","","","","","","","","","","","","","","",""
"","","","","","survey-text","155","330912","0.0-155.0","A2PWUACCQI97J8","2022-05-22T22:19:56.198Z","task_switching-phon_sim-rhyme-same_different","","2317.399999976158","task_switching","{""colorcue_switch_ans"":""35""}","experiment","38","colorcue_switch","35","true","subtract","blue","25","","","","","","","","","","","","","","","","","","","","","","","","","","","",""
"","","","","","survey-text","156","333852","0.0-156.0","A2PWUACCQI97J8","2022-05-22T22:19:56.198Z","task_switching-phon_sim-rhyme-same_different","","2938.399999976158","task_switching","{""colorcue_switch_ans"":""39""}","experiment","36","colorcue_switch","39","true","add","red","26","","","","","","","","","","","","","","","","","","","","","","","","","","","",""
"","","","","","survey-text","157","336279","0.0-157.0","A2PWUACCQI97J8","2022-05-22T22:19:56.198Z","task_switching-phon_sim-rhyme-same_different","","2424.6999999284744","task_switching","{""colorcue_switch_ans"":""93""}","experiment","76","colorcue_switch","93","false","subtract","blue","27","","","","","","","","","","","","","","","","","","","","","","","","","","","",""
"","","","","","survey-text","158","339167","0.0-158.0","A2PWUACCQI97J8","2022-05-22T22:19:56.198Z","task_switching-phon_sim-rhyme-same_different","","2887","task_switching","{""colorcue_switch_ans"":""85""}","experiment","82","colorcue_switch","85","true","add","red","28","","","","","","","","","","","","","","","","","","","","","","","","","","","",""
"","","","","","survey-text","159","341257","0.0-159.0","A2PWUACCQI97J8","2022-05-22T22:19:56.198Z","task_switching-phon_sim-rhyme-same_different","","2087.7000000476837","task_switching","{""colorcue_switch_ans"":""33""}","experiment","34","colorcue_switch","33","false","subtract","blue","29","","","","","","","","","","","","","","","","","","","","","","","","","","","",""
"","","","","","instructions","160","350676","0.0-160.0","A2PWUACCQI97J8","2022-05-22T22:19:56.198Z","task_switching-phon_sim-rhyme-same_different","[{""page_index"":0,""viewing_time"":9418.299999952316}]","9418.699999928474","task_switching","","","","","","","","","","","","","","","","","","","","","","","","","","","","","","","","","","","","",""
"","","","","","survey-text","161","353358","0.0-161.0","A2PWUACCQI97J8","2022-05-22T22:19:56.198Z","task_switching-phon_sim-rhyme-same_different","","2680.100000023842","task_switching","{""symbolcue_switch_ans"":""74""}","training","71","symbolcue_switch","74","true","add","","0","+","","","","","","","","","","","","","","","","","","","","","","","","","","",""
"","","","","","html-keyboard-response","162","354375","0.0-162.0","A2PWUACCQI97J8","2022-05-22T22:19:56.198Z","task_switching-phon_sim-rhyme-same_different","","null","task_switching","null","training","<div style=""color:darkgreen; font-size:60px"">Well done!</div>","symbolcue_switch","","","","","","","","","","","","","","","","","","","","","","","","","","","","","","","","",""
"","","","","","survey-text","163","356969","0.0-163.0","A2PWUACCQI97J8","2022-05-22T22:19:56.198Z","task_switching-phon_sim-rhyme-same_different","","2592.100000023842","task_switching","{""symbolcue_switch_ans"":""17""}","training","20","symbolcue_switch","17","true","subtract","","1","-","","","","","","","","","","","","","","","","","","","","","","","","","","",""
"","","","","","html-keyboard-response","164","357981","0.0-164.0","A2PWUACCQI97J8","2022-05-22T22:19:56.198Z","task_switching-phon_sim-rhyme-same_different","","null","task_switching","null","training","<div style=""color:darkgreen; font-size:60px"">Well done!</div>","symbolcue_switch","","","","","","","","","","","","","","","","","","","","","","","","","","","","","","","","",""
"","","","","","survey-text","165","362037","0.0-165.0","A2PWUACCQI97J8","2022-05-22T22:19:56.198Z","task_switching-phon_sim-rhyme-same_different","","4052.100000023842","task_switching","{""symbolcue_switch_ans"":""84""}","training","81","symbolcue_switch","84","true","add","","2","+","","","","","","","","","","","","","","","","","","","","","","","","","","",""
"","","","","","html-keyboard-response","166","363038","0.0-166.0","A2PWUACCQI97J8","2022-05-22T22:19:56.198Z","task_switching-phon_sim-rhyme-same_different","","null","task_switching","null","training","<div style=""color:darkgreen; font-size:60px"">Well done!</div>","symbolcue_switch","","","","","","","","","","","","","","","","","","","","","","","","","","","","","","","","",""
"","","","","","survey-text","167","364951","0.0-167.0","A2PWUACCQI97J8","2022-05-22T22:19:56.198Z","task_switching-phon_sim-rhyme-same_different","","1909.2999999523163","task_switching","{""symbolcue_switch_ans"":""15""}","training","18","symbolcue_switch","15","true","subtract","","3","-","","","","","","","","","","","","","","","","","","","","","","","","","","",""
"","","","","","html-keyboard-response","168","365962","0.0-168.0","A2PWUACCQI97J8","2022-05-22T22:19:56.198Z","task_switching-phon_sim-rhyme-same_different","","null","task_switching","null","training","<div style=""color:darkgreen; font-size:60px"">Well done!</div>","symbolcue_switch","","","","","","","","","","","","","","","","","","","","","","","","","","","","","","","","",""
"","","","","","survey-text","169","367981","0.0-169.0","A2PWUACCQI97J8","2022-05-22T22:19:56.198Z","task_switching-phon_sim-rhyme-same_different","","2018","task_switching","{""symbolcue_switch_ans"":""64""}","training","61","symbolcue_switch","64","true","add","","4","+","","","","","","","","","","","","","","","","","","","","","","","","","","",""
"","","","","","html-keyboard-response","170","368990","0.0-170.0","A2PWUACCQI97J8","2022-05-22T22:19:56.198Z","task_switching-phon_sim-rhyme-same_different","","null","task_switching","null","training","<div style=""color:darkgreen; font-size:60px"">Well done!</div>","symbolcue_switch","","","","","","","","","","","","","","","","","","","","","","","","","","","","","","","","",""
"","","","","","survey-text","171","370880","0.0-171.0","A2PWUACCQI97J8","2022-05-22T22:19:56.198Z","task_switching-phon_sim-rhyme-same_different","","1887","task_switching","{""symbolcue_switch_ans"":""65""}","training","68","symbolcue_switch","65","true","subtract","","5","-","","","","","","","","","","","","","","","","","","","","","","","","","","",""
"","","","","","html-keyboard-response","172","371886","0.0-172.0","A2PWUACCQI97J8","2022-05-22T22:19:56.198Z","task_switching-phon_sim-rhyme-same_different","","null","task_switching","null","training","<div style=""color:darkgreen; font-size:60px"">Well done!</div>","symbolcue_switch","","","","","","","","","","","","","","","","","","","","","","","","","","","","","","","","",""
"","","","","","survey-text","173","374225","0.0-173.0","A2PWUACCQI97J8","2022-05-22T22:19:56.198Z","task_switching-phon_sim-rhyme-same_different","","2335.399999976158","task_switching","{""symbolcue_switch_ans"":""80""}","training","77","symbolcue_switch","80","true","add","","6","+","","","","","","","","","","","","","","","","","","","","","","","","","","",""
"","","","","","html-keyboard-response","174","375235","0.0-174.0","A2PWUACCQI97J8","2022-05-22T22:19:56.198Z","task_switching-phon_sim-rhyme-same_different","","null","task_switching","null","training","<div style=""color:darkgreen; font-size:60px"">Well done!</div>","symbolcue_switch","","","","","","","","","","","","","","","","","","","","","","","","","","","","","","","","",""
"","","","","","survey-text","175","377391","0.0-175.0","A2PWUACCQI97J8","2022-05-22T22:19:56.198Z","task_switching-phon_sim-rhyme-same_different","","2154.1999999284744","task_switching","{""symbolcue_switch_ans"":""45""}","training","48","symbolcue_switch","45","true","subtract","","7","-","","","","","","","","","","","","","","","","","","","","","","","","","","",""
"","","","","","html-keyboard-response","176","378402","0.0-176.0","A2PWUACCQI97J8","2022-05-22T22:19:56.198Z","task_switching-phon_sim-rhyme-same_different","","null","task_switching","null","training","<div style=""color:darkgreen; font-size:60px"">Well done!</div>","symbolcue_switch","","","","","","","","","","","","","","","","","","","","","","","","","","","","","","","","",""
"","","","","","survey-text","177","380412","0.0-177.0","A2PWUACCQI97J8","2022-05-22T22:19:56.198Z","task_switching-phon_sim-rhyme-same_different","","2007.6999999284744","task_switching","{""symbolcue_switch_ans"":""83""}","training","80","symbolcue_switch","83","true","add","","8","+","","","","","","","","","","","","","","","","","","","","","","","","","","",""
"","","","","","html-keyboard-response","178","381423","0.0-178.0","A2PWUACCQI97J8","2022-05-22T22:19:56.198Z","task_switching-phon_sim-rhyme-same_different","","null","task_switching","null","training","<div style=""color:darkgreen; font-size:60px"">Well done!</div>","symbolcue_switch","","","","","","","","","","","","","","","","","","","","","","","","","","","","","","","","",""
"","","","","","survey-text","179","383240","0.0-179.0","A2PWUACCQI97J8","2022-05-22T22:19:56.198Z","task_switching-phon_sim-rhyme-same_different","","1814.3999999761581","task_switching","{""symbolcue_switch_ans"":""34""}","training","37","symbolcue_switch","34","true","subtract","","9","-","","","","","","","","","","","","","","","","","","","","","","","","","","",""
"","","","","","html-keyboard-response","180","384247","0.0-180.0","A2PWUACCQI97J8","2022-05-22T22:19:56.198Z","task_switching-phon_sim-rhyme-same_different","","null","task_switching","null","training","<div style=""color:darkgreen; font-size:60px"">Well done!</div>","symbolcue_switch","","","","","","","","","","","","","","","","","","","","","","","","","","","","","","","","",""
"","","","","","instructions","181","386117","0.0-181.0","A2PWUACCQI97J8","2022-05-22T22:19:56.198Z","task_switching-phon_sim-rhyme-same_different","[{""page_index"":0,""viewing_time"":1869}]","1869.2000000476837","task_switching","","","","","","","","","","","","","","","","","","","","","","","","","","","","","","","","","","","","",""
"","","","","","survey-text","182","390288","0.0-182.0","A2PWUACCQI97J8","2022-05-22T22:19:56.198Z","task_switching-phon_sim-rhyme-same_different","","4169.800000071526","task_switching","{""symbolcue_switch_ans"":""72""}","experiment","69","symbolcue_switch","72","true","add","","0","+","","","","","","","","","","","","","","","","","","","","","","","","","","",""
"","","","","","survey-text","183","392646","0.0-183.0","A2PWUACCQI97J8","2022-05-22T22:19:56.198Z","task_switching-phon_sim-rhyme-same_different","","2355.899999976158","task_switching","{""symbolcue_switch_ans"":""14""}","experiment","17","symbolcue_switch","14","true","subtract","","1","-","","","","","","","","","","","","","","","","","","","","","","","","","","",""
"","","","","","survey-text","184","394281","0.0-184.0","A2PWUACCQI97J8","2022-05-22T22:19:56.198Z","task_switching-phon_sim-rhyme-same_different","","1633.1000000238419","task_switching","{""symbolcue_switch_ans"":""32""}","experiment","29","symbolcue_switch","32","true","add","","2","+","","","","","","","","","","","","","","","","","","","","","","","","","","",""
"","","","","","survey-text","185","396672","0.0-185.0","A2PWUACCQI97J8","2022-05-22T22:19:56.198Z","task_switching-phon_sim-rhyme-same_different","","2389.5","task_switching","{""symbolcue_switch_ans"":""87""}","experiment","90","symbolcue_switch","87","true","subtract","","3","-","","","","","","","","","","","","","","","","","","","","","","","","","","",""
"","","","","","survey-text","186","399049","0.0-186.0","A2PWUACCQI97J8","2022-05-22T22:19:56.198Z","task_switching-phon_sim-rhyme-same_different","","2374.9000000953674","task_switching","{""symbolcue_switch_ans"":""25""}","experiment","22","symbolcue_switch","25","true","add","","4","+","","","","","","","","","","","","","","","","","","","","","","","","","","",""
"","","","","","survey-text","187","401028","0.0-187.0","A2PWUACCQI97J8","2022-05-22T22:19:56.198Z","task_switching-phon_sim-rhyme-same_different","","1978","task_switching","{""symbolcue_switch_ans"":""62""}","experiment","65","symbolcue_switch","62","true","subtract","","5","-","","","","","","","","","","","","","","","","","","","","","","","","","","",""
"","","","","","survey-text","188","403660","0.0-188.0","A2PWUACCQI97J8","2022-05-22T22:19:56.198Z","task_switching-phon_sim-rhyme-same_different","","2629.899999976158","task_switching","{""symbolcue_switch_ans"":""17""}","experiment","14","symbolcue_switch","17","true","add","","6","+","","","","","","","","","","","","","","","","","","","","","","","","","","",""
"","","","","","survey-text","189","406541","0.0-189.0","A2PWUACCQI97J8","2022-05-22T22:19:56.198Z","task_switching-phon_sim-rhyme-same_different","","2880","task_switching","{""symbolcue_switch_ans"":""75""}","experiment","78","symbolcue_switch","75","true","subtract","","7","-","","","","","","","","","","","","","","","","","","","","","","","","","","",""
"","","","","","survey-text","190","409392","0.0-190.0","A2PWUACCQI97J8","2022-05-22T22:19:56.198Z","task_switching-phon_sim-rhyme-same_different","","2849.2000000476837","task_switching","{""symbolcue_switch_ans"":""88""}","experiment","85","symbolcue_switch","88","true","add","","8","+","","","","","","","","","","","","","","","","","","","","","","","","","","",""
"","","","","","survey-text","191","411164","0.0-191.0","A2PWUACCQI97J8","2022-05-22T22:19:56.198Z","task_switching-phon_sim-rhyme-same_different","","1769.7000000476837","task_switching","{""symbolcue_switch_ans"":""48""}","experiment","51","symbolcue_switch","48","true","subtract","","9","-","","","","","","","","","","","","","","","","","","","","","","","","","","",""
"","","","","","survey-text","192","413511","0.0-192.0","A2PWUACCQI97J8","2022-05-22T22:19:56.198Z","task_switching-phon_sim-rhyme-same_different","","2345.8000000715256","task_switching","{""symbolcue_switch_ans"":""49""}","experiment","46","symbolcue_switch","49","true","add","","10","+","","","","","","","","","","","","","","","","","","","","","","","","","","",""
"","","","","","survey-text","193","415101","0.0-193.0","A2PWUACCQI97J8","2022-05-22T22:19:56.198Z","task_switching-phon_sim-rhyme-same_different","","1588.5","task_switching","{""symbolcue_switch_ans"":""25""}","experiment","28","symbolcue_switch","25","true","subtract","","11","-","","","","","","","","","","","","","","","","","","","","","","","","","","",""
"","","","","","survey-text","194","416963","0.0-194.0","A2PWUACCQI97J8","2022-05-22T22:19:56.198Z","task_switching-phon_sim-rhyme-same_different","","1859.9000000953674","task_switching","{""symbolcue_switch_ans"":""73""}","experiment","70","symbolcue_switch","73","true","add","","12","+","","","","","","","","","","","","","","","","","","","","","","","","","","",""
"","","","","","survey-text","195","418761","0.0-195.0","A2PWUACCQI97J8","2022-05-22T22:19:56.198Z","task_switching-phon_sim-rhyme-same_different","","1797.1000000238419","task_switching","{""symbolcue_switch_ans"":""55""}","experiment","58","symbolcue_switch","55","true","subtract","","13","-","","","","","","","","","","","","","","","","","","","","","","","","","","",""
"","","","","","survey-text","196","420292","0.0-196.0","A2PWUACCQI97J8","2022-05-22T22:19:56.198Z","task_switching-phon_sim-rhyme-same_different","","1529.6000000238419","task_switching","{""symbolcue_switch_ans"":""16""}","experiment","13","symbolcue_switch","16","true","add","","14","+","","","","","","","","","","","","","","","","","","","","","","","","","","",""
"","","","","","survey-text","197","422616","0.0-197.0","A2PWUACCQI97J8","2022-05-22T22:19:56.198Z","task_switching-phon_sim-rhyme-same_different","","2322","task_switching","{""symbolcue_switch_ans"":""16""}","experiment","19","symbolcue_switch","16","true","subtract","","15","-","","","","","","","","","","","","","","","","","","","","","","","","","","",""
"","","","","","survey-text","198","424591","0.0-198.0","A2PWUACCQI97J8","2022-05-22T22:19:56.198Z","task_switching-phon_sim-rhyme-same_different","","1974.1000000238419","task_switching","{""symbolcue_switch_ans"":""82""}","experiment","79","symbolcue_switch","82","true","add","","16","+","","","","","","","","","","","","","","","","","","","","","","","","","","",""
"","","","","","survey-text","199","426020","0.0-199.0","A2PWUACCQI97J8","2022-05-22T22:19:56.198Z","task_switching-phon_sim-rhyme-same_different","","1427.8999999761581","task_switching","{""symbolcue_switch_ans"":""31""}","experiment","34","symbolcue_switch","31","true","subtract","","17","-","","","","","","","","","","","","","","","","","","","","","","","","","","",""
"","","","","","survey-text","200","429014","0.0-200.0","A2PWUACCQI97J8","2022-05-22T22:19:56.198Z","task_switching-phon_sim-rhyme-same_different","","2991.7999999523163","task_switching","{""symbolcue_switch_ans"":""47""}","experiment","44","symbolcue_switch","47","true","add","","18","+","","","","","","","","","","","","","","","","","","","","","","","","","","",""
"","","","","","survey-text","201","432173","0.0-201.0","A2PWUACCQI97J8","2022-05-22T22:19:56.198Z","task_switching-phon_sim-rhyme-same_different","","3158.100000023842","task_switching","{""symbolcue_switch_ans"":""21""}","experiment","24","symbolcue_switch","21","true","subtract","","19","-","","","","","","","","","","","","","","","","","","","","","","","","","","",""
"","","","","","survey-text","202","435814","0.0-202.0","A2PWUACCQI97J8","2022-05-22T22:19:56.198Z","task_switching-phon_sim-rhyme-same_different","","3639.399999976158","task_switching","{""symbolcue_switch_ans"":""77""}","experiment","74","symbolcue_switch","77","true","add","","20","+","","","","","","","","","","","","","","","","","","","","","","","","","","",""
"","","","","","survey-text","203","437958","0.0-203.0","A2PWUACCQI97J8","2022-05-22T22:19:56.198Z","task_switching-phon_sim-rhyme-same_different","","2142.1999999284744","task_switching","{""symbolcue_switch_ans"":""44""}","experiment","47","symbolcue_switch","44","true","subtract","","21","-","","","","","","","","","","","","","","","","","","","","","","","","","","",""
"","","","","","survey-text","204","440713","0.0-204.0","A2PWUACCQI97J8","2022-05-22T22:19:56.198Z","task_switching-phon_sim-rhyme-same_different","","2753.600000023842","task_switching","{""symbolcue_switch_ans"":""59""}","experiment","56","symbolcue_switch","59","true","add","","22","+","","","","","","","","","","","","","","","","","","","","","","","","","","",""
"","","","","","survey-text","205","442790","0.0-205.0","A2PWUACCQI97J8","2022-05-22T22:19:56.198Z","task_switching-phon_sim-rhyme-same_different","","2076.2000000476837","task_switching","{""symbolcue_switch_ans"":""85""}","experiment","88","symbolcue_switch","85","true","subtract","","23","-","","","","","","","","","","","","","","","","","","","","","","","","","","",""
"","","","","","survey-text","206","445080","0.0-206.0","A2PWUACCQI97J8","2022-05-22T22:19:56.198Z","task_switching-phon_sim-rhyme-same_different","","2288.5","task_switching","{""symbolcue_switch_ans"":""48""}","experiment","45","symbolcue_switch","48","true","add","","24","+","","","","","","","","","","","","","","","","","","","","","","","","","","",""
"","","","","","survey-text","207","447423","0.0-207.0","A2PWUACCQI97J8","2022-05-22T22:19:56.198Z","task_switching-phon_sim-rhyme-same_different","","2340.899999976158","task_switching","{""symbolcue_switch_ans"":""80""}","experiment","83","symbolcue_switch","80","true","subtract","","25","-","","","","","","","","","","","","","","","","","","","","","","","","","","",""
"","","","","","survey-text","208","450220","0.0-208.0","A2PWUACCQI97J8","2022-05-22T22:19:56.198Z","task_switching-phon_sim-rhyme-same_different","","2795","task_switching","{""symbolcue_switch_ans"":""19""}","experiment","16","symbolcue_switch","19","true","add","","26","+","","","","","","","","","","","","","","","","","","","","","","","","","","",""
"","","","","","survey-text","209","451869","0.0-209.0","A2PWUACCQI97J8","2022-05-22T22:19:56.198Z","task_switching-phon_sim-rhyme-same_different","","1648.1999999284744","task_switching","{""symbolcue_switch_ans"":""60""}","experiment","63","symbolcue_switch","60","true","subtract","","27","-","","","","","","","","","","","","","","","","","","","","","","","","","","",""
"","","","","","survey-text","210","454053","0.0-210.0","A2PWUACCQI97J8","2022-05-22T22:19:56.198Z","task_switching-phon_sim-rhyme-same_different","","2182","task_switching","{""symbolcue_switch_ans"":""38""}","experiment","35","symbolcue_switch","38","true","add","","28","+","","","","","","","","","","","","","","","","","","","","","","","","","","",""
"","","","","","survey-text","211","457189","0.0-211.0","A2PWUACCQI97J8","2022-05-22T22:19:56.198Z","task_switching-phon_sim-rhyme-same_different","","3134.6999999284744","task_switching","{""symbolcue_switch_ans"":""84""}","experiment","87","symbolcue_switch","84","true","subtract","","29","-","","","","","","","","","","","","","","","","","","","","","","","","","","",""
"","","","","","instructions","212","468557","0.0-212.0","A2PWUACCQI97J8","2022-05-22T22:19:56.198Z","task_switching-phon_sim-rhyme-same_different","[{""page_index"":0,""viewing_time"":11368.200000047684}]","11368.400000095367","task_switching","","","","","","","","","","","","","","","","","","","","","","","","","","","","","","","","","","","","",""
"","","","","","survey-text","213","471452","0.0-213.0","A2PWUACCQI97J8","2022-05-22T22:19:56.198Z","task_switching-phon_sim-rhyme-same_different","","2892.5","task_switching","{""uncued_switch_ans"":""40""}","training","37","uncued_switch","40","true","add","","0","","","","","","","","","","","","","","","","","","","","","","","","","","","",""
"","","","","","html-keyboard-response","214","472459","0.0-214.0","A2PWUACCQI97J8","2022-05-22T22:19:56.198Z","task_switching-phon_sim-rhyme-same_different","","null","task_switching","null","training","<div style=""color:darkgreen; font-size:60px"">Well done!</div>","uncued_switch","","","","","","","","","","","","","","","","","","","","","","","","","","","","","","","","",""
"","","","","","survey-text","215","474731","0.0-215.0","A2PWUACCQI97J8","2022-05-22T22:19:56.198Z","task_switching-phon_sim-rhyme-same_different","","2270.1999999284744","task_switching","{""uncued_switch_ans"":""56""}","training","59","uncued_switch","56","true","subtract","","1","","","","","","","","","","","","","","","","","","","","","","","","","","","",""
"","","","","","html-keyboard-response","216","475734","0.0-216.0","A2PWUACCQI97J8","2022-05-22T22:19:56.198Z","task_switching-phon_sim-rhyme-same_different","","null","task_switching","null","training","<div style=""color:darkgreen; font-size:60px"">Well done!</div>","uncued_switch","","","","","","","","","","","","","","","","","","","","","","","","","","","","","","","","",""
"","","","","","survey-text","217","478296","0.0-217.0","A2PWUACCQI97J8","2022-05-22T22:19:56.198Z","task_switching-phon_sim-rhyme-same_different","","2559.5","task_switching","{""uncued_switch_ans"":""29""}","training","26","uncued_switch","29","true","add","","2","","","","","","","","","","","","","","","","","","","","","","","","","","","",""
"","","","","","html-keyboard-response","218","479299","0.0-218.0","A2PWUACCQI97J8","2022-05-22T22:19:56.198Z","task_switching-phon_sim-rhyme-same_different","","null","task_switching","null","training","<div style=""color:darkgreen; font-size:60px"">Well done!</div>","uncued_switch","","","","","","","","","","","","","","","","","","","","","","","","","","","","","","","","",""
"","","","","","survey-text","219","481340","0.0-219.0","A2PWUACCQI97J8","2022-05-22T22:19:56.198Z","task_switching-phon_sim-rhyme-same_different","","2037.6000000238419","task_switching","{""uncued_switch_ans"":""18""}","training","21","uncued_switch","18","true","subtract","","3","","","","","","","","","","","","","","","","","","","","","","","","","","","",""
"","","","","","html-keyboard-response","220","482347","0.0-220.0","A2PWUACCQI97J8","2022-05-22T22:19:56.198Z","task_switching-phon_sim-rhyme-same_different","","null","task_switching","null","training","<div style=""color:darkgreen; font-size:60px"">Well done!</div>","uncued_switch","","","","","","","","","","","","","","","","","","","","","","","","","","","","","","","","",""
"","","","","","survey-text","221","483724","0.0-221.0","A2PWUACCQI97J8","2022-05-22T22:19:56.198Z","task_switching-phon_sim-rhyme-same_different","","1373.6999999284744","task_switching","{""uncued_switch_ans"":""18""}","training","15","uncued_switch","18","true","add","","4","","","","","","","","","","","","","","","","","","","","","","","","","","","",""
"","","","","","html-keyboard-response","222","484740","0.0-222.0","A2PWUACCQI97J8","2022-05-22T22:19:56.198Z","task_switching-phon_sim-rhyme-same_different","","null","task_switching","null","training","<div style=""color:darkgreen; font-size:60px"">Well done!</div>","uncued_switch","","","","","","","","","","","","","","","","","","","","","","","","","","","","","","","","",""
"","","","","","survey-text","223","486072","0.0-223.0","A2PWUACCQI97J8","2022-05-22T22:19:56.198Z","task_switching-phon_sim-rhyme-same_different","","1331","task_switching","{""uncued_switch_ans"":""21""}","training","24","uncued_switch","21","true","subtract","","5","","","","","","","","","","","","","","","","","","","","","","","","","","","",""
"","","","","","html-keyboard-response","224","487080","0.0-224.0","A2PWUACCQI97J8","2022-05-22T22:19:56.198Z","task_switching-phon_sim-rhyme-same_different","","null","task_switching","null","training","<div style=""color:darkgreen; font-size:60px"">Well done!</div>","uncued_switch","","","","","","","","","","","","","","","","","","","","","","","","","","","","","","","","",""
"","","","","","survey-text","225","490960","0.0-225.0","A2PWUACCQI97J8","2022-05-22T22:19:56.198Z","task_switching-phon_sim-rhyme-same_different","","3878.6999999284744","task_switching","{""uncued_switch_ans"":""28""}","training","25","uncued_switch","28","true","add","","6","","","","","","","","","","","","","","","","","","","","","","","","","","","",""
"","","","","","html-keyboard-response","226","491968","0.0-226.0","A2PWUACCQI97J8","2022-05-22T22:19:56.198Z","task_switching-phon_sim-rhyme-same_different","","null","task_switching","null","training","<div style=""color:darkgreen; font-size:60px"">Well done!</div>","uncued_switch","","","","","","","","","","","","","","","","","","","","","","","","","","","","","","","","",""
"","","","","","survey-text","227","494008","0.0-227.0","A2PWUACCQI97J8","2022-05-22T22:19:56.198Z","task_switching-phon_sim-rhyme-same_different","","2039","task_switching","{""uncued_switch_ans"":""62""}","training","65","uncued_switch","62","true","subtract","","7","","","","","","","","","","","","","","","","","","","","","","","","","","","",""
"","","","","","html-keyboard-response","228","495019","0.0-228.0","A2PWUACCQI97J8","2022-05-22T22:19:56.198Z","task_switching-phon_sim-rhyme-same_different","","null","task_switching","null","training","<div style=""color:darkgreen; font-size:60px"">Well done!</div>","uncued_switch","","","","","","","","","","","","","","","","","","","","","","","","","","","","","","","","",""
"","","","","","survey-text","229","496413","0.0-229.0","A2PWUACCQI97J8","2022-05-22T22:19:56.198Z","task_switching-phon_sim-rhyme-same_different","","1392.7999999523163","task_switching","{""uncued_switch_ans"":""33""}","training","30","uncued_switch","33","true","add","","8","","","","","","","","","","","","","","","","","","","","","","","","","","","",""
"","","","","","html-keyboard-response","230","497419","0.0-230.0","A2PWUACCQI97J8","2022-05-22T22:19:56.198Z","task_switching-phon_sim-rhyme-same_different","","null","task_switching","null","training","<div style=""color:darkgreen; font-size:60px"">Well done!</div>","uncued_switch","","","","","","","","","","","","","","","","","","","","","","","","","","","","","","","","",""
"","","","","","survey-text","231","499502","0.0-231.0","A2PWUACCQI97J8","2022-05-22T22:19:56.198Z","task_switching-phon_sim-rhyme-same_different","","2081.7000000476837","task_switching","{""uncued_switch_ans"":""41""}","training","44","uncued_switch","41","true","subtract","","9","","","","","","","","","","","","","","","","","","","","","","","","","","","",""
"","","","","","html-keyboard-response","232","500509","0.0-232.0","A2PWUACCQI97J8","2022-05-22T22:19:56.198Z","task_switching-phon_sim-rhyme-same_different","","null","task_switching","null","training","<div style=""color:darkgreen; font-size:60px"">Well done!</div>","uncued_switch","","","","","","","","","","","","","","","","","","","","","","","","","","","","","","","","",""
"","","","","","instructions","233","502413","0.0-233.0","A2PWUACCQI97J8","2022-05-22T22:19:56.198Z","task_switching-phon_sim-rhyme-same_different","[{""page_index"":0,""viewing_time"":1903.5}]","1903.6000000238419","task_switching","","","","","","","","","","","","","","","","","","","","","","","","","","","","","","","","","","","","",""
"","","","","","survey-text","234","504675","0.0-234.0","A2PWUACCQI97J8","2022-05-22T22:19:56.198Z","task_switching-phon_sim-rhyme-same_different","","2260.7000000476837","task_switching","{""uncued_switch_ans"":""92""}","experiment","88","uncued_switch","92","false","add","","0","","","","","","","","","","","","","","","","","","","","","","","","","","","",""
"","","","","","survey-text","235","507295","0.0-235.0","A2PWUACCQI97J8","2022-05-22T22:19:56.198Z","task_switching-phon_sim-rhyme-same_different","","2618.7999999523163","task_switching","{""uncued_switch_ans"":""58""}","experiment","61","uncued_switch","58","true","subtract","","1","","","","","","","","","","","","","","","","","","","","","","","","","","","",""
"","","","","","survey-text","236","511674","0.0-236.0","A2PWUACCQI97J8","2022-05-22T22:19:56.198Z","task_switching-phon_sim-rhyme-same_different","","4377.199999928474","task_switching","{""uncued_switch_ans"":""41""}","experiment","38","uncued_switch","41","true","add","","2","","","","","","","","","","","","","","","","","","","","","","","","","","","",""
"","","","","","survey-text","237","514537","0.0-237.0","A2PWUACCQI97J8","2022-05-22T22:19:56.198Z","task_switching-phon_sim-rhyme-same_different","","2860.7999999523163","task_switching","{""uncued_switch_ans"":""18""}","experiment","21","uncued_switch","18","true","subtract","","3","","","","","","","","","","","","","","","","","","","","","","","","","","","",""
"","","","","","survey-text","238","516122","0.0-238.0","A2PWUACCQI97J8","2022-05-22T22:19:56.198Z","task_switching-phon_sim-rhyme-same_different","","1584","task_switching","{""uncued_switch_ans"":""30""}","experiment","27","uncued_switch","30","true","add","","4","","","","","","","","","","","","","","","","","","","","","","","","","","","",""
"","","","","","survey-text","239","517703","0.0-239.0","A2PWUACCQI97J8","2022-05-22T22:19:56.198Z","task_switching-phon_sim-rhyme-same_different","","1579.5","task_switching","{""uncued_switch_ans"":""26""}","experiment","29","uncued_switch","26","true","subtract","","5","","","","","","","","","","","","","","","","","","","","","","","","","","","",""
"","","","","","survey-text","240","519726","0.0-240.0","A2PWUACCQI97J8","2022-05-22T22:19:56.198Z","task_switching-phon_sim-rhyme-same_different","","2021.0999999046326","task_switching","{""uncued_switch_ans"":""93""}","experiment","90","uncued_switch","93","true","add","","6","","","","","","","","","","","","","","","","","","","","","","","","","","","",""
"","","","","","survey-text","241","522035","0.0-241.0","A2PWUACCQI97J8","2022-05-22T22:19:56.198Z","task_switching-phon_sim-rhyme-same_different","","2307.899999976158","task_switching","{""uncued_switch_ans"":""63""}","experiment","66","uncued_switch","63","true","subtract","","7","","","","","","","","","","","","","","","","","","","","","","","","","","","",""
"","","","","","survey-text","242","524047","0.0-242.0","A2PWUACCQI97J8","2022-05-22T22:19:56.198Z","task_switching-phon_sim-rhyme-same_different","","2009.7999999523163","task_switching","{""uncued_switch_ans"":""61""}","experiment","58","uncued_switch","61","true","add","","8","","","","","","","","","","","","","","","","","","","","","","","","","","","",""
"","","","","","survey-text","243","526463","0.0-243.0","A2PWUACCQI97J8","2022-05-22T22:19:56.198Z","task_switching-phon_sim-rhyme-same_different","","2414.600000023842","task_switching","{""uncued_switch_ans"":""84""}","experiment","87","uncued_switch","84","true","subtract","","9","","","","","","","","","","","","","","","","","","","","","","","","","","","",""
"","","","","","survey-text","244","529472","0.0-244.0","A2PWUACCQI97J8","2022-05-22T22:19:56.198Z","task_switching-phon_sim-rhyme-same_different","","3007","task_switching","{""uncued_switch_ans"":""22""}","experiment","19","uncued_switch","22","true","add","","10","","","","","","","","","","","","","","","","","","","","","","","","","","","",""
"","","","","","survey-text","245","531356","0.0-245.0","A2PWUACCQI97J8","2022-05-22T22:19:56.198Z","task_switching-phon_sim-rhyme-same_different","","1881.7999999523163","task_switching","{""uncued_switch_ans"":""92""}","experiment","95","uncued_switch","92","true","subtract","","11","","","","","","","","","","","","","","","","","","","","","","","","","","","",""
"","","","","","survey-text","246","533098","0.0-246.0","A2PWUACCQI97J8","2022-05-22T22:19:56.198Z","task_switching-phon_sim-rhyme-same_different","","1740.1000000238419","task_switching","{""uncued_switch_ans"":""73""}","experiment","70","uncued_switch","73","true","add","","12","","","","","","","","","","","","","","","","","","","","","","","","","","","",""
"","","","","","survey-text","247","535513","0.0-247.0","A2PWUACCQI97J8","2022-05-22T22:19:56.198Z","task_switching-phon_sim-rhyme-same_different","","2413.7999999523163","task_switching","{""uncued_switch_ans"":""83""}","experiment","86","uncued_switch","83","true","subtract","","13","","","","","","","","","","","","","","","","","","","","","","","","","","","",""
"","","","","","survey-text","248","537245","0.0-248.0","A2PWUACCQI97J8","2022-05-22T22:19:56.198Z","task_switching-phon_sim-rhyme-same_different","","1730.7999999523163","task_switching","{""uncued_switch_ans"":""77""}","experiment","74","uncued_switch","77","true","add","","14","","","","","","","","","","","","","","","","","","","","","","","","","","","",""
"","","","","","survey-text","249","539134","0.0-249.0","A2PWUACCQI97J8","2022-05-22T22:19:56.198Z","task_switching-phon_sim-rhyme-same_different","","1887.2999999523163","task_switching","{""uncued_switch_ans"":""61""}","experiment","64","uncued_switch","61","true","subtract","","15","","","","","","","","","","","","","","","","","","","","","","","","","","","",""
"","","","","","survey-text","250","541138","0.0-250.0","A2PWUACCQI97J8","2022-05-22T22:19:56.198Z","task_switching-phon_sim-rhyme-same_different","","2002.2000000476837","task_switching","{""uncued_switch_ans"":""56""}","experiment","53","uncued_switch","56","true","add","","16","","","","","","","","","","","","","","","","","","","","","","","","","","","",""
"","","","","","survey-text","251","545196","0.0-251.0","A2PWUACCQI97J8","2022-05-22T22:19:56.198Z","task_switching-phon_sim-rhyme-same_different","","4056.0999999046326","task_switching","{""uncued_switch_ans"":""59""}","experiment","62","uncued_switch","59","true","subtract","","17","","","","","","","","","","","","","","","","","","","","","","","","","","","",""
"","","","","","survey-text","252","546917","0.0-252.0","A2PWUACCQI97J8","2022-05-22T22:19:56.198Z","task_switching-phon_sim-rhyme-same_different","","1719.6000000238419","task_switching","{""uncued_switch_ans"":""37""}","experiment","34","uncued_switch","37","true","add","","18","","","","","","","","","","","","","","","","","","","","","","","","","","","",""
"","","","","","survey-text","253","549202","0.0-253.0","A2PWUACCQI97J8","2022-05-22T22:19:56.198Z","task_switching-phon_sim-rhyme-same_different","","2283","task_switching","{""uncued_switch_ans"":""75""}","experiment","78","uncued_switch","75","true","subtract","","19","","","","","","","","","","","","","","","","","","","","","","","","","","","",""
"","","","","","survey-text","254","550922","0.0-254.0","A2PWUACCQI97J8","2022-05-22T22:19:56.198Z","task_switching-phon_sim-rhyme-same_different","","1718.5","task_switching","{""uncued_switch_ans"":""34""}","experiment","31","uncued_switch","34","true","add","","20","","","","","","","","","","","","","","","","","","","","","","","","","","","",""
"","","","","","survey-text","255","552449","0.0-255.0","A2PWUACCQI97J8","2022-05-22T22:19:56.198Z","task_switching-phon_sim-rhyme-same_different","","1526.3999999761581","task_switching","{""uncued_switch_ans"":""40""}","experiment","43","uncued_switch","40","true","subtract","","21","","","","","","","","","","","","","","","","","","","","","","","","","","","",""
"","","","","","survey-text","256","554796","0.0-256.0","A2PWUACCQI97J8","2022-05-22T22:19:56.198Z","task_switching-phon_sim-rhyme-same_different","","2344.899999976158","task_switching","{""uncued_switch_ans"":""23""}","experiment","20","uncued_switch","23","true","add","","22","","","","","","","","","","","","","","","","","","","","","","","","","","","",""
"","","","","","survey-text","257","556716","0.0-257.0","A2PWUACCQI97J8","2022-05-22T22:19:56.198Z","task_switching-phon_sim-rhyme-same_different","","1917.8999999761581","task_switching","{""uncued_switch_ans"":""26""}","experiment","39","uncued_switch","26","false","subtract","","23","","","","","","","","","","","","","","","","","","","","","","","","","","","",""
"","","","","","survey-text","258","559551","0.0-258.0","A2PWUACCQI97J8","2022-05-22T22:19:56.198Z","task_switching-phon_sim-rhyme-same_different","","2833.899999976158","task_switching","{""uncued_switch_ans"":""19""}","experiment","16","uncued_switch","19","true","add","","24","","","","","","","","","","","","","","","","","","","","","","","","","","","",""
"","","","","","survey-text","259","561701","0.0-259.0","A2PWUACCQI97J8","2022-05-22T22:19:56.198Z","task_switching-phon_sim-rhyme-same_different","","2148.100000023842","task_switching","{""uncued_switch_ans"":""79""}","experiment","82","uncued_switch","79","true","subtract","","25","","","","","","","","","","","","","","","","","","","","","","","","","","","",""
"","","","","","survey-text","260","564382","0.0-260.0","A2PWUACCQI97J8","2022-05-22T22:19:56.198Z","task_switching-phon_sim-rhyme-same_different","","2679.5","task_switching","{""uncued_switch_ans"":""38""}","experiment","35","uncued_switch","38","true","add","","26","","","","","","","","","","","","","","","","","","","","","","","","","","","",""
"","","","","","survey-text","261","565750","0.0-261.0","A2PWUACCQI97J8","2022-05-22T22:19:56.198Z","task_switching-phon_sim-rhyme-same_different","","1366.2000000476837","task_switching","{""uncued_switch_ans"":""23""}","experiment","26","uncued_switch","23","true","subtract","","27","","","","","","","","","","","","","","","","","","","","","","","","","","","",""
"","","","","","survey-text","262","567635","0.0-262.0","A2PWUACCQI97J8","2022-05-22T22:19:56.198Z","task_switching-phon_sim-rhyme-same_different","","1883.8999999761581","task_switching","{""uncued_switch_ans"":""39""}","experiment","36","uncued_switch","39","true","add","","28","","","","","","","","","","","","","","","","","","","","","","","","","","","",""
"","","","","","survey-text","263","570278","0.0-263.0","A2PWUACCQI97J8","2022-05-22T22:19:56.198Z","task_switching-phon_sim-rhyme-same_different","","2641.399999976158","task_switching","{""uncued_switch_ans"":""37""}","experiment","40","uncued_switch","37","true","subtract","","29","","","","","","","","","","","","","","","","","","","","","","","","","","","",""
"","","","","","survey-multi-choice","264","573877","0.0-264.0","A2PWUACCQI97J8","2022-05-22T22:19:56.198Z","task_switching-phon_sim-rhyme-same_different","","3597.1999999284744","task_switching","{""Q0"":""No""}","","","","","","","","","","[0]","No","","","","","","","","","","","","","","","","","","","","","","","","",""
"","","","","","survey-text","265","596426","0.0-265.0","A2PWUACCQI97J8","2022-05-22T22:19:56.198Z","task_switching-phon_sim-rhyme-same_different","","22545.700000047684","task_switching","{""Q0"":""I didn't really have one. ""}","","","","","","","","","","","","I didn't really have one. ","","","","","","","","","","","","","","","","","","","","","","","",""
"","","","","","instructions","266","598655","0.0-266.0","A2PWUACCQI97J8","2022-05-22T22:19:56.198Z","task_switching-phon_sim-rhyme-same_different","[{""page_index"":0,""viewing_time"":2227.0999999046326}]","2227.2999999523163","task_switching","","","","","","","","","","","","","","","","","","","","","","","","","","","","","","","","","","","","",""
"","","","","","instructions","267","613897","0.0-267.0","A2PWUACCQI97J8","2022-05-22T22:19:56.198Z","task_switching-phon_sim-rhyme-same_different","[{""page_index"":0,""viewing_time"":15241}]","15241.100000023842","phon_sim","","","","","","","","","","","","","","","","","","","","","","","","","","","","","","","","","","","","",""
"","","","","","html-keyboard-response","268","626899","0.0-268.0-0.0","A2PWUACCQI97J8","2022-05-22T22:19:56.198Z","task_switching-phon_sim-rhyme-same_different","","null","phon_sim","null","training","<div style=""display:grid""><h1 id=""word_1"" style=""grid-column:1; grid-row:1"">pen</h1><h1 id=""word_2"" style=""visibility:hidden;grid-column:1; grid-row:1"">rig</h1><h1 id=""word_3"" style=""visibility:hidden;grid-column:1; grid-row:1"">day</h1><h1 id=""word_4"" style=""visibility:hidden;grid-column:1; grid-row:1"">bar</h1><h1 id=""word_5"" style=""visibility:hidden;grid-column:1; grid-row:1"">cow</h1></div>","","","","","","","","","","","pen","rig","day","bar","cow","training","","","","","","","","","","","","","","","","","",""
"","","","","","survey-text","269","641326","0.0-268.0-1.0","A2PWUACCQI97J8","2022-05-22T22:19:56.198Z","task_switching-phon_sim-rhyme-same_different","","14424","phon_sim","{""position_1"":""pen"",""position_2"":""rig"",""position_3"":""day"",""position_4"":""bar"",""position_5"":""""}","training","","","","","","","","","","","","","","","","","","pen","rig","day","bar","","","","","","","","","","","","","",""
