"success","timeout","failed_images","failed_audio","failed_video","trial_type","trial_index","time_elapsed","internal_node_id","worker_id","start_time","experiment_order","view_history","rt","experiment","response","phase","stimulus","condition","answer","correct","operation","color_cue","trial_no","symbol_cue","question_order","talk_out_loud","strategy_free_ans","word_1","word_2","word_3","word_4","word_5","original_word_set","response_1","response_2","response_3","response_4","response_5","wait_time","image_1","image_2","cor_key","type","judgment_type","stim_1","stim_2","inverted","true_neg","true_pos","false_pos","false_neg"
"true","false","[]","[]","[]","preload","0","4725","0.0-0.0","A1RKGN3VY39TM1","2022-05-23T18:49:59.701Z","task_switching-phon_sim-rhyme-same_different","","","","","","","","","","","","","","","","","","","","","","","","","","","","","","","","","","","","","","","",""
"","","","","","instructions","1","22117","0.0-1.0","A1RKGN3VY39TM1","2022-05-23T18:49:59.701Z","task_switching-phon_sim-rhyme-same_different","[{""page_index"":0,""viewing_time"":17389.39999985695}]","17390.099999904633","","","","","","","","","","","","","","","","","","","","","","","","","","","","","","","","","","","","","",""
"true","","","","","fullscreen","2","27048","0.0-2.0","A1RKGN3VY39TM1","2022-05-23T18:49:59.701Z","task_switching-phon_sim-rhyme-same_different","","","","","","","","","","","","","","","","","","","","","","","","","","","","","","","","","","","","","","","",""
"","","","","","instructions","3","48491","0.0-3.0","A1RKGN3VY39TM1","2022-05-23T18:49:59.701Z","task_switching-phon_sim-rhyme-same_different","[{""page_index"":0,""viewing_time"":21441.200000047684}]","21441.60000014305","task_switching","","","","","","","","","","","","","","","","","","","","","","","","","","","","","","","","","","","","",""
"","","","","","instructions","4","53495","0.0-4.0","A1RKGN3VY39TM1","2022-05-23T18:49:59.701Z","task_switching-phon_sim-rhyme-same_different","[{""page_index"":0,""viewing_time"":5000.100000143051}]","5000.600000143051","task_switching","","","","","","","","","","","","","","","","","","","","","","","","","","","","","","","","","","","","",""
"","","","","","survey-text","5","55283","0.0-5.0","A1RKGN3VY39TM1","2022-05-23T18:49:59.701Z","task_switching-phon_sim-rhyme-same_different","","1742.5","task_switching","{""subtraction_ans"":""34""}","training","37","subtraction","34","true","subtract","","","","","","","","","","","","","","","","","","","","","","","","","","","","","",""
"","","","","","html-keyboard-response","6","56295","0.0-6.0","A1RKGN3VY39TM1","2022-05-23T18:49:59.701Z","task_switching-phon_sim-rhyme-same_different","","null","task_switching","null","training","<div style=""color:darkgreen; font-size:60px"">Well done!</div>","subtraction","","","","","","","","","","","","","","","","","","","","","","","","","","","","","","","","",""
"","","","","","survey-text","7","58340","0.0-7.0","A1RKGN3VY39TM1","2022-05-23T18:49:59.701Z","task_switching-phon_sim-rhyme-same_different","","2034.5999999046326","task_switching","{""subtraction_ans"":""49""}","training","52","subtraction","49","true","subtract","","","","","","","","","","","","","","","","","","","","","","","","","","","","","",""
"","","","","","html-keyboard-response","8","59352","0.0-8.0","A1RKGN3VY39TM1","2022-05-23T18:49:59.701Z","task_switching-phon_sim-rhyme-same_different","","null","task_switching","null","training","<div style=""color:darkgreen; font-size:60px"">Well done!</div>","subtraction","","","","","","","","","","","","","","","","","","","","","","","","","","","","","","","","",""
"","","","","","survey-text","9","61287","0.0-9.0","A1RKGN3VY39TM1","2022-05-23T18:49:59.701Z","task_switching-phon_sim-rhyme-same_different","","1929.4000000953674","task_switching","{""subtraction_ans"":""86""}","training","89","subtraction","86","true","subtract","","","","","","","","","","","","","","","","","","","","","","","","","","","","","",""
"","","","","","html-keyboard-response","10","62299","0.0-10.0","A1RKGN3VY39TM1","2022-05-23T18:49:59.701Z","task_switching-phon_sim-rhyme-same_different","","null","task_switching","null","training","<div style=""color:darkgreen; font-size:60px"">Well done!</div>","subtraction","","","","","","","","","","","","","","","","","","","","","","","","","","","","","","","","",""
"","","","","","survey-text","11","63643","0.0-11.0","A1RKGN3VY39TM1","2022-05-23T18:49:59.701Z","task_switching-phon_sim-rhyme-same_different","","1338.7000000476837","task_switching","{""subtraction_ans"":""24""}","training","27","subtraction","24","true","subtract","","","","","","","","","","","","","","","","","","","","","","","","","","","","","",""
"","","","","","html-keyboard-response","12","64649","0.0-12.0","A1RKGN3VY39TM1","2022-05-23T18:49:59.701Z","task_switching-phon_sim-rhyme-same_different","","null","task_switching","null","training","<div style=""color:darkgreen; font-size:60px"">Well done!</div>","subtraction","","","","","","","","","","","","","","","","","","","","","","","","","","","","","","","","",""
"","","","","","survey-text","13","65960","0.0-13.0","A1RKGN3VY39TM1","2022-05-23T18:49:59.701Z","task_switching-phon_sim-rhyme-same_different","","1306.7000000476837","task_switching","{""subtraction_ans"":""84""}","training","87","subtraction","84","true","subtract","","","","","","","","","","","","","","","","","","","","","","","","","","","","","",""
"","","","","","html-keyboard-response","14","66972","0.0-14.0","A1RKGN3VY39TM1","2022-05-23T18:49:59.701Z","task_switching-phon_sim-rhyme-same_different","","null","task_switching","null","training","<div style=""color:darkgreen; font-size:60px"">Well done!</div>","subtraction","","","","","","","","","","","","","","","","","","","","","","","","","","","","","","","","",""
"","","","","","survey-text","15","68355","0.0-15.0","A1RKGN3VY39TM1","2022-05-23T18:49:59.701Z","task_switching-phon_sim-rhyme-same_different","","1374.7999999523163","task_switching","{""subtraction_ans"":""14""}","training","17","subtraction","14","true","subtract","","","","","","","","","","","","","","","","","","","","","","","","","","","","","",""
"","","","","","html-keyboard-response","16","69363","0.0-16.0","A1RKGN3VY39TM1","2022-05-23T18:49:59.701Z","task_switching-phon_sim-rhyme-same_different","","null","task_switching","null","training","<div style=""color:darkgreen; font-size:60px"">Well done!</div>","subtraction","","","","","","","","","","","","","","","","","","","","","","","","","","","","","","","","",""
"","","","","","survey-text","17","71675","0.0-17.0","A1RKGN3VY39TM1","2022-05-23T18:49:59.701Z","task_switching-phon_sim-rhyme-same_different","","2308.0999999046326","task_switching","{""subtraction_ans"":""48""}","training","51","subtraction","48","true","subtract","","","","","","","","","","","","","","","","","","","","","","","","","","","","","",""
"","","","","","html-keyboard-response","18","72681","0.0-18.0","A1RKGN3VY39TM1","2022-05-23T18:49:59.701Z","task_switching-phon_sim-rhyme-same_different","","null","task_switching","null","training","<div style=""color:darkgreen; font-size:60px"">Well done!</div>","subtraction","","","","","","","","","","","","","","","","","","","","","","","","","","","","","","","","",""
"","","","","","survey-text","19","74086","0.0-19.0","A1RKGN3VY39TM1","2022-05-23T18:49:59.701Z","task_switching-phon_sim-rhyme-same_different","","1398.7000000476837","task_switching","{""subtraction_ans"":""20""}","training","23","subtraction","20","true","subtract","","","","","","","","","","","","","","","","","","","","","","","","","","","","","",""
"","","","","","html-keyboard-response","20","75096","0.0-20.0","A1RKGN3VY39TM1","2022-05-23T18:49:59.701Z","task_switching-phon_sim-rhyme-same_different","","null","task_switching","null","training","<div style=""color:darkgreen; font-size:60px"">Well done!</div>","subtraction","","","","","","","","","","","","","","","","","","","","","","","","","","","","","","","","",""
"","","","","","survey-text","21","76334","0.0-21.0","A1RKGN3VY39TM1","2022-05-23T18:49:59.701Z","task_switching-phon_sim-rhyme-same_different","","1231.7999999523163","task_switching","{""subtraction_ans"":""15""}","training","18","subtraction","15","true","subtract","","","","","","","","","","","","","","","","","","","","","","","","","","","","","",""
"","","","","","html-keyboard-response","22","77346","0.0-22.0","A1RKGN3VY39TM1","2022-05-23T18:49:59.701Z","task_switching-phon_sim-rhyme-same_different","","null","task_switching","null","training","<div style=""color:darkgreen; font-size:60px"">Well done!</div>","subtraction","","","","","","","","","","","","","","","","","","","","","","","","","","","","","","","","",""
"","","","","","survey-text","23","78730","0.0-23.0","A1RKGN3VY39TM1","2022-05-23T18:49:59.701Z","task_switching-phon_sim-rhyme-same_different","","1376.7999999523163","task_switching","{""subtraction_ans"":""33""}","training","36","subtraction","33","true","subtract","","","","","","","","","","","","","","","","","","","","","","","","","","","","","",""
"","","","","","html-keyboard-response","24","79745","0.0-24.0","A1RKGN3VY39TM1","2022-05-23T18:49:59.701Z","task_switching-phon_sim-rhyme-same_different","","null","task_switching","null","training","<div style=""color:darkgreen; font-size:60px"">Well done!</div>","subtraction","","","","","","","","","","","","","","","","","","","","","","","","","","","","","","","","",""
"","","","","","instructions","25","82153","0.0-25.0","A1RKGN3VY39TM1","2022-05-23T18:49:59.701Z","task_switching-phon_sim-rhyme-same_different","[{""page_index"":0,""viewing_time"":2406.5}]","2407","task_switching","","","","","","","","","","","","","","","","","","","","","","","","","","","","","","","","","","","","",""
"","","","","","survey-text","26","83999","0.0-26.0","A1RKGN3VY39TM1","2022-05-23T18:49:59.701Z","task_switching-phon_sim-rhyme-same_different","","1840.5","task_switching","{""subtraction_ans"":""88""}","experiment","91","subtraction","88","true","subtract","","","","","","","","","","","","","","","","","","","","","","","","","","","","","",""
"","","","","","survey-text","27","85756","0.0-27.0","A1RKGN3VY39TM1","2022-05-23T18:49:59.701Z","task_switching-phon_sim-rhyme-same_different","","1750","task_switching","{""subtraction_ans"":""17""}","experiment","20","subtraction","17","true","subtract","","","","","","","","","","","","","","","","","","","","","","","","","","","","","",""
"","","","","","survey-text","28","88419","0.0-28.0","A1RKGN3VY39TM1","2022-05-23T18:49:59.701Z","task_switching-phon_sim-rhyme-same_different","","2659","task_switching","{""subtraction_ans"":""78""}","experiment","81","subtraction","78","true","subtract","","","","","","","","","","","","","","","","","","","","","","","","","","","","","",""
"","","","","","survey-text","29","90101","0.0-29.0","A1RKGN3VY39TM1","2022-05-23T18:49:59.701Z","task_switching-phon_sim-rhyme-same_different","","1676.7999999523163","task_switching","{""subtraction_ans"":""31""}","experiment","34","subtraction","31","true","subtract","","","","","","","","","","","","","","","","","","","","","","","","","","","","","",""
"","","","","","survey-text","30","91814","0.0-30.0","A1RKGN3VY39TM1","2022-05-23T18:49:59.701Z","task_switching-phon_sim-rhyme-same_different","","1707.2999999523163","task_switching","{""subtraction_ans"":""72""}","experiment","75","subtraction","72","true","subtract","","","","","","","","","","","","","","","","","","","","","","","","","","","","","",""
"","","","","","survey-text","31","94417","0.0-31.0","A1RKGN3VY39TM1","2022-05-23T18:49:59.701Z","task_switching-phon_sim-rhyme-same_different","","2598.0999999046326","task_switching","{""subtraction_ans"":""87""}","experiment","90","subtraction","87","true","subtract","","","","","","","","","","","","","","","","","","","","","","","","","","","","","",""
"","","","","","survey-text","32","96373","0.0-32.0","A1RKGN3VY39TM1","2022-05-23T18:49:59.701Z","task_switching-phon_sim-rhyme-same_different","","1951.7000000476837","task_switching","{""subtraction_ans"":""69""}","experiment","72","subtraction","69","true","subtract","","","","","","","","","","","","","","","","","","","","","","","","","","","","","",""
"","","","","","survey-text","33","98236","0.0-33.0","A1RKGN3VY39TM1","2022-05-23T18:49:59.701Z","task_switching-phon_sim-rhyme-same_different","","1857.3000001907349","task_switching","{""subtraction_ans"":""37""}","experiment","40","subtraction","37","true","subtract","","","","","","","","","","","","","","","","","","","","","","","","","","","","","",""
"","","","","","survey-text","34","99486","0.0-34.0","A1RKGN3VY39TM1","2022-05-23T18:49:59.701Z","task_switching-phon_sim-rhyme-same_different","","1245.2000000476837","task_switching","{""subtraction_ans"":""14""}","experiment","17","subtraction","14","true","subtract","","","","","","","","","","","","","","","","","","","","","","","","","","","","","",""
"","","","","","survey-text","35","101150","0.0-35.0","A1RKGN3VY39TM1","2022-05-23T18:49:59.701Z","task_switching-phon_sim-rhyme-same_different","","1659","task_switching","{""subtraction_ans"":""63""}","experiment","66","subtraction","63","true","subtract","","","","","","","","","","","","","","","","","","","","","","","","","","","","","",""
"","","","","","survey-text","36","102896","0.0-36.0","A1RKGN3VY39TM1","2022-05-23T18:49:59.701Z","task_switching-phon_sim-rhyme-same_different","","1741.2000000476837","task_switching","{""subtraction_ans"":""39""}","experiment","42","subtraction","39","true","subtract","","","","","","","","","","","","","","","","","","","","","","","","","","","","","",""
"","","","","","survey-text","37","104909","0.0-37.0","A1RKGN3VY39TM1","2022-05-23T18:49:59.701Z","task_switching-phon_sim-rhyme-same_different","","2008.2000000476837","task_switching","{""subtraction_ans"":""45""}","experiment","48","subtraction","45","true","subtract","","","","","","","","","","","","","","","","","","","","","","","","","","","","","",""
"","","","","","survey-text","38","106559","0.0-38.0","A1RKGN3VY39TM1","2022-05-23T18:49:59.701Z","task_switching-phon_sim-rhyme-same_different","","1643.1000001430511","task_switching","{""subtraction_ans"":""18""}","experiment","21","subtraction","18","true","subtract","","","","","","","","","","","","","","","","","","","","","","","","","","","","","",""
"","","","","","survey-text","39","107916","0.0-39.0","A1RKGN3VY39TM1","2022-05-23T18:49:59.701Z","task_switching-phon_sim-rhyme-same_different","","1350.8999998569489","task_switching","{""subtraction_ans"":""12""}","experiment","15","subtraction","12","true","subtract","","","","","","","","","","","","","","","","","","","","","","","","","","","","","",""
"","","","","","survey-text","40","109407","0.0-40.0","A1RKGN3VY39TM1","2022-05-23T18:49:59.701Z","task_switching-phon_sim-rhyme-same_different","","1484.2999999523163","task_switching","{""subtraction_ans"":""42""}","experiment","46","subtraction","42","false","subtract","","","","","","","","","","","","","","","","","","","","","","","","","","","","","",""
"","","","","","survey-text","41","111676","0.0-41.0","A1RKGN3VY39TM1","2022-05-23T18:49:59.701Z","task_switching-phon_sim-rhyme-same_different","","2264.0999999046326","task_switching","{""subtraction_ans"":""32""}","experiment","35","subtraction","32","true","subtract","","","","","","","","","","","","","","","","","","","","","","","","","","","","","",""
"","","","","","survey-text","42","113720","0.0-42.0","A1RKGN3VY39TM1","2022-05-23T18:49:59.701Z","task_switching-phon_sim-rhyme-same_different","","2038.8999998569489","task_switching","{""subtraction_ans"":""57""}","experiment","60","subtraction","57","true","subtract","","","","","","","","","","","","","","","","","","","","","","","","","","","","","",""
"","","","","","survey-text","43","115518","0.0-43.0","A1RKGN3VY39TM1","2022-05-23T18:49:59.701Z","task_switching-phon_sim-rhyme-same_different","","1792.9000000953674","task_switching","{""subtraction_ans"":""21""}","experiment","24","subtraction","21","true","subtract","","","","","","","","","","","","","","","","","","","","","","","","","","","","","",""
"","","","","","survey-text","44","117878","0.0-44.0","A1RKGN3VY39TM1","2022-05-23T18:49:59.701Z","task_switching-phon_sim-rhyme-same_different","","2354.5","task_switching","{""subtraction_ans"":""81""}","experiment","84","subtraction","81","true","subtract","","","","","","","","","","","","","","","","","","","","","","","","","","","","","",""
"","","","","","survey-text","45","120908","0.0-45.0","A1RKGN3VY39TM1","2022-05-23T18:49:59.701Z","task_switching-phon_sim-rhyme-same_different","","3018.600000143051","task_switching","{""subtraction_ans"":""68""}","experiment","71","subtraction","68","true","subtract","","","","","","","","","","","","","","","","","","","","","","","","","","","","","",""
"","","","","","survey-text","46","122280","0.0-46.0","A1RKGN3VY39TM1","2022-05-23T18:49:59.701Z","task_switching-phon_sim-rhyme-same_different","","1365.9000000953674","task_switching","{""subtraction_ans"":""26""}","experiment","29","subtraction","26","true","subtract","","","","","","","","","","","","","","","","","","","","","","","","","","","","","",""
"","","","","","survey-text","47","123887","0.0-47.0","A1RKGN3VY39TM1","2022-05-23T18:49:59.701Z","task_switching-phon_sim-rhyme-same_different","","1600.5","task_switching","{""subtraction_ans"":""41""}","experiment","44","subtraction","41","true","subtract","","","","","","","","","","","","","","","","","","","","","","","","","","","","","",""
"","","","","","survey-text","48","125630","0.0-48.0","A1RKGN3VY39TM1","2022-05-23T18:49:59.701Z","task_switching-phon_sim-rhyme-same_different","","1737.5999999046326","task_switching","{""subtraction_ans"":""56""}","experiment","59","subtraction","56","true","subtract","","","","","","","","","","","","","","","","","","","","","","","","","","","","","",""
"","","","","","survey-text","49","127213","0.0-49.0","A1RKGN3VY39TM1","2022-05-23T18:49:59.701Z","task_switching-phon_sim-rhyme-same_different","","1576.4000000953674","task_switching","{""subtraction_ans"":""33""}","experiment","36","subtraction","33","true","subtract","","","","","","","","","","","","","","","","","","","","","","","","","","","","","",""
"","","","","","survey-text","50","128752","0.0-50.0","A1RKGN3VY39TM1","2022-05-23T18:49:59.701Z","task_switching-phon_sim-rhyme-same_different","","1531","task_switching","{""subtraction_ans"":""28""}","experiment","31","subtraction","28","true","subtract","","","","","","","","","","","","","","","","","","","","","","","","","","","","","",""
"","","","","","survey-text","51","130381","0.0-51.0","A1RKGN3VY39TM1","2022-05-23T18:49:59.701Z","task_switching-phon_sim-rhyme-same_different","","1622.5999999046326","task_switching","{""subtraction_ans"":""46""}","experiment","49","subtraction","46","true","subtract","","","","","","","","","","","","","","","","","","","","","","","","","","","","","",""
"","","","","","survey-text","52","131532","0.0-52.0","A1RKGN3VY39TM1","2022-05-23T18:49:59.701Z","task_switching-phon_sim-rhyme-same_different","","1142.8000001907349","task_switching","{""subtraction_ans"":""92""}","experiment","95","subtraction","92","true","subtract","","","","","","","","","","","","","","","","","","","","","","","","","","","","","",""
"","","","","","survey-text","53","133666","0.0-53.0","A1RKGN3VY39TM1","2022-05-23T18:49:59.701Z","task_switching-phon_sim-rhyme-same_different","","2129.4000000953674","task_switching","{""subtraction_ans"":""27""}","experiment","30","subtraction","27","true","subtract","","","","","","","","","","","","","","","","","","","","","","","","","","","","","",""
"","","","","","survey-text","54","134865","0.0-54.0","A1RKGN3VY39TM1","2022-05-23T18:49:59.701Z","task_switching-phon_sim-rhyme-same_different","","1192.4000000953674","task_switching","{""subtraction_ans"":""22""}","experiment","25","subtraction","22","true","subtract","","","","","","","","","","","","","","","","","","","","","","","","","","","","","",""
"","","","","","survey-text","55","136113","0.0-55.0","A1RKGN3VY39TM1","2022-05-23T18:49:59.701Z","task_switching-phon_sim-rhyme-same_different","","1243.7000000476837","task_switching","{""subtraction_ans"":""51""}","experiment","54","subtraction","51","true","subtract","","","","","","","","","","","","","","","","","","","","","","","","","","","","","",""
"","","","","","instructions","56","141470","0.0-56.0","A1RKGN3VY39TM1","2022-05-23T18:49:59.701Z","task_switching-phon_sim-rhyme-same_different","[{""page_index"":0,""viewing_time"":5355.100000143051}]","5355.700000047684","task_switching","","","","","","","","","","","","","","","","","","","","","","","","","","","","","","","","","","","","",""
"","","","","","survey-text","57","143116","0.0-57.0","A1RKGN3VY39TM1","2022-05-23T18:49:59.701Z","task_switching-phon_sim-rhyme-same_different","","1640.2000000476837","task_switching","{""addition_ans"":""63""}","training","60","addition","63","true","add","","","","","","","","","","","","","","","","","","","","","","","","","","","","","",""
"","","","","","html-keyboard-response","58","144129","0.0-58.0","A1RKGN3VY39TM1","2022-05-23T18:49:59.701Z","task_switching-phon_sim-rhyme-same_different","","null","task_switching","null","training","<div style=""color:darkgreen; font-size:60px"">Well done!</div>","addition","","","","","","","","","","","","","","","","","","","","","","","","","","","","","","","","",""
"","","","","","survey-text","59","147582","0.0-59.0","A1RKGN3VY39TM1","2022-05-23T18:49:59.701Z","task_switching-phon_sim-rhyme-same_different","","3449.2000000476837","task_switching","{""addition_ans"":""59""}","training","56","addition","59","true","add","","","","","","","","","","","","","","","","","","","","","","","","","","","","","",""
"","","","","","html-keyboard-response","60","148596","0.0-60.0","A1RKGN3VY39TM1","2022-05-23T18:49:59.701Z","task_switching-phon_sim-rhyme-same_different","","null","task_switching","null","training","<div style=""color:darkgreen; font-size:60px"">Well done!</div>","addition","","","","","","","","","","","","","","","","","","","","","","","","","","","","","","","","",""
"","","","","","survey-text","61","155483","0.0-61.0","A1RKGN3VY39TM1","2022-05-23T18:49:59.701Z","task_switching-phon_sim-rhyme-same_different","","6882.099999904633","task_switching","{""addition_ans"":""34""}","training","37","addition","34","false","add","","","","","","","","","","","","","","","","","","","","","","","","","","","","","",""
"","","","","","html-keyboard-response","62","160497","0.0-62.0","A1RKGN3VY39TM1","2022-05-23T18:49:59.701Z","task_switching-phon_sim-rhyme-same_different","","null","task_switching","null","training","<div style=""color:darkred; font-size:40px"">Remember to <b>add</b> 3.<p> Correct answer: 40</p></div>","addition","","","","","","","","","","","","","","","","","","","","","","","","","","","","","","","","",""
"","","","","","survey-text","63","162246","0.0-63.0","A1RKGN3VY39TM1","2022-05-23T18:49:59.701Z","task_switching-phon_sim-rhyme-same_different","","1744","task_switching","{""addition_ans"":""91""}","training","88","addition","91","true","add","","","","","","","","","","","","","","","","","","","","","","","","","","","","","",""
"","","","","","html-keyboard-response","64","163258","0.0-64.0","A1RKGN3VY39TM1","2022-05-23T18:49:59.701Z","task_switching-phon_sim-rhyme-same_different","","null","task_switching","null","training","<div style=""color:darkgreen; font-size:60px"">Well done!</div>","addition","","","","","","","","","","","","","","","","","","","","","","","","","","","","","","","","",""
"","","","","","survey-text","65","165304","0.0-65.0","A1RKGN3VY39TM1","2022-05-23T18:49:59.701Z","task_switching-phon_sim-rhyme-same_different","","2042","task_switching","{""addition_ans"":""43""}","training","40","addition","43","true","add","","","","","","","","","","","","","","","","","","","","","","","","","","","","","",""
"","","","","","html-keyboard-response","66","166313","0.0-66.0","A1RKGN3VY39TM1","2022-05-23T18:49:59.701Z","task_switching-phon_sim-rhyme-same_different","","null","task_switching","null","training","<div style=""color:darkgreen; font-size:60px"">Well done!</div>","addition","","","","","","","","","","","","","","","","","","","","","","","","","","","","","","","","",""
"","","","","","survey-text","67","167832","0.0-67.0","A1RKGN3VY39TM1","2022-05-23T18:49:59.701Z","task_switching-phon_sim-rhyme-same_different","","1512.5999999046326","task_switching","{""addition_ans"":""56""}","training","59","addition","56","false","add","","","","","","","","","","","","","","","","","","","","","","","","","","","","","",""
"","","","","","html-keyboard-response","68","172840","0.0-68.0","A1RKGN3VY39TM1","2022-05-23T18:49:59.701Z","task_switching-phon_sim-rhyme-same_different","","null","task_switching","null","training","<div style=""color:darkred; font-size:40px"">Remember to <b>add</b> 3.<p> Correct answer: 62</p></div>","addition","","","","","","","","","","","","","","","","","","","","","","","","","","","","","","","","",""
"","","","","","survey-text","69","174514","0.0-69.0","A1RKGN3VY39TM1","2022-05-23T18:49:59.701Z","task_switching-phon_sim-rhyme-same_different","","1668.7999999523163","task_switching","{""addition_ans"":""64""}","training","61","addition","64","true","add","","","","","","","","","","","","","","","","","","","","","","","","","","","","","",""
"","","","","","html-keyboard-response","70","175524","0.0-70.0","A1RKGN3VY39TM1","2022-05-23T18:49:59.701Z","task_switching-phon_sim-rhyme-same_different","","null","task_switching","null","training","<div style=""color:darkgreen; font-size:60px"">Well done!</div>","addition","","","","","","","","","","","","","","","","","","","","","","","","","","","","","","","","",""
"","","","","","survey-text","71","176752","0.0-71.0","A1RKGN3VY39TM1","2022-05-23T18:49:59.701Z","task_switching-phon_sim-rhyme-same_different","","1221.5","task_switching","{""addition_ans"":""46""}","training","43","addition","46","true","add","","","","","","","","","","","","","","","","","","","","","","","","","","","","","",""
"","","","","","html-keyboard-response","72","177758","0.0-72.0","A1RKGN3VY39TM1","2022-05-23T18:49:59.701Z","task_switching-phon_sim-rhyme-same_different","","null","task_switching","null","training","<div style=""color:darkgreen; font-size:60px"">Well done!</div>","addition","","","","","","","","","","","","","","","","","","","","","","","","","","","","","","","","",""
"","","","","","survey-text","73","179225","0.0-73.0","A1RKGN3VY39TM1","2022-05-23T18:49:59.701Z","task_switching-phon_sim-rhyme-same_different","","1461.9000000953674","task_switching","{""addition_ans"":""86""}","training","83","addition","86","true","add","","","","","","","","","","","","","","","","","","","","","","","","","","","","","",""
"","","","","","html-keyboard-response","74","180238","0.0-74.0","A1RKGN3VY39TM1","2022-05-23T18:49:59.701Z","task_switching-phon_sim-rhyme-same_different","","null","task_switching","null","training","<div style=""color:darkgreen; font-size:60px"">Well done!</div>","addition","","","","","","","","","","","","","","","","","","","","","","","","","","","","","","","","",""
"","","","","","survey-text","75","182239","0.0-75.0","A1RKGN3VY39TM1","2022-05-23T18:49:59.701Z","task_switching-phon_sim-rhyme-same_different","","1994.8000001907349","task_switching","{""addition_ans"":""92""}","training","89","addition","92","true","add","","","","","","","","","","","","","","","","","","","","","","","","","","","","","",""
"","","","","","html-keyboard-response","76","183254","0.0-76.0","A1RKGN3VY39TM1","2022-05-23T18:49:59.701Z","task_switching-phon_sim-rhyme-same_different","","null","task_switching","null","training","<div style=""color:darkgreen; font-size:60px"">Well done!</div>","addition","","","","","","","","","","","","","","","","","","","","","","","","","","","","","","","","",""
"","","","","","instructions","77","184663","0.0-77.0","A1RKGN3VY39TM1","2022-05-23T18:49:59.701Z","task_switching-phon_sim-rhyme-same_different","[{""page_index"":0,""viewing_time"":1408.0999999046326}]","1408.6999998092651","task_switching","","","","","","","","","","","","","","","","","","","","","","","","","","","","","","","","","","","","",""
"","","","","","survey-text","78","185885","0.0-78.0","A1RKGN3VY39TM1","2022-05-23T18:49:59.701Z","task_switching-phon_sim-rhyme-same_different","","1215.8999998569489","task_switching","{""addition_ans"":""89""}","experiment","86","addition","89","true","add","","","","","","","","","","","","","","","","","","","","","","","","","","","","","",""
"","","","","","survey-text","79","187323","0.0-79.0","A1RKGN3VY39TM1","2022-05-23T18:49:59.701Z","task_switching-phon_sim-rhyme-same_different","","1431.0999999046326","task_switching","{""addition_ans"":""64""}","experiment","61","addition","64","true","add","","","","","","","","","","","","","","","","","","","","","","","","","","","","","",""
"","","","","","survey-text","80","189005","0.0-80.0","A1RKGN3VY39TM1","2022-05-23T18:49:59.701Z","task_switching-phon_sim-rhyme-same_different","","1675.1000001430511","task_switching","{""addition_ans"":""446""}","experiment","43","addition","446","false","add","","","","","","","","","","","","","","","","","","","","","","","","","","","","","",""
"","","","","","survey-text","81","190384","0.0-81.0","A1RKGN3VY39TM1","2022-05-23T18:49:59.701Z","task_switching-phon_sim-rhyme-same_different","","1374.2000000476837","task_switching","{""addition_ans"":""43""}","experiment","40","addition","43","true","add","","","","","","","","","","","","","","","","","","","","","","","","","","","","","",""
"","","","","","survey-text","82","191655","0.0-82.0","A1RKGN3VY39TM1","2022-05-23T18:49:59.701Z","task_switching-phon_sim-rhyme-same_different","","1261.2999999523163","task_switching","{""addition_ans"":""25""}","experiment","22","addition","25","true","add","","","","","","","","","","","","","","","","","","","","","","","","","","","","","",""
"","","","","","survey-text","83","192903","0.0-83.0","A1RKGN3VY39TM1","2022-05-23T18:49:59.701Z","task_switching-phon_sim-rhyme-same_different","","1243.2000000476837","task_switching","{""addition_ans"":""83""}","experiment","80","addition","83","true","add","","","","","","","","","","","","","","","","","","","","","","","","","","","","","",""
"","","","","","survey-text","84","194429","0.0-84.0","A1RKGN3VY39TM1","2022-05-23T18:49:59.701Z","task_switching-phon_sim-rhyme-same_different","","1521.0999999046326","task_switching","{""addition_ans"":""93""}","experiment","90","addition","93","true","add","","","","","","","","","","","","","","","","","","","","","","","","","","","","","",""
"","","","","","survey-text","85","195815","0.0-85.0","A1RKGN3VY39TM1","2022-05-23T18:49:59.701Z","task_switching-phon_sim-rhyme-same_different","","1381.0999999046326","task_switching","{""addition_ans"":""75""}","experiment","72","addition","75","true","add","","","","","","","","","","","","","","","","","","","","","","","","","","","","","",""
"","","","","","survey-text","86","197556","0.0-86.0","A1RKGN3VY39TM1","2022-05-23T18:49:59.701Z","task_switching-phon_sim-rhyme-same_different","","1734.0999999046326","task_switching","{""addition_ans"":""41""}","experiment","38","addition","41","true","add","","","","","","","","","","","","","","","","","","","","","","","","","","","","","",""
"","","","","","survey-text","87","198829","0.0-87.0","A1RKGN3VY39TM1","2022-05-23T18:49:59.701Z","task_switching-phon_sim-rhyme-same_different","","1268.4000000953674","task_switching","{""addition_ans"":""48""}","experiment","45","addition","48","true","add","","","","","","","","","","","","","","","","","","","","","","","","","","","","","",""
"","","","","","survey-text","88","200382","0.0-88.0","A1RKGN3VY39TM1","2022-05-23T18:49:59.701Z","task_switching-phon_sim-rhyme-same_different","","1548.7000000476837","task_switching","{""addition_ans"":""95""}","experiment","92","addition","95","true","add","","","","","","","","","","","","","","","","","","","","","","","","","","","","","",""
"","","","","","survey-text","89","201793","0.0-89.0","A1RKGN3VY39TM1","2022-05-23T18:49:59.701Z","task_switching-phon_sim-rhyme-same_different","","1404.7999999523163","task_switching","{""addition_ans"":""77""}","experiment","74","addition","77","true","add","","","","","","","","","","","","","","","","","","","","","","","","","","","","","",""
"","","","","","survey-text","90","203511","0.0-90.0","A1RKGN3VY39TM1","2022-05-23T18:49:59.701Z","task_switching-phon_sim-rhyme-same_different","","1712","task_switching","{""addition_ans"":""39""}","experiment","36","addition","39","true","add","","","","","","","","","","","","","","","","","","","","","","","","","","","","","",""
"","","","","","survey-text","91","204867","0.0-91.0","A1RKGN3VY39TM1","2022-05-23T18:49:59.701Z","task_switching-phon_sim-rhyme-same_different","","1350.3999998569489","task_switching","{""addition_ans"":""35""}","experiment","32","addition","35","true","add","","","","","","","","","","","","","","","","","","","","","","","","","","","","","",""
"","","","","","survey-text","92","206344","0.0-92.0","A1RKGN3VY39TM1","2022-05-23T18:49:59.701Z","task_switching-phon_sim-rhyme-same_different","","1472.5","task_switching","{""addition_ans"":""58""}","experiment","55","addition","58","true","add","","","","","","","","","","","","","","","","","","","","","","","","","","","","","",""
"","","","","","survey-text","93","207858","0.0-93.0","A1RKGN3VY39TM1","2022-05-23T18:49:59.701Z","task_switching-phon_sim-rhyme-same_different","","1508.2999999523163","task_switching","{""addition_ans"":""79""}","experiment","76","addition","79","true","add","","","","","","","","","","","","","","","","","","","","","","","","","","","","","",""
"","","","","","survey-text","94","209172","0.0-94.0","A1RKGN3VY39TM1","2022-05-23T18:49:59.701Z","task_switching-phon_sim-rhyme-same_different","","1308.8999998569489","task_switching","{""addition_ans"":""14""}","experiment","11","addition","14","true","add","","","","","","","","","","","","","","","","","","","","","","","","","","","","","",""
"","","","","","survey-text","95","210693","0.0-95.0","A1RKGN3VY39TM1","2022-05-23T18:49:59.701Z","task_switching-phon_sim-rhyme-same_different","","1515.8000001907349","task_switching","{""addition_ans"":""45""}","experiment","42","addition","45","true","add","","","","","","","","","","","","","","","","","","","","","","","","","","","","","",""
"","","","","","survey-text","96","212216","0.0-96.0","A1RKGN3VY39TM1","2022-05-23T18:49:59.701Z","task_switching-phon_sim-rhyme-same_different","","1518.5999999046326","task_switching","{""addition_ans"":""40""}","experiment","37","addition","40","true","add","","","","","","","","","","","","","","","","","","","","","","","","","","","","","",""
"","","","","","survey-text","97","213701","0.0-97.0","A1RKGN3VY39TM1","2022-05-23T18:49:59.701Z","task_switching-phon_sim-rhyme-same_different","","1479.1000001430511","task_switching","{""addition_ans"":""85""}","experiment","82","addition","85","true","add","","","","","","","","","","","","","","","","","","","","","","","","","","","","","",""
"","","","","","survey-text","98","214916","0.0-98.0","A1RKGN3VY39TM1","2022-05-23T18:49:59.701Z","task_switching-phon_sim-rhyme-same_different","","1208.3000001907349","task_switching","{""addition_ans"":""47""}","experiment","44","addition","47","true","add","","","","","","","","","","","","","","","","","","","","","","","","","","","","","",""
"","","","","","survey-text","99","216640","0.0-99.0","A1RKGN3VY39TM1","2022-05-23T18:49:59.701Z","task_switching-phon_sim-rhyme-same_different","","1717","task_switching","{""addition_ans"":""70""}","experiment","67","addition","70","true","add","","","","","","","","","","","","","","","","","","","","","","","","","","","","","",""
"","","","","","survey-text","100","218824","0.0-100.0","A1RKGN3VY39TM1","2022-05-23T18:49:59.701Z","task_switching-phon_sim-rhyme-same_different","","2178.7999999523163","task_switching","{""addition_ans"":""80""}","experiment","77","addition","80","true","add","","","","","","","","","","","","","","","","","","","","","","","","","","","","","",""
"","","","","","survey-text","101","220237","0.0-101.0","A1RKGN3VY39TM1","2022-05-23T18:49:59.701Z","task_switching-phon_sim-rhyme-same_different","","1408.0999999046326","task_switching","{""addition_ans"":""73""}","experiment","70","addition","73","true","add","","","","","","","","","","","","","","","","","","","","","","","","","","","","","",""
"","","","","","survey-text","102","221656","0.0-102.0","A1RKGN3VY39TM1","2022-05-23T18:49:59.701Z","task_switching-phon_sim-rhyme-same_different","","1414.7000000476837","task_switching","{""addition_ans"":""81""}","experiment","78","addition","81","true","add","","","","","","","","","","","","","","","","","","","","","","","","","","","","","",""
"","","","","","survey-text","103","223181","0.0-103.0","A1RKGN3VY39TM1","2022-05-23T18:49:59.701Z","task_switching-phon_sim-rhyme-same_different","","1520","task_switching","{""addition_ans"":""31""}","experiment","28","addition","31","true","add","","","","","","","","","","","","","","","","","","","","","","","","","","","","","",""
"","","","","","survey-text","104","224449","0.0-104.0","A1RKGN3VY39TM1","2022-05-23T18:49:59.701Z","task_switching-phon_sim-rhyme-same_different","","1263.2999999523163","task_switching","{""addition_ans"":""87""}","experiment","84","addition","87","true","add","","","","","","","","","","","","","","","","","","","","","","","","","","","","","",""
"","","","","","survey-text","105","226995","0.0-105.0","A1RKGN3VY39TM1","2022-05-23T18:49:59.701Z","task_switching-phon_sim-rhyme-same_different","","2538.899999856949","task_switching","{""addition_ans"":""76""}","experiment","73","addition","76","true","add","","","","","","","","","","","","","","","","","","","","","","","","","","","","","",""
"","","","","","survey-text","106","228347","0.0-106.0","A1RKGN3VY39TM1","2022-05-23T18:49:59.701Z","task_switching-phon_sim-rhyme-same_different","","1344.9000000953674","task_switching","{""addition_ans"":""28""}","experiment","25","addition","28","true","add","","","","","","","","","","","","","","","","","","","","","","","","","","","","","",""
"","","","","","survey-text","107","229850","0.0-107.0","A1RKGN3VY39TM1","2022-05-23T18:49:59.701Z","task_switching-phon_sim-rhyme-same_different","","1498.0999999046326","task_switching","{""addition_ans"":""90""}","experiment","87","addition","90","true","add","","","","","","","","","","","","","","","","","","","","","","","","","","","","","",""
"","","","","","instructions","108","235314","0.0-108.0","A1RKGN3VY39TM1","2022-05-23T18:49:59.701Z","task_switching-phon_sim-rhyme-same_different","[{""page_index"":0,""viewing_time"":5461.700000047684}]","5462.399999856949","task_switching","","","","","","","","","","","","","","","","","","","","","","","","","","","","","","","","","","","","",""
"","","","","","survey-text","109","237637","0.0-109.0","A1RKGN3VY39TM1","2022-05-23T18:49:59.701Z","task_switching-phon_sim-rhyme-same_different","","2312.5","task_switching","{""colorcue_switch_ans"":""68""}","training","65","colorcue_switch","68","true","add","red","0","","","","","","","","","","","","","","","","","","","","","","","","","","","",""
"","","","","","html-keyboard-response","110","238658","0.0-110.0","A1RKGN3VY39TM1","2022-05-23T18:49:59.701Z","task_switching-phon_sim-rhyme-same_different","","null","task_switching","null","training","<div style=""color:darkgreen; font-size:60px"">Well done!</div>","colorcue_switch","","","","","","","","","","","","","","","","","","","","","","","","","","","","","","","","",""
"","","","","","survey-text","111","240404","0.0-111.0","A1RKGN3VY39TM1","2022-05-23T18:49:59.701Z","task_switching-phon_sim-rhyme-same_different","","1739.7999999523163","task_switching","{""colorcue_switch_ans"":""61""}","training","64","colorcue_switch","61","true","subtract","blue","1","","","","","","","","","","","","","","","","","","","","","","","","","","","",""
"","","","","","html-keyboard-response","112","241408","0.0-112.0","A1RKGN3VY39TM1","2022-05-23T18:49:59.701Z","task_switching-phon_sim-rhyme-same_different","","null","task_switching","null","training","<div style=""color:darkgreen; font-size:60px"">Well done!</div>","colorcue_switch","","","","","","","","","","","","","","","","","","","","","","","","","","","","","","","","",""
"","","","","","survey-text","113","242982","0.0-113.0","A1RKGN3VY39TM1","2022-05-23T18:49:59.701Z","task_switching-phon_sim-rhyme-same_different","","1569.2999999523163","task_switching","{""colorcue_switch_ans"":""75""}","training","72","colorcue_switch","75","true","add","red","2","","","","","","","","","","","","","","","","","","","","","","","","","","","",""
"","","","","","html-keyboard-response","114","243993","0.0-114.0","A1RKGN3VY39TM1","2022-05-23T18:49:59.701Z","task_switching-phon_sim-rhyme-same_different","","null","task_switching","null","training","<div style=""color:darkgreen; font-size:60px"">Well done!</div>","colorcue_switch","","","","","","","","","","","","","","","","","","","","","","","","","","","","","","","","",""
"","","","","","survey-text","115","245640","0.0-115.0","A1RKGN3VY39TM1","2022-05-23T18:49:59.701Z","task_switching-phon_sim-rhyme-same_different","","1641.5","task_switching","{""colorcue_switch_ans"":""90""}","training","93","colorcue_switch","90","true","subtract","blue","3","","","","","","","","","","","","","","","","","","","","","","","","","","","",""
"","","","","","html-keyboard-response","116","246643","0.0-116.0","A1RKGN3VY39TM1","2022-05-23T18:49:59.701Z","task_switching-phon_sim-rhyme-same_different","","null","task_switching","null","training","<div style=""color:darkgreen; font-size:60px"">Well done!</div>","colorcue_switch","","","","","","","","","","","","","","","","","","","","","","","","","","","","","","","","",""
"","","","","","survey-text","117","248376","0.0-117.0","A1RKGN3VY39TM1","2022-05-23T18:49:59.701Z","task_switching-phon_sim-rhyme-same_different","","1728.1000001430511","task_switching","{""colorcue_switch_ans"":""59""}","training","62","colorcue_switch","59","false","add","red","4","","","","","","","","","","","","","","","","","","","","","","","","","","","",""
"","","","","","html-keyboard-response","118","253389","0.0-118.0","A1RKGN3VY39TM1","2022-05-23T18:49:59.701Z","task_switching-phon_sim-rhyme-same_different","","null","task_switching","null","training","<div style=""color:darkred; font-size:40px"">That was an <b>add</b> trial.<p> Correct answer: 65.</p><p> Next trial subtract 3.</p></div>","colorcue_switch","","","","","","","","","","","","","","","","","","","","","","","","","","","","","","","","",""
"","","","","","survey-text","119","255159","0.0-119.0","A1RKGN3VY39TM1","2022-05-23T18:49:59.701Z","task_switching-phon_sim-rhyme-same_different","","1763.5","task_switching","{""colorcue_switch_ans"":""20""}","training","23","colorcue_switch","20","true","subtract","blue","5","","","","","","","","","","","","","","","","","","","","","","","","","","","",""
"","","","","","html-keyboard-response","120","256169","0.0-120.0","A1RKGN3VY39TM1","2022-05-23T18:49:59.701Z","task_switching-phon_sim-rhyme-same_different","","null","task_switching","null","training","<div style=""color:darkgreen; font-size:60px"">Well done!</div>","colorcue_switch","","","","","","","","","","","","","","","","","","","","","","","","","","","","","","","","",""
"","","","","","survey-text","121","258107","0.0-121.0","A1RKGN3VY39TM1","2022-05-23T18:49:59.701Z","task_switching-phon_sim-rhyme-same_different","","1933.4000000953674","task_switching","{""colorcue_switch_ans"":""81""}","training","78","colorcue_switch","81","true","add","red","6","","","","","","","","","","","","","","","","","","","","","","","","","","","",""
"","","","","","html-keyboard-response","122","259119","0.0-122.0","A1RKGN3VY39TM1","2022-05-23T18:49:59.701Z","task_switching-phon_sim-rhyme-same_different","","null","task_switching","null","training","<div style=""color:darkgreen; font-size:60px"">Well done!</div>","colorcue_switch","","","","","","","","","","","","","","","","","","","","","","","","","","","","","","","","",""
"","","","","","survey-text","123","263052","0.0-123.0","A1RKGN3VY39TM1","2022-05-23T18:49:59.701Z","task_switching-phon_sim-rhyme-same_different","","3929.0999999046326","task_switching","{""colorcue_switch_ans"":""64""}","training","67","colorcue_switch","64","true","subtract","blue","7","","","","","","","","","","","","","","","","","","","","","","","","","","","",""
"","","","","","html-keyboard-response","124","264068","0.0-124.0","A1RKGN3VY39TM1","2022-05-23T18:49:59.701Z","task_switching-phon_sim-rhyme-same_different","","null","task_switching","null","training","<div style=""color:darkgreen; font-size:60px"">Well done!</div>","colorcue_switch","","","","","","","","","","","","","","","","","","","","","","","","","","","","","","","","",""
"","","","","","survey-text","125","266149","0.0-125.0","A1RKGN3VY39TM1","2022-05-23T18:49:59.701Z","task_switching-phon_sim-rhyme-same_different","","2076.5999999046326","task_switching","{""colorcue_switch_ans"":""56""}","training","53","colorcue_switch","56","true","add","red","8","","","","","","","","","","","","","","","","","","","","","","","","","","","",""
"","","","","","html-keyboard-response","126","267152","0.0-126.0","A1RKGN3VY39TM1","2022-05-23T18:49:59.701Z","task_switching-phon_sim-rhyme-same_different","","null","task_switching","null","training","<div style=""color:darkgreen; font-size:60px"">Well done!</div>","colorcue_switch","","","","","","","","","","","","","","","","","","","","","","","","","","","","","","","","",""
"","","","","","survey-text","127","269145","0.0-127.0","A1RKGN3VY39TM1","2022-05-23T18:49:59.701Z","task_switching-phon_sim-rhyme-same_different","","1989.4000000953674","task_switching","{""colorcue_switch_ans"":""56""}","training","59","colorcue_switch","56","true","subtract","blue","9","","","","","","","","","","","","","","","","","","","","","","","","","","","",""
"","","","","","html-keyboard-response","128","270150","0.0-128.0","A1RKGN3VY39TM1","2022-05-23T18:49:59.701Z","task_switching-phon_sim-rhyme-same_different","","null","task_switching","null","training","<div style=""color:darkgreen; font-size:60px"">Well done!</div>","colorcue_switch","","","","","","","","","","","","","","","","","","","","","","","","","","","","","","","","",""
"","","","","","instructions","129","273172","0.0-129.0","A1RKGN3VY39TM1","2022-05-23T18:49:59.701Z","task_switching-phon_sim-rhyme-same_different","[{""page_index"":0,""viewing_time"":3020.399999856949}]","3020.899999856949","task_switching","","","","","","","","","","","","","","","","","","","","","","","","","","","","","","","","","","","","",""
"","","","","","survey-text","130","275179","0.0-130.0","A1RKGN3VY39TM1","2022-05-23T18:49:59.701Z","task_switching-phon_sim-rhyme-same_different","","2002.3000001907349","task_switching","{""colorcue_switch_ans"":""41""}","experiment","38","colorcue_switch","41","true","add","red","0","","","","","","","","","","","","","","","","","","","","","","","","","","","",""
"","","","","","survey-text","131","277865","0.0-131.0","A1RKGN3VY39TM1","2022-05-23T18:49:59.701Z","task_switching-phon_sim-rhyme-same_different","","2680","task_switching","{""colorcue_switch_ans"":""82""}","experiment","85","colorcue_switch","82","true","subtract","blue","1","","","","","","","","","","","","","","","","","","","","","","","","","","","",""
"","","","","","survey-text","132","279544","0.0-132.0","A1RKGN3VY39TM1","2022-05-23T18:49:59.701Z","task_switching-phon_sim-rhyme-same_different","","1673.6999998092651","task_switching","{""colorcue_switch_ans"":""27""}","experiment","24","colorcue_switch","27","true","add","red","2","","","","","","","","","","","","","","","","","","","","","","","","","","","",""
"","","","","","survey-text","133","282194","0.0-133.0","A1RKGN3VY39TM1","2022-05-23T18:49:59.701Z","task_switching-phon_sim-rhyme-same_different","","2644.5999999046326","task_switching","{""colorcue_switch_ans"":""83""}","experiment","86","colorcue_switch","83","true","subtract","blue","3","","","","","","","","","","","","","","","","","","","","","","","","","","","",""
"","","","","","survey-text","134","283845","0.0-134.0","A1RKGN3VY39TM1","2022-05-23T18:49:59.701Z","task_switching-phon_sim-rhyme-same_different","","1644.6999998092651","task_switching","{""colorcue_switch_ans"":""71""}","experiment","68","colorcue_switch","71","true","add","red","4","","","","","","","","","","","","","","","","","","","","","","","","","","","",""
"","","","","","survey-text","135","286230","0.0-135.0","A1RKGN3VY39TM1","2022-05-23T18:49:59.701Z","task_switching-phon_sim-rhyme-same_different","","2379.699999809265","task_switching","{""colorcue_switch_ans"":""69""}","experiment","72","colorcue_switch","69","true","subtract","blue","5","","","","","","","","","","","","","","","","","","","","","","","","","","","",""
"","","","","","survey-text","136","290067","0.0-136.0","A1RKGN3VY39TM1","2022-05-23T18:49:59.701Z","task_switching-phon_sim-rhyme-same_different","","3828.7999999523163","task_switching","{""colorcue_switch_ans"":""62""}","experiment","59","colorcue_switch","62","true","add","red","6","","","","","","","","","","","","","","","","","","","","","","","","","","","",""
"","","","","","survey-text","137","292068","0.0-137.0","A1RKGN3VY39TM1","2022-05-23T18:49:59.701Z","task_switching-phon_sim-rhyme-same_different","","1995.5999999046326","task_switching","{""colorcue_switch_ans"":""46""}","experiment","49","colorcue_switch","46","true","subtract","blue","7","","","","","","","","","","","","","","","","","","","","","","","","","","","",""
"","","","","","survey-text","138","293582","0.0-138.0","A1RKGN3VY39TM1","2022-05-23T18:49:59.701Z","task_switching-phon_sim-rhyme-same_different","","1506.1000001430511","task_switching","{""colorcue_switch_ans"":""34""}","experiment","31","colorcue_switch","34","true","add","red","8","","","","","","","","","","","","","","","","","","","","","","","","","","","",""
"","","","","","survey-text","139","295241","0.0-139.0","A1RKGN3VY39TM1","2022-05-23T18:49:59.701Z","task_switching-phon_sim-rhyme-same_different","","1654.1000001430511","task_switching","{""colorcue_switch_ans"":""53""}","experiment","56","colorcue_switch","53","true","subtract","blue","9","","","","","","","","","","","","","","","","","","","","","","","","","","","",""
"","","","","","survey-text","140","296996","0.0-140.0","A1RKGN3VY39TM1","2022-05-23T18:49:59.701Z","task_switching-phon_sim-rhyme-same_different","","1749","task_switching","{""colorcue_switch_ans"":""51""}","experiment","48","colorcue_switch","51","true","add","red","10","","","","","","","","","","","","","","","","","","","","","","","","","","","",""
"","","","","","survey-text","141","299032","0.0-141.0","A1RKGN3VY39TM1","2022-05-23T18:49:59.701Z","task_switching-phon_sim-rhyme-same_different","","2031.5","task_switching","{""colorcue_switch_ans"":""62""}","experiment","65","colorcue_switch","62","true","subtract","blue","11","","","","","","","","","","","","","","","","","","","","","","","","","","","",""
"","","","","","survey-text","142","300756","0.0-142.0","A1RKGN3VY39TM1","2022-05-23T18:49:59.701Z","task_switching-phon_sim-rhyme-same_different","","1719.1999998092651","task_switching","{""colorcue_switch_ans"":""86""}","experiment","83","colorcue_switch","86","true","add","red","12","","","","","","","","","","","","","","","","","","","","","","","","","","","",""
"","","","","","survey-text","143","302778","0.0-143.0","A1RKGN3VY39TM1","2022-05-23T18:49:59.701Z","task_switching-phon_sim-rhyme-same_different","","2015.7999999523163","task_switching","{""colorcue_switch_ans"":""78""}","experiment","81","colorcue_switch","78","true","subtract","blue","13","","","","","","","","","","","","","","","","","","","","","","","","","","","",""
"","","","","","survey-text","144","304170","0.0-144.0","A1RKGN3VY39TM1","2022-05-23T18:49:59.701Z","task_switching-phon_sim-rhyme-same_different","","1387","task_switching","{""colorcue_switch_ans"":""95""}","experiment","92","colorcue_switch","95","true","add","red","14","","","","","","","","","","","","","","","","","","","","","","","","","","","",""
"","","","","","survey-text","145","305995","0.0-145.0","A1RKGN3VY39TM1","2022-05-23T18:49:59.701Z","task_switching-phon_sim-rhyme-same_different","","1818","task_switching","{""colorcue_switch_ans"":""90""}","experiment","93","colorcue_switch","90","true","subtract","blue","15","","","","","","","","","","","","","","","","","","","","","","","","","","","",""
"","","","","","survey-text","146","307794","0.0-146.0","A1RKGN3VY39TM1","2022-05-23T18:49:59.701Z","task_switching-phon_sim-rhyme-same_different","","1791.7999999523163","task_switching","{""colorcue_switch_ans"":""74""}","experiment","71","colorcue_switch","74","true","add","red","16","","","","","","","","","","","","","","","","","","","","","","","","","","","",""
"","","","","","survey-text","147","309624","0.0-147.0","A1RKGN3VY39TM1","2022-05-23T18:49:59.701Z","task_switching-phon_sim-rhyme-same_different","","1820.9000000953674","task_switching","{""colorcue_switch_ans"":""10""}","experiment","13","colorcue_switch","10","true","subtract","blue","17","","","","","","","","","","","","","","","","","","","","","","","","","","","",""
"","","","","","survey-text","148","311197","0.0-148.0","A1RKGN3VY39TM1","2022-05-23T18:49:59.701Z","task_switching-phon_sim-rhyme-same_different","","1565.5999999046326","task_switching","{""colorcue_switch_ans"":""26""}","experiment","23","colorcue_switch","26","true","add","red","18","","","","","","","","","","","","","","","","","","","","","","","","","","","",""
"","","","","","survey-text","149","313641","0.0-149.0","A1RKGN3VY39TM1","2022-05-23T18:49:59.701Z","task_switching-phon_sim-rhyme-same_different","","2438.4000000953674","task_switching","{""colorcue_switch_ans"":""43""}","experiment","46","colorcue_switch","43","true","subtract","blue","19","","","","","","","","","","","","","","","","","","","","","","","","","","","",""
"","","","","","survey-text","150","315479","0.0-150.0","A1RKGN3VY39TM1","2022-05-23T18:49:59.701Z","task_switching-phon_sim-rhyme-same_different","","1833.0999999046326","task_switching","{""colorcue_switch_ans"":""53""}","experiment","50","colorcue_switch","53","true","add","red","20","","","","","","","","","","","","","","","","","","","","","","","","","","","",""
"","","","","","survey-text","151","317779","0.0-151.0","A1RKGN3VY39TM1","2022-05-23T18:49:59.701Z","task_switching-phon_sim-rhyme-same_different","","2294.9000000953674","task_switching","{""colorcue_switch_ans"":""87""}","experiment","90","colorcue_switch","87","true","subtract","blue","21","","","","","","","","","","","","","","","","","","","","","","","","","","","",""
"","","","","","survey-text","152","319550","0.0-152.0","A1RKGN3VY39TM1","2022-05-23T18:49:59.701Z","task_switching-phon_sim-rhyme-same_different","","1763.5","task_switching","{""colorcue_switch_ans"":""37""}","experiment","34","colorcue_switch","37","true","add","red","22","","","","","","","","","","","","","","","","","","","","","","","","","","","",""
"","","","","","survey-text","153","321907","0.0-153.0","A1RKGN3VY39TM1","2022-05-23T18:49:59.701Z","task_switching-phon_sim-rhyme-same_different","","2351.5","task_switching","{""colorcue_switch_ans"":""59""}","experiment","62","colorcue_switch","59","true","subtract","blue","23","","","","","","","","","","","","","","","","","","","","","","","","","","","",""
"","","","","","survey-text","154","323303","0.0-154.0","A1RKGN3VY39TM1","2022-05-23T18:49:59.701Z","task_switching-phon_sim-rhyme-same_different","","1388.7000000476837","task_switching","{""colorcue_switch_ans"":""23""}","experiment","20","colorcue_switch","23","true","add","red","24","","","","","","","","","","","","","","","","","","","","","","","","","","","",""
"","","","","","survey-text","155","324930","0.0-155.0","A1RKGN3VY39TM1","2022-05-23T18:49:59.701Z","task_switching-phon_sim-rhyme-same_different","","1621.0999999046326","task_switching","{""colorcue_switch_ans"":""24""}","experiment","27","colorcue_switch","24","true","subtract","blue","25","","","","","","","","","","","","","","","","","","","","","","","","","","","",""
"","","","","","survey-text","156","326626","0.0-156.0","A1RKGN3VY39TM1","2022-05-23T18:49:59.701Z","task_switching-phon_sim-rhyme-same_different","","1689.5999999046326","task_switching","{""colorcue_switch_ans"":""18""}","experiment","15","colorcue_switch","18","true","add","red","26","","","","","","","","","","","","","","","","","","","","","","","","","","","",""
"","","","","","survey-text","157","328280","0.0-157.0","A1RKGN3VY39TM1","2022-05-23T18:49:59.701Z","task_switching-phon_sim-rhyme-same_different","","1648.5","task_switching","{""colorcue_switch_ans"":""81""}","experiment","84","colorcue_switch","81","true","subtract","blue","27","","","","","","","","","","","","","","","","","","","","","","","","","","","",""
"","","","","","survey-text","158","329831","0.0-158.0","A1RKGN3VY39TM1","2022-05-23T18:49:59.701Z","task_switching-phon_sim-rhyme-same_different","","1545","task_switching","{""colorcue_switch_ans"":""99""}","experiment","96","colorcue_switch","99","true","add","red","28","","","","","","","","","","","","","","","","","","","","","","","","","","","",""
"","","","","","survey-text","159","331549","0.0-159.0","A1RKGN3VY39TM1","2022-05-23T18:49:59.701Z","task_switching-phon_sim-rhyme-same_different","","1711.9000000953674","task_switching","{""colorcue_switch_ans"":""71""}","experiment","74","colorcue_switch","71","true","subtract","blue","29","","","","","","","","","","","","","","","","","","","","","","","","","","","",""
"","","","","","instructions","160","369073","0.0-160.0","A1RKGN3VY39TM1","2022-05-23T18:49:59.701Z","task_switching-phon_sim-rhyme-same_different","[{""page_index"":0,""viewing_time"":37522.299999952316}]","37523.10000014305","task_switching","","","","","","","","","","","","","","","","","","","","","","","","","","","","","","","","","","","","",""
"","","","","","survey-text","161","371304","0.0-161.0","A1RKGN3VY39TM1","2022-05-23T18:49:59.701Z","task_switching-phon_sim-rhyme-same_different","","2224.0999999046326","task_switching","{""symbolcue_switch_ans"":""38""}","training","35","symbolcue_switch","38","true","add","","0","+","","","","","","","","","","","","","","","","","","","","","","","","","","",""
"","","","","","html-keyboard-response","162","372309","0.0-162.0","A1RKGN3VY39TM1","2022-05-23T18:49:59.701Z","task_switching-phon_sim-rhyme-same_different","","null","task_switching","null","training","<div style=""color:darkgreen; font-size:60px"">Well done!</div>","symbolcue_switch","","","","","","","","","","","","","","","","","","","","","","","","","","","","","","","","",""
"","","","","","survey-text","163","373774","0.0-163.0","A1RKGN3VY39TM1","2022-05-23T18:49:59.701Z","task_switching-phon_sim-rhyme-same_different","","1459.6999998092651","task_switching","{""symbolcue_switch_ans"":""60""}","training","63","symbolcue_switch","60","true","subtract","","1","-","","","","","","","","","","","","","","","","","","","","","","","","","","",""
"","","","","","html-keyboard-response","164","374778","0.0-164.0","A1RKGN3VY39TM1","2022-05-23T18:49:59.701Z","task_switching-phon_sim-rhyme-same_different","","null","task_switching","null","training","<div style=""color:darkgreen; font-size:60px"">Well done!</div>","symbolcue_switch","","","","","","","","","","","","","","","","","","","","","","","","","","","","","","","","",""
"","","","","","survey-text","165","376061","0.0-165.0","A1RKGN3VY39TM1","2022-05-23T18:49:59.701Z","task_switching-phon_sim-rhyme-same_different","","1279.1999998092651","task_switching","{""symbolcue_switch_ans"":""98""}","training","95","symbolcue_switch","98","true","add","","2","+","","","","","","","","","","","","","","","","","","","","","","","","","","",""
"","","","","","html-keyboard-response","166","377075","0.0-166.0","A1RKGN3VY39TM1","2022-05-23T18:49:59.701Z","task_switching-phon_sim-rhyme-same_different","","null","task_switching","null","training","<div style=""color:darkgreen; font-size:60px"">Well done!</div>","symbolcue_switch","","","","","","","","","","","","","","","","","","","","","","","","","","","","","","","","",""
"","","","","","survey-text","167","379013","0.0-167.0","A1RKGN3VY39TM1","2022-05-23T18:49:59.701Z","task_switching-phon_sim-rhyme-same_different","","1934","task_switching","{""symbolcue_switch_ans"":""78""}","training","81","symbolcue_switch","78","true","subtract","","3","-","","","","","","","","","","","","","","","","","","","","","","","","","","",""
"","","","","","html-keyboard-response","168","380023","0.0-168.0","A1RKGN3VY39TM1","2022-05-23T18:49:59.701Z","task_switching-phon_sim-rhyme-same_different","","null","task_switching","null","training","<div style=""color:darkgreen; font-size:60px"">Well done!</div>","symbolcue_switch","","","","","","","","","","","","","","","","","","","","","","","","","","","","","","","","",""
"","","","","","survey-text","169","381136","0.0-169.0","A1RKGN3VY39TM1","2022-05-23T18:49:59.701Z","task_switching-phon_sim-rhyme-same_different","","1108.4000000953674","task_switching","{""symbolcue_switch_ans"":""22""}","training","19","symbolcue_switch","22","true","add","","4","+","","","","","","","","","","","","","","","","","","","","","","","","","","",""
"","","","","","html-keyboard-response","170","382143","0.0-170.0","A1RKGN3VY39TM1","2022-05-23T18:49:59.701Z","task_switching-phon_sim-rhyme-same_different","","null","task_switching","null","training","<div style=""color:darkgreen; font-size:60px"">Well done!</div>","symbolcue_switch","","","","","","","","","","","","","","","","","","","","","","","","","","","","","","","","",""
"","","","","","survey-text","171","383429","0.0-171.0","A1RKGN3VY39TM1","2022-05-23T18:49:59.701Z","task_switching-phon_sim-rhyme-same_different","","1281.7999999523163","task_switching","{""symbolcue_switch_ans"":""33""}","training","36","symbolcue_switch","33","true","subtract","","5","-","","","","","","","","","","","","","","","","","","","","","","","","","","",""
"","","","","","html-keyboard-response","172","384433","0.0-172.0","A1RKGN3VY39TM1","2022-05-23T18:49:59.701Z","task_switching-phon_sim-rhyme-same_different","","null","task_switching","null","training","<div style=""color:darkgreen; font-size:60px"">Well done!</div>","symbolcue_switch","","","","","","","","","","","","","","","","","","","","","","","","","","","","","","","","",""
"","","","","","survey-text","173","385862","0.0-173.0","A1RKGN3VY39TM1","2022-05-23T18:49:59.701Z","task_switching-phon_sim-rhyme-same_different","","1424.7000000476837","task_switching","{""symbolcue_switch_ans"":""56""}","training","53","symbolcue_switch","56","true","add","","6","+","","","","","","","","","","","","","","","","","","","","","","","","","","",""
"","","","","","html-keyboard-response","174","386871","0.0-174.0","A1RKGN3VY39TM1","2022-05-23T18:49:59.701Z","task_switching-phon_sim-rhyme-same_different","","null","task_switching","null","training","<div style=""color:darkgreen; font-size:60px"">Well done!</div>","symbolcue_switch","","","","","","","","","","","","","","","","","","","","","","","","","","","","","","","","",""
"","","","","","survey-text","175","388104","0.0-175.0","A1RKGN3VY39TM1","2022-05-23T18:49:59.701Z","task_switching-phon_sim-rhyme-same_different","","1228.5","task_switching","{""symbolcue_switch_ans"":""41""}","training","44","symbolcue_switch","41","true","subtract","","7","-","","","","","","","","","","","","","","","","","","","","","","","","","","",""
"","","","","","html-keyboard-response","176","389121","0.0-176.0","A1RKGN3VY39TM1","2022-05-23T18:49:59.701Z","task_switching-phon_sim-rhyme-same_different","","null","task_switching","null","training","<div style=""color:darkgreen; font-size:60px"">Well done!</div>","symbolcue_switch","","","","","","","","","","","","","","","","","","","","","","","","","","","","","","","","",""
"","","","","","survey-text","177","390461","0.0-177.0","A1RKGN3VY39TM1","2022-05-23T18:49:59.701Z","task_switching-phon_sim-rhyme-same_different","","1335.4000000953674","task_switching","{""symbolcue_switch_ans"":""67""}","training","64","symbolcue_switch","67","true","add","","8","+","","","","","","","","","","","","","","","","","","","","","","","","","","",""
"","","","","","html-keyboard-response","178","391471","0.0-178.0","A1RKGN3VY39TM1","2022-05-23T18:49:59.701Z","task_switching-phon_sim-rhyme-same_different","","null","task_switching","null","training","<div style=""color:darkgreen; font-size:60px"">Well done!</div>","symbolcue_switch","","","","","","","","","","","","","","","","","","","","","","","","","","","","","","","","",""
"","","","","","survey-text","179","392746","0.0-179.0","A1RKGN3VY39TM1","2022-05-23T18:49:59.701Z","task_switching-phon_sim-rhyme-same_different","","1271","task_switching","{""symbolcue_switch_ans"":""21""}","training","24","symbolcue_switch","21","true","subtract","","9","-","","","","","","","","","","","","","","","","","","","","","","","","","","",""
"","","","","","html-keyboard-response","180","393756","0.0-180.0","A1RKGN3VY39TM1","2022-05-23T18:49:59.701Z","task_switching-phon_sim-rhyme-same_different","","null","task_switching","null","training","<div style=""color:darkgreen; font-size:60px"">Well done!</div>","symbolcue_switch","","","","","","","","","","","","","","","","","","","","","","","","","","","","","","","","",""
"","","","","","instructions","181","395476","0.0-181.0","A1RKGN3VY39TM1","2022-05-23T18:49:59.701Z","task_switching-phon_sim-rhyme-same_different","[{""page_index"":0,""viewing_time"":1719}]","1719.5999999046326","task_switching","","","","","","","","","","","","","","","","","","","","","","","","","","","","","","","","","","","","",""
"","","","","","survey-text","182","396926","0.0-182.0","A1RKGN3VY39TM1","2022-05-23T18:49:59.701Z","task_switching-phon_sim-rhyme-same_different","","1444.7999999523163","task_switching","{""symbolcue_switch_ans"":""55""}","experiment","52","symbolcue_switch","55","true","add","","0","+","","","","","","","","","","","","","","","","","","","","","","","","","","",""
"","","","","","survey-text","183","398593","0.0-183.0","A1RKGN3VY39TM1","2022-05-23T18:49:59.701Z","task_switching-phon_sim-rhyme-same_different","","1660.2000000476837","task_switching","{""symbolcue_switch_ans"":""84""}","experiment","87","symbolcue_switch","84","true","subtract","","1","-","","","","","","","","","","","","","","","","","","","","","","","","","","",""
"","","","","","survey-text","184","399773","0.0-184.0","A1RKGN3VY39TM1","2022-05-23T18:49:59.701Z","task_switching-phon_sim-rhyme-same_different","","1175.2999999523163","task_switching","{""symbolcue_switch_ans"":""99""}","experiment","96","symbolcue_switch","99","true","add","","2","+","","","","","","","","","","","","","","","","","","","","","","","","","","",""
"","","","","","survey-text","185","401016","0.0-185.0","A1RKGN3VY39TM1","2022-05-23T18:49:59.701Z","task_switching-phon_sim-rhyme-same_different","","1237.4000000953674","task_switching","{""symbolcue_switch_ans"":""54""}","experiment","57","symbolcue_switch","54","true","subtract","","3","-","","","","","","","","","","","","","","","","","","","","","","","","","","",""
"","","","","","survey-text","186","402717","0.0-186.0","A1RKGN3VY39TM1","2022-05-23T18:49:59.701Z","task_switching-phon_sim-rhyme-same_different","","1695.7000000476837","task_switching","{""symbolcue_switch_ans"":""95""}","experiment","92","symbolcue_switch","95","true","add","","4","+","","","","","","","","","","","","","","","","","","","","","","","","","","",""
"","","","","","survey-text","187","405172","0.0-187.0","A1RKGN3VY39TM1","2022-05-23T18:49:59.701Z","task_switching-phon_sim-rhyme-same_different","","2448","task_switching","{""symbolcue_switch_ans"":""88""}","experiment","91","symbolcue_switch","88","true","subtract","","5","-","","","","","","","","","","","","","","","","","","","","","","","","","","",""
"","","","","","survey-text","188","406685","0.0-188.0","A1RKGN3VY39TM1","2022-05-23T18:49:59.701Z","task_switching-phon_sim-rhyme-same_different","","1506.0999999046326","task_switching","{""symbolcue_switch_ans"":""86""}","experiment","83","symbolcue_switch","86","true","add","","6","+","","","","","","","","","","","","","","","","","","","","","","","","","","",""
"","","","","","survey-text","189","408113","0.0-189.0","A1RKGN3VY39TM1","2022-05-23T18:49:59.701Z","task_switching-phon_sim-rhyme-same_different","","1422.5999999046326","task_switching","{""symbolcue_switch_ans"":""74""}","experiment","77","symbolcue_switch","74","true","subtract","","7","-","","","","","","","","","","","","","","","","","","","","","","","","","","",""
"","","","","","survey-text","190","409740","0.0-190.0","A1RKGN3VY39TM1","2022-05-23T18:49:59.701Z","task_switching-phon_sim-rhyme-same_different","","1622.2999999523163","task_switching","{""symbolcue_switch_ans"":""17""}","experiment","14","symbolcue_switch","17","true","add","","8","+","","","","","","","","","","","","","","","","","","","","","","","","","","",""
"","","","","","survey-text","191","411254","0.0-191.0","A1RKGN3VY39TM1","2022-05-23T18:49:59.701Z","task_switching-phon_sim-rhyme-same_different","","1509.2999999523163","task_switching","{""symbolcue_switch_ans"":""43""}","experiment","46","symbolcue_switch","43","true","subtract","","9","-","","","","","","","","","","","","","","","","","","","","","","","","","","",""
"","","","","","survey-text","192","413429","0.0-192.0","A1RKGN3VY39TM1","2022-05-23T18:49:59.701Z","task_switching-phon_sim-rhyme-same_different","","2170","task_switching","{""symbolcue_switch_ans"":""68""}","experiment","65","symbolcue_switch","68","true","add","","10","+","","","","","","","","","","","","","","","","","","","","","","","","","","",""
"","","","","","survey-text","193","415306","0.0-193.0","A1RKGN3VY39TM1","2022-05-23T18:49:59.701Z","task_switching-phon_sim-rhyme-same_different","","1872.2000000476837","task_switching","{""symbolcue_switch_ans"":""56""}","experiment","59","symbolcue_switch","56","true","subtract","","11","-","","","","","","","","","","","","","","","","","","","","","","","","","","",""
"","","","","","survey-text","194","416626","0.0-194.0","A1RKGN3VY39TM1","2022-05-23T18:49:59.701Z","task_switching-phon_sim-rhyme-same_different","","1314.4000000953674","task_switching","{""symbolcue_switch_ans"":""77""}","experiment","74","symbolcue_switch","77","true","add","","12","+","","","","","","","","","","","","","","","","","","","","","","","","","","",""
"","","","","","survey-text","195","417911","0.0-195.0","A1RKGN3VY39TM1","2022-05-23T18:49:59.701Z","task_switching-phon_sim-rhyme-same_different","","1279.8999998569489","task_switching","{""symbolcue_switch_ans"":""53""}","experiment","56","symbolcue_switch","53","true","subtract","","13","-","","","","","","","","","","","","","","","","","","","","","","","","","","",""
"","","","","","survey-text","196","419757","0.0-196.0","A1RKGN3VY39TM1","2022-05-23T18:49:59.701Z","task_switching-phon_sim-rhyme-same_different","","1839.3999998569489","task_switching","{""symbolcue_switch_ans"":""47""}","experiment","44","symbolcue_switch","47","true","add","","14","+","","","","","","","","","","","","","","","","","","","","","","","","","","",""
"","","","","","survey-text","197","421503","0.0-197.0","A1RKGN3VY39TM1","2022-05-23T18:49:59.701Z","task_switching-phon_sim-rhyme-same_different","","1741.7000000476837","task_switching","{""symbolcue_switch_ans"":""85""}","experiment","88","symbolcue_switch","85","true","subtract","","15","-","","","","","","","","","","","","","","","","","","","","","","","","","","",""
"","","","","","survey-text","198","422861","0.0-198.0","A1RKGN3VY39TM1","2022-05-23T18:49:59.701Z","task_switching-phon_sim-rhyme-same_different","","1354","task_switching","{""symbolcue_switch_ans"":""30""}","experiment","27","symbolcue_switch","30","true","add","","16","+","","","","","","","","","","","","","","","","","","","","","","","","","","",""
"","","","","","survey-text","199","424177","0.0-199.0","A1RKGN3VY39TM1","2022-05-23T18:49:59.701Z","task_switching-phon_sim-rhyme-same_different","","1309.5","task_switching","{""symbolcue_switch_ans"":""14""}","experiment","17","symbolcue_switch","14","true","subtract","","17","-","","","","","","","","","","","","","","","","","","","","","","","","","","",""
"","","","","","survey-text","200","425535","0.0-200.0","A1RKGN3VY39TM1","2022-05-23T18:49:59.701Z","task_switching-phon_sim-rhyme-same_different","","1352.5","task_switching","{""symbolcue_switch_ans"":""87""}","experiment","84","symbolcue_switch","87","true","add","","18","+","","","","","","","","","","","","","","","","","","","","","","","","","","",""
"","","","","","survey-text","201","427463","0.0-201.0","A1RKGN3VY39TM1","2022-05-23T18:49:59.701Z","task_switching-phon_sim-rhyme-same_different","","1923","task_switching","{""symbolcue_switch_ans"":""59""}","experiment","62","symbolcue_switch","59","true","subtract","","19","-","","","","","","","","","","","","","","","","","","","","","","","","","","",""
"","","","","","survey-text","202","428993","0.0-202.0","A1RKGN3VY39TM1","2022-05-23T18:49:59.701Z","task_switching-phon_sim-rhyme-same_different","","1523.8999998569489","task_switching","{""symbolcue_switch_ans"":""45""}","experiment","42","symbolcue_switch","45","true","add","","20","+","","","","","","","","","","","","","","","","","","","","","","","","","","",""
"","","","","","survey-text","203","431020","0.0-203.0","A1RKGN3VY39TM1","2022-05-23T18:49:59.701Z","task_switching-phon_sim-rhyme-same_different","","2020.9000000953674","task_switching","{""symbolcue_switch_ans"":""28""}","experiment","31","symbolcue_switch","28","true","subtract","","21","-","","","","","","","","","","","","","","","","","","","","","","","","","","",""
"","","","","","survey-text","204","432991","0.0-204.0","A1RKGN3VY39TM1","2022-05-23T18:49:59.701Z","task_switching-phon_sim-rhyme-same_different","","1966.0999999046326","task_switching","{""symbolcue_switch_ans"":""61""}","experiment","58","symbolcue_switch","61","true","add","","22","+","","","","","","","","","","","","","","","","","","","","","","","","","","",""
"","","","","","survey-text","205","434363","0.0-205.0","A1RKGN3VY39TM1","2022-05-23T18:49:59.701Z","task_switching-phon_sim-rhyme-same_different","","1363.7000000476837","task_switching","{""symbolcue_switch_ans"":""77""}","experiment","80","symbolcue_switch","77","true","subtract","","23","-","","","","","","","","","","","","","","","","","","","","","","","","","","",""
"","","","","","survey-text","206","435788","0.0-206.0","A1RKGN3VY39TM1","2022-05-23T18:49:59.701Z","task_switching-phon_sim-rhyme-same_different","","1417.7999999523163","task_switching","{""symbolcue_switch_ans"":""23""}","experiment","20","symbolcue_switch","23","true","add","","24","+","","","","","","","","","","","","","","","","","","","","","","","","","","",""
"","","","","","survey-text","207","439221","0.0-207.0","A1RKGN3VY39TM1","2022-05-23T18:49:59.701Z","task_switching-phon_sim-rhyme-same_different","","3426.2999999523163","task_switching","{""symbolcue_switch_ans"":""36""}","experiment","39","symbolcue_switch","36","true","subtract","","25","-","","","","","","","","","","","","","","","","","","","","","","","","","","",""
"","","","","","survey-text","208","440689","0.0-208.0","A1RKGN3VY39TM1","2022-05-23T18:49:59.701Z","task_switching-phon_sim-rhyme-same_different","","1460.0999999046326","task_switching","{""symbolcue_switch_ans"":""84""}","experiment","81","symbolcue_switch","84","true","add","","26","+","","","","","","","","","","","","","","","","","","","","","","","","","","",""
"","","","","","survey-text","209","442064","0.0-209.0","A1RKGN3VY39TM1","2022-05-23T18:49:59.701Z","task_switching-phon_sim-rhyme-same_different","","1367.9000000953674","task_switching","{""symbolcue_switch_ans"":""21""}","experiment","24","symbolcue_switch","21","true","subtract","","27","-","","","","","","","","","","","","","","","","","","","","","","","","","","",""
"","","","","","survey-text","210","443460","0.0-210.0","A1RKGN3VY39TM1","2022-05-23T18:49:59.701Z","task_switching-phon_sim-rhyme-same_different","","1390.4000000953674","task_switching","{""symbolcue_switch_ans"":""54""}","experiment","51","symbolcue_switch","54","true","add","","28","+","","","","","","","","","","","","","","","","","","","","","","","","","","",""
"","","","","","survey-text","211","444832","0.0-211.0","A1RKGN3VY39TM1","2022-05-23T18:49:59.701Z","task_switching-phon_sim-rhyme-same_different","","1367.2999999523163","task_switching","{""symbolcue_switch_ans"":""15""}","experiment","18","symbolcue_switch","15","true","subtract","","29","-","","","","","","","","","","","","","","","","","","","","","","","","","","",""
"","","","","","instructions","212","451924","0.0-212.0","A1RKGN3VY39TM1","2022-05-23T18:49:59.701Z","task_switching-phon_sim-rhyme-same_different","[{""page_index"":0,""viewing_time"":7090.200000047684}]","7090.700000047684","task_switching","","","","","","","","","","","","","","","","","","","","","","","","","","","","","","","","","","","","",""
"","","","","","survey-text","213","453944","0.0-213.0","A1RKGN3VY39TM1","2022-05-23T18:49:59.701Z","task_switching-phon_sim-rhyme-same_different","","2014.9000000953674","task_switching","{""uncued_switch_ans"":""19""}","training","16","uncued_switch","19","true","add","","0","","","","","","","","","","","","","","","","","","","","","","","","","","","",""
"","","","","","html-keyboard-response","214","454955","0.0-214.0","A1RKGN3VY39TM1","2022-05-23T18:49:59.701Z","task_switching-phon_sim-rhyme-same_different","","null","task_switching","null","training","<div style=""color:darkgreen; font-size:60px"">Well done!</div>","uncued_switch","","","","","","","","","","","","","","","","","","","","","","","","","","","","","","","","",""
"","","","","","survey-text","215","457534","0.0-215.0","A1RKGN3VY39TM1","2022-05-23T18:49:59.701Z","task_switching-phon_sim-rhyme-same_different","","2574.4000000953674","task_switching","{""uncued_switch_ans"":""53""}","training","56","uncued_switch","53","true","subtract","","1","","","","","","","","","","","","","","","","","","","","","","","","","","","",""
"","","","","","html-keyboard-response","216","458539","0.0-216.0","A1RKGN3VY39TM1","2022-05-23T18:49:59.701Z","task_switching-phon_sim-rhyme-same_different","","null","task_switching","null","training","<div style=""color:darkgreen; font-size:60px"">Well done!</div>","uncued_switch","","","","","","","","","","","","","","","","","","","","","","","","","","","","","","","","",""
"","","","","","survey-text","217","460690","0.0-217.0","A1RKGN3VY39TM1","2022-05-23T18:49:59.701Z","task_switching-phon_sim-rhyme-same_different","","2146.7000000476837","task_switching","{""uncued_switch_ans"":""27""}","training","24","uncued_switch","27","true","add","","2","","","","","","","","","","","","","","","","","","","","","","","","","","","",""
"","","","","","html-keyboard-response","218","461704","0.0-218.0","A1RKGN3VY39TM1","2022-05-23T18:49:59.701Z","task_switching-phon_sim-rhyme-same_different","","null","task_switching","null","training","<div style=""color:darkgreen; font-size:60px"">Well done!</div>","uncued_switch","","","","","","","","","","","","","","","","","","","","","","","","","","","","","","","","",""
"","","","","","survey-text","219","463350","0.0-219.0","A1RKGN3VY39TM1","2022-05-23T18:49:59.701Z","task_switching-phon_sim-rhyme-same_different","","1641.5","task_switching","{""uncued_switch_ans"":""72""}","training","75","uncued_switch","72","true","subtract","","3","","","","","","","","","","","","","","","","","","","","","","","","","","","",""
"","","","","","html-keyboard-response","220","464357","0.0-220.0","A1RKGN3VY39TM1","2022-05-23T18:49:59.701Z","task_switching-phon_sim-rhyme-same_different","","null","task_switching","null","training","<div style=""color:darkgreen; font-size:60px"">Well done!</div>","uncued_switch","","","","","","","","","","","","","","","","","","","","","","","","","","","","","","","","",""
"","","","","","survey-text","221","465955","0.0-221.0","A1RKGN3VY39TM1","2022-05-23T18:49:59.701Z","task_switching-phon_sim-rhyme-same_different","","1592.2000000476837","task_switching","{""uncued_switch_ans"":""35""}","training","38","uncued_switch","35","false","add","","4","","","","","","","","","","","","","","","","","","","","","","","","","","","",""
"","","","","","html-keyboard-response","222","470969","0.0-222.0","A1RKGN3VY39TM1","2022-05-23T18:49:59.701Z","task_switching-phon_sim-rhyme-same_different","","null","task_switching","null","training","<div style=""color:darkred; font-size:40px"">That was an <b>add</b> trial.<p> Correct answer: 41.</p><p> Next trial subtract 3.</p></div>","uncued_switch","","","","","","","","","","","","","","","","","","","","","","","","","","","","","","","","",""
"","","","","","survey-text","223","472842","0.0-223.0","A1RKGN3VY39TM1","2022-05-23T18:49:59.701Z","task_switching-phon_sim-rhyme-same_different","","1868.5999999046326","task_switching","{""uncued_switch_ans"":""36""}","training","39","uncued_switch","36","true","subtract","","5","","","","","","","","","","","","","","","","","","","","","","","","","","","",""
"","","","","","html-keyboard-response","224","473851","0.0-224.0","A1RKGN3VY39TM1","2022-05-23T18:49:59.701Z","task_switching-phon_sim-rhyme-same_different","","null","task_switching","null","training","<div style=""color:darkgreen; font-size:60px"">Well done!</div>","uncued_switch","","","","","","","","","","","","","","","","","","","","","","","","","","","","","","","","",""
"","","","","","survey-text","225","476816","0.0-225.0","A1RKGN3VY39TM1","2022-05-23T18:49:59.701Z","task_switching-phon_sim-rhyme-same_different","","2960.7999999523163","task_switching","{""uncued_switch_ans"":""90""}","training","87","uncued_switch","90","true","add","","6","","","","","","","","","","","","","","","","","","","","","","","","","","","",""
"","","","","","html-keyboard-response","226","477833","0.0-226.0","A1RKGN3VY39TM1","2022-05-23T18:49:59.701Z","task_switching-phon_sim-rhyme-same_different","","null","task_switching","null","training","<div style=""color:darkgreen; font-size:60px"">Well done!</div>","uncued_switch","","","","","","","","","","","","","","","","","","","","","","","","","","","","","","","","",""
"","","","","","survey-text","227","479382","0.0-227.0","A1RKGN3VY39TM1","2022-05-23T18:49:59.701Z","task_switching-phon_sim-rhyme-same_different","","1544.0999999046326","task_switching","{""uncued_switch_ans"":""82""}","training","85","uncued_switch","82","true","subtract","","7","","","","","","","","","","","","","","","","","","","","","","","","","","","",""
"","","","","","html-keyboard-response","228","480399","0.0-228.0","A1RKGN3VY39TM1","2022-05-23T18:49:59.701Z","task_switching-phon_sim-rhyme-same_different","","null","task_switching","null","training","<div style=""color:darkgreen; font-size:60px"">Well done!</div>","uncued_switch","","","","","","","","","","","","","","","","","","","","","","","","","","","","","","","","",""
"","","","","","survey-text","229","482609","0.0-229.0","A1RKGN3VY39TM1","2022-05-23T18:49:59.701Z","task_switching-phon_sim-rhyme-same_different","","2203.399999856949","task_switching","{""uncued_switch_ans"":""42""}","training","45","uncued_switch","42","false","add","","8","","","","","","","","","","","","","","","","","","","","","","","","","","","",""
"","","","","","html-keyboard-response","230","487618","0.0-230.0","A1RKGN3VY39TM1","2022-05-23T18:49:59.701Z","task_switching-phon_sim-rhyme-same_different","","null","task_switching","null","training","<div style=""color:darkred; font-size:40px"">That was an <b>add</b> trial.<p> Correct answer: 48.</p><p> Next trial subtract 3.</p></div>","uncued_switch","","","","","","","","","","","","","","","","","","","","","","","","","","","","","","","","",""
"","","","","","survey-text","231","491777","0.0-231.0","A1RKGN3VY39TM1","2022-05-23T18:49:59.701Z","task_switching-phon_sim-rhyme-same_different","","4154.799999952316","task_switching","{""uncued_switch_ans"":""14""}","training","17","uncued_switch","14","true","subtract","","9","","","","","","","","","","","","","","","","","","","","","","","","","","","",""
"","","","","","html-keyboard-response","232","492781","0.0-232.0","A1RKGN3VY39TM1","2022-05-23T18:49:59.701Z","task_switching-phon_sim-rhyme-same_different","","null","task_switching","null","training","<div style=""color:darkgreen; font-size:60px"">Well done!</div>","uncued_switch","","","","","","","","","","","","","","","","","","","","","","","","","","","","","","","","",""
"","","","","","instructions","233","496547","0.0-233.0","A1RKGN3VY39TM1","2022-05-23T18:49:59.701Z","task_switching-phon_sim-rhyme-same_different","[{""page_index"":0,""viewing_time"":3764.7999999523163}]","3765.2999999523163","task_switching","","","","","","","","","","","","","","","","","","","","","","","","","","","","","","","","","","","","",""
"","","","","","survey-text","234","498680","0.0-234.0","A1RKGN3VY39TM1","2022-05-23T18:49:59.701Z","task_switching-phon_sim-rhyme-same_different","","2128.2999999523163","task_switching","{""uncued_switch_ans"":""37""}","experiment","34","uncued_switch","37","true","add","","0","","","","","","","","","","","","","","","","","","","","","","","","","","","",""
"","","","","","survey-text","235","500156","0.0-235.0","A1RKGN3VY39TM1","2022-05-23T18:49:59.701Z","task_switching-phon_sim-rhyme-same_different","","1469.8000001907349","task_switching","{""uncued_switch_ans"":""72""}","experiment","75","uncued_switch","72","true","subtract","","1","","","","","","","","","","","","","","","","","","","","","","","","","","","",""
"","","","","","survey-text","236","501341","0.0-236.0","A1RKGN3VY39TM1","2022-05-23T18:49:59.701Z","task_switching-phon_sim-rhyme-same_different","","1179.1000001430511","task_switching","{""uncued_switch_ans"":""17""}","experiment","14","uncued_switch","17","true","add","","2","","","","","","","","","","","","","","","","","","","","","","","","","","","",""
"","","","","","survey-text","237","503254","0.0-237.0","A1RKGN3VY39TM1","2022-05-23T18:49:59.701Z","task_switching-phon_sim-rhyme-same_different","","1906.5999999046326","task_switching","{""uncued_switch_ans"":""79""}","experiment","82","uncued_switch","79","true","subtract","","3","","","","","","","","","","","","","","","","","","","","","","","","","","","",""
"","","","","","survey-text","238","504714","0.0-238.0","A1RKGN3VY39TM1","2022-05-23T18:49:59.701Z","task_switching-phon_sim-rhyme-same_different","","1455.5","task_switching","{""uncued_switch_ans"":""51""}","experiment","48","uncued_switch","51","true","add","","4","","","","","","","","","","","","","","","","","","","","","","","","","","","",""
"","","","","","survey-text","239","509256","0.0-239.0","A1RKGN3VY39TM1","2022-05-23T18:49:59.701Z","task_switching-phon_sim-rhyme-same_different","","4536.099999904633","task_switching","{""uncued_switch_ans"":""65""}","experiment","62","uncued_switch","65","false","subtract","","5","","","","","","","","","","","","","","","","","","","","","","","","","","","",""
"","","","","","survey-text","240","511024","0.0-240.0","A1RKGN3VY39TM1","2022-05-23T18:49:59.701Z","task_switching-phon_sim-rhyme-same_different","","1762","task_switching","{""uncued_switch_ans"":""29""}","experiment","32","uncued_switch","29","false","add","","6","","","","","","","","","","","","","","","","","","","","","","","","","","","",""
"","","","","","survey-text","241","513305","0.0-241.0","A1RKGN3VY39TM1","2022-05-23T18:49:59.701Z","task_switching-phon_sim-rhyme-same_different","","2276","task_switching","{""uncued_switch_ans"":""40""}","experiment","37","uncued_switch","40","false","subtract","","7","","","","","","","","","","","","","","","","","","","","","","","","","","","",""
"","","","","","survey-text","242","514624","0.0-242.0","A1RKGN3VY39TM1","2022-05-23T18:49:59.701Z","task_switching-phon_sim-rhyme-same_different","","1313.2000000476837","task_switching","{""uncued_switch_ans"":""55""}","experiment","58","uncued_switch","55","false","add","","8","","","","","","","","","","","","","","","","","","","","","","","","","","","",""
"","","","","","survey-text","243","516283","0.0-243.0","A1RKGN3VY39TM1","2022-05-23T18:49:59.701Z","task_switching-phon_sim-rhyme-same_different","","1654.2000000476837","task_switching","{""uncued_switch_ans"":""58""}","experiment","55","uncued_switch","58","false","subtract","","9","","","","","","","","","","","","","","","","","","","","","","","","","","","",""
"","","","","","survey-text","244","518704","0.0-244.0","A1RKGN3VY39TM1","2022-05-23T18:49:59.701Z","task_switching-phon_sim-rhyme-same_different","","2414.0999999046326","task_switching","{""uncued_switch_ans"":""15""}","experiment","18","uncued_switch","15","false","add","","10","","","","","","","","","","","","","","","","","","","","","","","","","","","",""
"","","","","","survey-text","245","521205","0.0-245.0","A1RKGN3VY39TM1","2022-05-23T18:49:59.701Z","task_switching-phon_sim-rhyme-same_different","","2497","task_switching","{""uncued_switch_ans"":""89""}","experiment","86","uncued_switch","89","false","subtract","","11","","","","","","","","","","","","","","","","","","","","","","","","","","","",""
"","","","","","survey-text","246","522934","0.0-246.0","A1RKGN3VY39TM1","2022-05-23T18:49:59.701Z","task_switching-phon_sim-rhyme-same_different","","1724.5","task_switching","{""uncued_switch_ans"":""64""}","experiment","67","uncued_switch","64","false","add","","12","","","","","","","","","","","","","","","","","","","","","","","","","","","",""
"","","","","","survey-text","247","524965","0.0-247.0","A1RKGN3VY39TM1","2022-05-23T18:49:59.701Z","task_switching-phon_sim-rhyme-same_different","","2024","task_switching","{""uncued_switch_ans"":""99""}","experiment","96","uncued_switch","99","false","subtract","","13","","","","","","","","","","","","","","","","","","","","","","","","","","","",""
"","","","","","survey-text","248","529027","0.0-248.0","A1RKGN3VY39TM1","2022-05-23T18:49:59.701Z","task_switching-phon_sim-rhyme-same_different","","4055.699999809265","task_switching","{""uncued_switch_ans"":""85""}","experiment","88","uncued_switch","85","false","add","","14","","","","","","","","","","","","","","","","","","","","","","","","","","","",""
"","","","","","survey-text","249","531037","0.0-249.0","A1RKGN3VY39TM1","2022-05-23T18:49:59.701Z","task_switching-phon_sim-rhyme-same_different","","2003.7999999523163","task_switching","{""uncued_switch_ans"":""77""}","experiment","74","uncued_switch","77","false","subtract","","15","","","","","","","","","","","","","","","","","","","","","","","","","","","",""
"","","","","","survey-text","250","532606","0.0-250.0","A1RKGN3VY39TM1","2022-05-23T18:49:59.701Z","task_switching-phon_sim-rhyme-same_different","","1562.0999999046326","task_switching","{""uncued_switch_ans"":""42""}","experiment","45","uncued_switch","42","false","add","","16","","","","","","","","","","","","","","","","","","","","","","","","","","","",""
"","","","","","survey-text","251","534735","0.0-251.0","A1RKGN3VY39TM1","2022-05-23T18:49:59.701Z","task_switching-phon_sim-rhyme-same_different","","2122.7999999523163","task_switching","{""uncued_switch_ans"":""31""}","experiment","28","uncued_switch","31","false","subtract","","17","","","","","","","","","","","","","","","","","","","","","","","","","","","",""
"","","","","","survey-text","252","536884","0.0-252.0","A1RKGN3VY39TM1","2022-05-23T18:49:59.701Z","task_switching-phon_sim-rhyme-same_different","","2139.5","task_switching","{""uncued_switch_ans"":""14""}","experiment","17","uncued_switch","14","false","add","","18","","","","","","","","","","","","","","","","","","","","","","","","","","","",""
"","","","","","survey-text","253","538844","0.0-253.0","A1RKGN3VY39TM1","2022-05-23T18:49:59.701Z","task_switching-phon_sim-rhyme-same_different","","1953.9000000953674","task_switching","{""uncued_switch_ans"":""36""}","experiment","33","uncued_switch","36","false","subtract","","19","","","","","","","","","","","","","","","","","","","","","","","","","","","",""
"","","","","","survey-text","254","540758","0.0-254.0","A1RKGN3VY39TM1","2022-05-23T18:49:59.701Z","task_switching-phon_sim-rhyme-same_different","","1908.5999999046326","task_switching","{""uncued_switch_ans"":""10""}","experiment","13","uncued_switch","10","false","add","","20","","","","","","","","","","","","","","","","","","","","","","","","","","","",""
"","","","","","survey-text","255","542557","0.0-255.0","A1RKGN3VY39TM1","2022-05-23T18:49:59.701Z","task_switching-phon_sim-rhyme-same_different","","1793.2999999523163","task_switching","{""uncued_switch_ans"":""92""}","experiment","89","uncued_switch","92","false","subtract","","21","","","","","","","","","","","","","","","","","","","","","","","","","","","",""
"","","","","","survey-text","256","544431","0.0-256.0","A1RKGN3VY39TM1","2022-05-23T18:49:59.701Z","task_switching-phon_sim-rhyme-same_different","","1867.2000000476837","task_switching","{""uncued_switch_ans"":""28""}","experiment","31","uncued_switch","28","false","add","","22","","","","","","","","","","","","","","","","","","","","","","","","","","","",""
"","","","","","survey-text","257","546651","0.0-257.0","A1RKGN3VY39TM1","2022-05-23T18:49:59.701Z","task_switching-phon_sim-rhyme-same_different","","2214.5","task_switching","{""uncued_switch_ans"":""73""}","experiment","70","uncued_switch","73","false","subtract","","23","","","","","","","","","","","","","","","","","","","","","","","","","","","",""
"","","","","","survey-text","258","549090","0.0-258.0","A1RKGN3VY39TM1","2022-05-23T18:49:59.701Z","task_switching-phon_sim-rhyme-same_different","","2434.2999999523163","task_switching","{""uncued_switch_ans"":""32""}","experiment","35","uncued_switch","32","false","add","","24","","","","","","","","","","","","","","","","","","","","","","","","","","","",""
"","","","","","survey-text","259","550728","0.0-259.0","A1RKGN3VY39TM1","2022-05-23T18:49:59.701Z","task_switching-phon_sim-rhyme-same_different","","1633.4000000953674","task_switching","{""uncued_switch_ans"":""80""}","experiment","77","uncued_switch","80","false","subtract","","25","","","","","","","","","","","","","","","","","","","","","","","","","","","",""
"","","","","","survey-text","260","555561","0.0-260.0","A1RKGN3VY39TM1","2022-05-23T18:49:59.701Z","task_switching-phon_sim-rhyme-same_different","","4827.600000143051","task_switching","{""uncued_switch_ans"":""68""}","experiment","71","uncued_switch","68","false","add","","26","","","","","","","","","","","","","","","","","","","","","","","","","","","",""
"","","","","","survey-text","261","557335","0.0-261.0","A1RKGN3VY39TM1","2022-05-23T18:49:59.701Z","task_switching-phon_sim-rhyme-same_different","","1767.6999998092651","task_switching","{""uncued_switch_ans"":""50""}","experiment","47","uncued_switch","50","false","subtract","","27","","","","","","","","","","","","","","","","","","","","","","","","","","","",""
"","","","","","survey-text","262","559046","0.0-262.0","A1RKGN3VY39TM1","2022-05-23T18:49:59.701Z","task_switching-phon_sim-rhyme-same_different","","1704.5","task_switching","{""uncued_switch_ans"":""17""}","experiment","20","uncued_switch","17","false","add","","28","","","","","","","","","","","","","","","","","","","","","","","","","","","",""
"","","","","","survey-text","263","561525","0.0-263.0","A1RKGN3VY39TM1","2022-05-23T18:49:59.701Z","task_switching-phon_sim-rhyme-same_different","","2473.5999999046326","task_switching","{""uncued_switch_ans"":""59""}","experiment","56","uncued_switch","59","false","subtract","","29","","","","","","","","","","","","","","","","","","","","","","","","","","","",""
"","","","","","survey-multi-choice","264","564124","0.0-264.0","A1RKGN3VY39TM1","2022-05-23T18:49:59.701Z","task_switching-phon_sim-rhyme-same_different","","2595.5999999046326","task_switching","{""Q0"":""No""}","","","","","","","","","","[0]","No","","","","","","","","","","","","","","","","","","","","","","","","",""
"","","","","","survey-text","265","586076","0.0-265.0","A1RKGN3VY39TM1","2022-05-23T18:49:59.701Z","task_switching-phon_sim-rhyme-same_different","","21942.39999985695","task_switching","{""Q0"":""I just tried my best, the last set of trials was the hardest by far. ""}","","","","","","","","","","","","I just tried my best, the last set of trials was the hardest by far. ","","","","","","","","","","","","","","","","","","","","","","","",""
"","","","","","instructions","266","587608","0.0-266.0","A1RKGN3VY39TM1","2022-05-23T18:49:59.701Z","task_switching-phon_sim-rhyme-same_different","[{""page_index"":0,""viewing_time"":1528.1000001430511}]","1528.5","task_switching","","","","","","","","","","","","","","","","","","","","","","","","","","","","","","","","","","","","",""
"","","","","","instructions","267","594455","0.0-267.0","A1RKGN3VY39TM1","2022-05-23T18:49:59.701Z","task_switching-phon_sim-rhyme-same_different","[{""page_index"":0,""viewing_time"":6845.5}]","6846","phon_sim","","","","","","","","","","","","","","","","","","","","","","","","","","","","","","","","","","","","",""
"","","","","","html-keyboard-response","268","607470","0.0-268.0-0.0","A1RKGN3VY39TM1","2022-05-23T18:49:59.701Z","task_switching-phon_sim-rhyme-same_different","","null","phon_sim","null","training","<div style=""display:grid""><h1 id=""word_1"" style=""grid-column:1; grid-row:1"">mad</h1><h1 id=""word_2"" style=""visibility:hidden;grid-column:1; grid-row:1"">man</h1><h1 id=""word_3"" style=""visibility:hidden;grid-column:1; grid-row:1"">map</h1><h1 id=""word_4"" style=""visibility:hidden;grid-column:1; grid-row:1"">mat</h1><h1 id=""word_5"" style=""visibility:hidden;grid-column:1; grid-row:1"">max</h1></div>","","","","","","","","","","","mad","man","map","mat","max","training","","","","","","","","","","","","","","","","","",""
