"success","timeout","failed_images","failed_audio","failed_video","trial_type","trial_index","time_elapsed","internal_node_id","worker_id","start_time","experiment_order","view_history","rt","experiment","stimulus","response","phase","word_1","word_2","word_3","word_4","word_5","original_word_set","response_1","response_2","response_3","response_4","response_5","question_order","talk_out_loud","strategy_free_ans","judgment_type","stim_1","stim_2","inverted","answer","true_neg","correct","true_pos","false_pos","false_neg","condition","operation","color_cue","trial_no","symbol_cue","wait_time","image_1","image_2","cor_key","type"
"true","false","[]","[]","[]","preload","0","9015","0.0-0.0","A2PUL3ZDXOW0VZ","2022-05-18T17:46:57.178Z","phon_sim-same_different-task_switching-rhyme","","","","","","","","","","","","","","","","","","","","","","","","","","","","","","","","","","","","","","","",""
"","","","","","instructions","1","51910","0.0-1.0","A2PUL3ZDXOW0VZ","2022-05-18T17:46:57.178Z","phon_sim-same_different-task_switching-rhyme","[{""page_index"":0,""viewing_time"":42893.09999996424}]","42893.299999952316","","","","","","","","","","","","","","","","","","","","","","","","","","","","","","","","","","","","","",""
"true","","","","","fullscreen","2","61061","0.0-2.0","A2PUL3ZDXOW0VZ","2022-05-18T17:46:57.178Z","phon_sim-same_different-task_switching-rhyme","","","","","","","","","","","","","","","","","","","","","","","","","","","","","","","","","","","","","","","",""
"","","","","","instructions","3","210231","0.0-3.0","A2PUL3ZDXOW0VZ","2022-05-18T17:46:57.178Z","phon_sim-same_different-task_switching-rhyme","[{""page_index"":0,""viewing_time"":149167.69999998808}]","149168","phon_sim","","","","","","","","","","","","","","","","","","","","","","","","","","","","","","","","","","","","",""
"","","","","","html-keyboard-response","4","223244","0.0-4.0-0.0","A2PUL3ZDXOW0VZ","2022-05-18T17:46:57.178Z","phon_sim-same_different-task_switching-rhyme","","null","phon_sim","<div style=""display:grid""><h1 id=""word_1"" style=""grid-column:1; grid-row:1"">mad</h1><h1 id=""word_2"" style=""visibility:hidden;grid-column:1; grid-row:1"">man</h1><h1 id=""word_3"" style=""visibility:hidden;grid-column:1; grid-row:1"">map</h1><h1 id=""word_4"" style=""visibility:hidden;grid-column:1; grid-row:1"">mat</h1><h1 id=""word_5"" style=""visibility:hidden;grid-column:1; grid-row:1"">max</h1></div>","null","training","mad","man","map","mat","max","training","","","","","","","","","","","","","","","","","","","","","","","","","","","",""
"","","","","","survey-text","5","297977","0.0-4.0-1.0","A2PUL3ZDXOW0VZ","2022-05-18T17:46:57.178Z","phon_sim-same_different-task_switching-rhyme","","74726.70000004768","phon_sim","","{""position_1"":""mad"",""position_2"":""man"",""position_3"":""map"",""position_4"":""mat"",""position_5"":""max""}","training","","","","","","","mad","man","map","mat","max","","","","","","","","","","","","","","","","","","","","","","",""
"","","","","","html-keyboard-response","6","302998","0.0-4.0-2.0","A2PUL3ZDXOW0VZ","2022-05-18T17:46:57.178Z","phon_sim-same_different-task_switching-rhyme","","null","phon_sim","<h1 id=""word_1"">mad</h1><h1 id=""word_2"">man</h1><h1 id=""word_3"">map</h1><h1 id=""word_4"">mat</h1><h1 id=""word_5"">max</h1>","null","","","","","","","","","","","","","","","","","","","","","","","","","","","","","","","","","","",""
"","","","","","html-keyboard-response","7","316005","0.0-4.0-0.1","A2PUL3ZDXOW0VZ","2022-05-18T17:46:57.178Z","phon_sim-same_different-task_switching-rhyme","","null","phon_sim","<div style=""display:grid""><h1 id=""word_1"" style=""grid-column:1; grid-row:1"">pen</h1><h1 id=""word_2"" style=""visibility:hidden;grid-column:1; grid-row:1"">rig</h1><h1 id=""word_3"" style=""visibility:hidden;grid-column:1; grid-row:1"">day</h1><h1 id=""word_4"" style=""visibility:hidden;grid-column:1; grid-row:1"">bar</h1><h1 id=""word_5"" style=""visibility:hidden;grid-column:1; grid-row:1"">cow</h1></div>","null","training","pen","rig","day","bar","cow","training","","","","","","","","","","","","","","","","","","","","","","","","","","","",""
"","","","","","survey-text","8","344388","0.0-4.0-1.1","A2PUL3ZDXOW0VZ","2022-05-18T17:46:57.178Z","phon_sim-same_different-task_switching-rhyme","","28379.69999998808","phon_sim","","{""position_1"":""pen"",""position_2"":""day"",""position_3"":""cow"",""position_4"":"""",""position_5"":""""}","training","","","","","","","pen","day","cow","","","","","","","","","","","","","","","","","","","","","","","","",""
"","","","","","html-keyboard-response","9","349398","0.0-4.0-2.1","A2PUL3ZDXOW0VZ","2022-05-18T17:46:57.178Z","phon_sim-same_different-task_switching-rhyme","","null","phon_sim","<h1 id=""word_1"">pen</h1><h1 id=""word_2"">rig</h1><h1 id=""word_3"">day</h1><h1 id=""word_4"">bar</h1><h1 id=""word_5"">cow</h1>","null","","","","","","","","","","","","","","","","","","","","","","","","","","","","","","","","","","",""
"","","","","","instructions","10","356226","0.0-5.0","A2PUL3ZDXOW0VZ","2022-05-18T17:46:57.178Z","phon_sim-same_different-task_switching-rhyme","[{""page_index"":0,""viewing_time"":6827.199999988079}]","6827.600000023842","","","","","","","","","","","","","","","","","","","","","","","","","","","","","","","","","","","","","",""
"","","","","","html-keyboard-response","11","369243","0.0-6.0-0.0","A2PUL3ZDXOW0VZ","2022-05-18T17:46:57.178Z","phon_sim-same_different-task_switching-rhyme","","null","phon_sim","<div style=""display:grid""><h1 id=""word_1"" style=""grid-column:1; grid-row:1"">board</h1><h1 id=""word_2"" style=""visibility:hidden;grid-column:1; grid-row:1"">row</h1><h1 id=""word_3"" style=""visibility:hidden;grid-column:1; grid-row:1"">sleigh</h1><h1 id=""word_4"" style=""visibility:hidden;grid-column:1; grid-row:1"">plea</h1><h1 id=""word_5"" style=""visibility:hidden;grid-column:1; grid-row:1"">friend</h1></div>","null","experiment","board","row","sleigh","plea","friend","controlSet","","","","","","","","","","","","","","","","","","","","","","","","","","","",""
"","","","","","survey-text","12","417591","0.0-6.0-1.0","A2PUL3ZDXOW0VZ","2022-05-18T17:46:57.178Z","phon_sim-same_different-task_switching-rhyme","","48342","phon_sim","","{""position_1"":""board"",""position_2"":""row"",""position_3"":""sleigh"",""position_4"":""play"",""position_5"":""friend""}","experiment","","","","","","","board","row","sleigh","play","friend","","","","","","","","","","","","","","","","","","","","","","",""
"","","","","","html-keyboard-response","13","430608","0.0-6.0-0.1","A2PUL3ZDXOW0VZ","2022-05-18T17:46:57.178Z","phon_sim-same_different-task_switching-rhyme","","null","phon_sim","<div style=""display:grid""><h1 id=""word_1"" style=""grid-column:1; grid-row:1"">friend</h1><h1 id=""word_2"" style=""visibility:hidden;grid-column:1; grid-row:1"">sleigh</h1><h1 id=""word_3"" style=""visibility:hidden;grid-column:1; grid-row:1"">row</h1><h1 id=""word_4"" style=""visibility:hidden;grid-column:1; grid-row:1"">board</h1><h1 id=""word_5"" style=""visibility:hidden;grid-column:1; grid-row:1"">plea</h1></div>","null","experiment","friend","sleigh","row","board","plea","controlSet","","","","","","","","","","","","","","","","","","","","","","","","","","","",""
"","","","","","survey-text","14","499058","0.0-6.0-1.1","A2PUL3ZDXOW0VZ","2022-05-18T17:46:57.178Z","phon_sim-same_different-task_switching-rhyme","","68443.30000001192","phon_sim","","{""position_1"":""friend"",""position_2"":""row"",""position_3"":""sleigh"",""position_4"":""plea"",""position_5"":""bored""}","experiment","","","","","","","friend","row","sleigh","plea","bored","","","","","","","","","","","","","","","","","","","","","","",""
"","","","","","html-keyboard-response","15","512067","0.0-6.0-0.2","A2PUL3ZDXOW0VZ","2022-05-18T17:46:57.178Z","phon_sim-same_different-task_switching-rhyme","","null","phon_sim","<div style=""display:grid""><h1 id=""word_1"" style=""grid-column:1; grid-row:1"">wart</h1><h1 id=""word_2"" style=""visibility:hidden;grid-column:1; grid-row:1"">bought</h1><h1 id=""word_3"" style=""visibility:hidden;grid-column:1; grid-row:1"">caught</h1><h1 id=""word_4"" style=""visibility:hidden;grid-column:1; grid-row:1"">taut</h1><h1 id=""word_5"" style=""visibility:hidden;grid-column:1; grid-row:1"">sort</h1></div>","null","experiment","wart","bought","caught","taut","sort","phonSet","","","","","","","","","","","","","","","","","","","","","","","","","","","",""
"","","","","","survey-text","16","571177","0.0-6.0-1.2","A2PUL3ZDXOW0VZ","2022-05-18T17:46:57.178Z","phon_sim-same_different-task_switching-rhyme","","59105.89999997616","phon_sim","","{""position_1"":""wart"",""position_2"":""bought"",""position_3"":""taught"",""position_4"":""sort"",""position_5"":""""}","experiment","","","","","","","wart","bought","taught","sort","","","","","","","","","","","","","","","","","","","","","","","",""
"","","","","","html-keyboard-response","17","584182","0.0-6.0-0.3","A2PUL3ZDXOW0VZ","2022-05-18T17:46:57.178Z","phon_sim-same_different-task_switching-rhyme","","null","phon_sim","<div style=""display:grid""><h1 id=""word_1"" style=""grid-column:1; grid-row:1"">taut</h1><h1 id=""word_2"" style=""visibility:hidden;grid-column:1; grid-row:1"">caught</h1><h1 id=""word_3"" style=""visibility:hidden;grid-column:1; grid-row:1"">wart</h1><h1 id=""word_4"" style=""visibility:hidden;grid-column:1; grid-row:1"">sort</h1><h1 id=""word_5"" style=""visibility:hidden;grid-column:1; grid-row:1"">bought</h1></div>","null","experiment","taut","caught","wart","sort","bought","phonSet","","","","","","","","","","","","","","","","","","","","","","","","","","","",""
"","","","","","survey-text","18","639627","0.0-6.0-1.3","A2PUL3ZDXOW0VZ","2022-05-18T17:46:57.178Z","phon_sim-same_different-task_switching-rhyme","","55440.80000001192","phon_sim","","{""position_1"":""taut"",""position_2"":""caught"",""position_3"":""wart"",""position_4"":""sort"",""position_5"":""bought""}","experiment","","","","","","","taut","caught","wart","sort","bought","","","","","","","","","","","","","","","","","","","","","","",""
"","","","","","html-keyboard-response","19","652632","0.0-6.0-0.4","A2PUL3ZDXOW0VZ","2022-05-18T17:46:57.178Z","phon_sim-same_different-task_switching-rhyme","","null","phon_sim","<div style=""display:grid""><h1 id=""word_1"" style=""grid-column:1; grid-row:1"">through</h1><h1 id=""word_2"" style=""visibility:hidden;grid-column:1; grid-row:1"">rough</h1><h1 id=""word_3"" style=""visibility:hidden;grid-column:1; grid-row:1"">cough</h1><h1 id=""word_4"" style=""visibility:hidden;grid-column:1; grid-row:1"">bough</h1><h1 id=""word_5"" style=""visibility:hidden;grid-column:1; grid-row:1"">dough</h1></div>","null","experiment","through","rough","cough","bough","dough","orthoSet","","","","","","","","","","","","","","","","","","","","","","","","","","","",""
"","","","","","survey-text","20","719720","0.0-6.0-1.4","A2PUL3ZDXOW0VZ","2022-05-18T17:46:57.178Z","phon_sim-same_different-task_switching-rhyme","","67084.5","phon_sim","","{""position_1"":""through"",""position_2"":""rough"",""position_3"":""cough"",""position_4"":""bough"",""position_5"":""dough""}","experiment","","","","","","","through","rough","cough","bough","dough","","","","","","","","","","","","","","","","","","","","","","",""
"","","","","","html-keyboard-response","21","732724","0.0-6.0-0.5","A2PUL3ZDXOW0VZ","2022-05-18T17:46:57.178Z","phon_sim-same_different-task_switching-rhyme","","null","phon_sim","<div style=""display:grid""><h1 id=""word_1"" style=""grid-column:1; grid-row:1"">sleigh</h1><h1 id=""word_2"" style=""visibility:hidden;grid-column:1; grid-row:1"">plea</h1><h1 id=""word_3"" style=""visibility:hidden;grid-column:1; grid-row:1"">row</h1><h1 id=""word_4"" style=""visibility:hidden;grid-column:1; grid-row:1"">friend</h1><h1 id=""word_5"" style=""visibility:hidden;grid-column:1; grid-row:1"">board</h1></div>","null","experiment","sleigh","plea","row","friend","board","controlSet","","","","","","","","","","","","","","","","","","","","","","","","","","","",""
"","","","","","survey-text","22","786349","0.0-6.0-1.5","A2PUL3ZDXOW0VZ","2022-05-18T17:46:57.178Z","phon_sim-same_different-task_switching-rhyme","","53622","phon_sim","","{""position_1"":""sleigh"",""position_2"":""plea"",""position_3"":""row"",""position_4"":""friend"",""position_5"":""board""}","experiment","","","","","","","sleigh","plea","row","friend","board","","","","","","","","","","","","","","","","","","","","","","",""
"","","","","","html-keyboard-response","23","799362","0.0-6.0-0.6","A2PUL3ZDXOW0VZ","2022-05-18T17:46:57.178Z","phon_sim-same_different-task_switching-rhyme","","null","phon_sim","<div style=""display:grid""><h1 id=""word_1"" style=""grid-column:1; grid-row:1"">plea</h1><h1 id=""word_2"" style=""visibility:hidden;grid-column:1; grid-row:1"">row</h1><h1 id=""word_3"" style=""visibility:hidden;grid-column:1; grid-row:1"">board</h1><h1 id=""word_4"" style=""visibility:hidden;grid-column:1; grid-row:1"">sleigh</h1><h1 id=""word_5"" style=""visibility:hidden;grid-column:1; grid-row:1"">friend</h1></div>","null","experiment","plea","row","board","sleigh","friend","controlSet","","","","","","","","","","","","","","","","","","","","","","","","","","","",""
"","","","","","survey-text","24","860887","0.0-6.0-1.6","A2PUL3ZDXOW0VZ","2022-05-18T17:46:57.178Z","phon_sim-same_different-task_switching-rhyme","","61520.700000047684","phon_sim","","{""position_1"":""plea"",""position_2"":""row"",""position_3"":""board"",""position_4"":""sleigh"",""position_5"":""friend""}","experiment","","","","","","","plea","row","board","sleigh","friend","","","","","","","","","","","","","","","","","","","","","","",""
"","","","","","html-keyboard-response","25","873897","0.0-6.0-0.7","A2PUL3ZDXOW0VZ","2022-05-18T17:46:57.178Z","phon_sim-same_different-task_switching-rhyme","","null","phon_sim","<div style=""display:grid""><h1 id=""word_1"" style=""grid-column:1; grid-row:1"">sleigh</h1><h1 id=""word_2"" style=""visibility:hidden;grid-column:1; grid-row:1"">friend</h1><h1 id=""word_3"" style=""visibility:hidden;grid-column:1; grid-row:1"">board</h1><h1 id=""word_4"" style=""visibility:hidden;grid-column:1; grid-row:1"">plea</h1><h1 id=""word_5"" style=""visibility:hidden;grid-column:1; grid-row:1"">row</h1></div>","null","experiment","sleigh","friend","board","plea","row","controlSet","","","","","","","","","","","","","","","","","","","","","","","","","","","",""
"","","","","","survey-text","26","940765","0.0-6.0-1.7","A2PUL3ZDXOW0VZ","2022-05-18T17:46:57.178Z","phon_sim-same_different-task_switching-rhyme","","66864.60000002384","phon_sim","","{""position_1"":""sleigh"",""position_2"":""friend"",""position_3"":""board"",""position_4"":""plea"",""position_5"":""row""}","experiment","","","","","","","sleigh","friend","board","plea","row","","","","","","","","","","","","","","","","","","","","","","",""
"","","","","","html-keyboard-response","27","953775","0.0-6.0-0.8","A2PUL3ZDXOW0VZ","2022-05-18T17:46:57.178Z","phon_sim-same_different-task_switching-rhyme","","null","phon_sim","<div style=""display:grid""><h1 id=""word_1"" style=""grid-column:1; grid-row:1"">board</h1><h1 id=""word_2"" style=""visibility:hidden;grid-column:1; grid-row:1"">sleigh</h1><h1 id=""word_3"" style=""visibility:hidden;grid-column:1; grid-row:1"">row</h1><h1 id=""word_4"" style=""visibility:hidden;grid-column:1; grid-row:1"">friend</h1><h1 id=""word_5"" style=""visibility:hidden;grid-column:1; grid-row:1"">plea</h1></div>","null","experiment","board","sleigh","row","friend","plea","controlSet","","","","","","","","","","","","","","","","","","","","","","","","","","","",""
"","","","","","survey-text","28","1020277","0.0-6.0-1.8","A2PUL3ZDXOW0VZ","2022-05-18T17:46:57.178Z","phon_sim-same_different-task_switching-rhyme","","66498.10000002384","phon_sim","","{""position_1"":""board"",""position_2"":""sleigh"",""position_3"":""row"",""position_4"":""friend"",""position_5"":""plea""}","experiment","","","","","","","board","sleigh","row","friend","plea","","","","","","","","","","","","","","","","","","","","","","",""
"","","","","","html-keyboard-response","29","1033284","0.0-6.0-0.9","A2PUL3ZDXOW0VZ","2022-05-18T17:46:57.178Z","phon_sim-same_different-task_switching-rhyme","","null","phon_sim","<div style=""display:grid""><h1 id=""word_1"" style=""grid-column:1; grid-row:1"">sort</h1><h1 id=""word_2"" style=""visibility:hidden;grid-column:1; grid-row:1"">bought</h1><h1 id=""word_3"" style=""visibility:hidden;grid-column:1; grid-row:1"">wart</h1><h1 id=""word_4"" style=""visibility:hidden;grid-column:1; grid-row:1"">taut</h1><h1 id=""word_5"" style=""visibility:hidden;grid-column:1; grid-row:1"">caught</h1></div>","null","experiment","sort","bought","wart","taut","caught","phonSet","","","","","","","","","","","","","","","","","","","","","","","","","","","",""
"","","","","","survey-text","30","1094960","0.0-6.0-1.9","A2PUL3ZDXOW0VZ","2022-05-18T17:46:57.178Z","phon_sim-same_different-task_switching-rhyme","","61673","phon_sim","","{""position_1"":""sort"",""position_2"":""bought"",""position_3"":""caught"",""position_4"":""taut"",""position_5"":""""}","experiment","","","","","","","sort","bought","caught","taut","","","","","","","","","","","","","","","","","","","","","","","",""
"","","","","","html-keyboard-response","31","1107963","0.0-6.0-0.10","A2PUL3ZDXOW0VZ","2022-05-18T17:46:57.178Z","phon_sim-same_different-task_switching-rhyme","","null","phon_sim","<div style=""display:grid""><h1 id=""word_1"" style=""grid-column:1; grid-row:1"">bought</h1><h1 id=""word_2"" style=""visibility:hidden;grid-column:1; grid-row:1"">taut</h1><h1 id=""word_3"" style=""visibility:hidden;grid-column:1; grid-row:1"">caught</h1><h1 id=""word_4"" style=""visibility:hidden;grid-column:1; grid-row:1"">sort</h1><h1 id=""word_5"" style=""visibility:hidden;grid-column:1; grid-row:1"">wart</h1></div>","null","experiment","bought","taut","caught","sort","wart","phonSet","","","","","","","","","","","","","","","","","","","","","","","","","","","",""
"","","","","","survey-text","32","1158534","0.0-6.0-1.10","A2PUL3ZDXOW0VZ","2022-05-18T17:46:57.178Z","phon_sim-same_different-task_switching-rhyme","","50567.19999998808","phon_sim","","{""position_1"":""bought"",""position_2"":""taught"",""position_3"":""caught"",""position_4"":""wort"",""position_5"":""sort""}","experiment","","","","","","","bought","taught","caught","wort","sort","","","","","","","","","","","","","","","","","","","","","","",""
"","","","","","html-keyboard-response","33","1171547","0.0-6.0-0.11","A2PUL3ZDXOW0VZ","2022-05-18T17:46:57.178Z","phon_sim-same_different-task_switching-rhyme","","null","phon_sim","<div style=""display:grid""><h1 id=""word_1"" style=""grid-column:1; grid-row:1"">cough</h1><h1 id=""word_2"" style=""visibility:hidden;grid-column:1; grid-row:1"">bough</h1><h1 id=""word_3"" style=""visibility:hidden;grid-column:1; grid-row:1"">rough</h1><h1 id=""word_4"" style=""visibility:hidden;grid-column:1; grid-row:1"">through</h1><h1 id=""word_5"" style=""visibility:hidden;grid-column:1; grid-row:1"">dough</h1></div>","null","experiment","cough","bough","rough","through","dough","orthoSet","","","","","","","","","","","","","","","","","","","","","","","","","","","",""
"","","","","","survey-text","34","1246737","0.0-6.0-1.11","A2PUL3ZDXOW0VZ","2022-05-18T17:46:57.178Z","phon_sim-same_different-task_switching-rhyme","","75186.09999996424","phon_sim","","{""position_1"":""cough"",""position_2"":""bough"",""position_3"":""wart"",""position_4"":""through"",""position_5"":""dough""}","experiment","","","","","","","cough","bough","wart","through","dough","","","","","","","","","","","","","","","","","","","","","","",""
"","","","","","html-keyboard-response","35","1259750","0.0-6.0-0.12","A2PUL3ZDXOW0VZ","2022-05-18T17:46:57.178Z","phon_sim-same_different-task_switching-rhyme","","null","phon_sim","<div style=""display:grid""><h1 id=""word_1"" style=""grid-column:1; grid-row:1"">rough</h1><h1 id=""word_2"" style=""visibility:hidden;grid-column:1; grid-row:1"">bough</h1><h1 id=""word_3"" style=""visibility:hidden;grid-column:1; grid-row:1"">dough</h1><h1 id=""word_4"" style=""visibility:hidden;grid-column:1; grid-row:1"">through</h1><h1 id=""word_5"" style=""visibility:hidden;grid-column:1; grid-row:1"">cough</h1></div>","null","experiment","rough","bough","dough","through","cough","orthoSet","","","","","","","","","","","","","","","","","","","","","","","","","","","",""
"","","","","","survey-text","36","1333599","0.0-6.0-1.12","A2PUL3ZDXOW0VZ","2022-05-18T17:46:57.178Z","phon_sim-same_different-task_switching-rhyme","","73846","phon_sim","","{""position_1"":""bough"",""position_2"":""dough"",""position_3"":""through"",""position_4"":""cough"",""position_5"":""taut""}","experiment","","","","","","","bough","dough","through","cough","taut","","","","","","","","","","","","","","","","","","","","","","",""
"","","","","","html-keyboard-response","37","1346620","0.0-6.0-0.13","A2PUL3ZDXOW0VZ","2022-05-18T17:46:57.178Z","phon_sim-same_different-task_switching-rhyme","","null","phon_sim","<div style=""display:grid""><h1 id=""word_1"" style=""grid-column:1; grid-row:1"">bough</h1><h1 id=""word_2"" style=""visibility:hidden;grid-column:1; grid-row:1"">cough</h1><h1 id=""word_3"" style=""visibility:hidden;grid-column:1; grid-row:1"">rough</h1><h1 id=""word_4"" style=""visibility:hidden;grid-column:1; grid-row:1"">through</h1><h1 id=""word_5"" style=""visibility:hidden;grid-column:1; grid-row:1"">dough</h1></div>","null","experiment","bough","cough","rough","through","dough","orthoSet","","","","","","","","","","","","","","","","","","","","","","","","","","","",""
"","","","","","survey-text","38","1407291","0.0-6.0-1.13","A2PUL3ZDXOW0VZ","2022-05-18T17:46:57.178Z","phon_sim-same_different-task_switching-rhyme","","60667.799999952316","phon_sim","","{""position_1"":""bough"",""position_2"":""cough"",""position_3"":""rough"",""position_4"":""through"",""position_5"":""dough""}","experiment","","","","","","","bough","cough","rough","through","dough","","","","","","","","","","","","","","","","","","","","","","",""
"","","","","","html-keyboard-response","39","1420305","0.0-6.0-0.14","A2PUL3ZDXOW0VZ","2022-05-18T17:46:57.178Z","phon_sim-same_different-task_switching-rhyme","","null","phon_sim","<div style=""display:grid""><h1 id=""word_1"" style=""grid-column:1; grid-row:1"">rough</h1><h1 id=""word_2"" style=""visibility:hidden;grid-column:1; grid-row:1"">through</h1><h1 id=""word_3"" style=""visibility:hidden;grid-column:1; grid-row:1"">bough</h1><h1 id=""word_4"" style=""visibility:hidden;grid-column:1; grid-row:1"">dough</h1><h1 id=""word_5"" style=""visibility:hidden;grid-column:1; grid-row:1"">cough</h1></div>","null","experiment","rough","through","bough","dough","cough","orthoSet","","","","","","","","","","","","","","","","","","","","","","","","","","","",""
"","","","","","survey-text","40","1464252","0.0-6.0-1.14","A2PUL3ZDXOW0VZ","2022-05-18T17:46:57.178Z","phon_sim-same_different-task_switching-rhyme","","43944.39999997616","phon_sim","","{""position_1"":""rough"",""position_2"":""bough"",""position_3"":""through"",""position_4"":""dough"",""position_5"":""cough""}","experiment","","","","","","","rough","bough","through","dough","cough","","","","","","","","","","","","","","","","","","","","","","",""
"","","","","","html-keyboard-response","41","1477262","0.0-6.0-0.15","A2PUL3ZDXOW0VZ","2022-05-18T17:46:57.178Z","phon_sim-same_different-task_switching-rhyme","","null","phon_sim","<div style=""display:grid""><h1 id=""word_1"" style=""grid-column:1; grid-row:1"">sort</h1><h1 id=""word_2"" style=""visibility:hidden;grid-column:1; grid-row:1"">wart</h1><h1 id=""word_3"" style=""visibility:hidden;grid-column:1; grid-row:1"">taut</h1><h1 id=""word_4"" style=""visibility:hidden;grid-column:1; grid-row:1"">bought</h1><h1 id=""word_5"" style=""visibility:hidden;grid-column:1; grid-row:1"">caught</h1></div>","null","experiment","sort","wart","taut","bought","caught","phonSet","","","","","","","","","","","","","","","","","","","","","","","","","","","",""
"","","","","","survey-text","42","1521249","0.0-6.0-1.15","A2PUL3ZDXOW0VZ","2022-05-18T17:46:57.178Z","phon_sim-same_different-task_switching-rhyme","","43982.89999997616","phon_sim","","{""position_1"":""sort"",""position_2"":""wart"",""position_3"":""taut"",""position_4"":""bought"",""position_5"":""caught""}","experiment","","","","","","","sort","wart","taut","bought","caught","","","","","","","","","","","","","","","","","","","","","","",""
"","","","","","html-keyboard-response","43","1534260","0.0-6.0-0.16","A2PUL3ZDXOW0VZ","2022-05-18T17:46:57.178Z","phon_sim-same_different-task_switching-rhyme","","null","phon_sim","<div style=""display:grid""><h1 id=""word_1"" style=""grid-column:1; grid-row:1"">caught</h1><h1 id=""word_2"" style=""visibility:hidden;grid-column:1; grid-row:1"">wart</h1><h1 id=""word_3"" style=""visibility:hidden;grid-column:1; grid-row:1"">taut</h1><h1 id=""word_4"" style=""visibility:hidden;grid-column:1; grid-row:1"">sort</h1><h1 id=""word_5"" style=""visibility:hidden;grid-column:1; grid-row:1"">bought</h1></div>","null","experiment","caught","wart","taut","sort","bought","phonSet","","","","","","","","","","","","","","","","","","","","","","","","","","","",""
"","","","","","survey-text","44","1604163","0.0-6.0-1.16","A2PUL3ZDXOW0VZ","2022-05-18T17:46:57.178Z","phon_sim-same_different-task_switching-rhyme","","69900.39999997616","phon_sim","","{""position_1"":""caught"",""position_2"":""wart"",""position_3"":""bought"",""position_4"":""sort"",""position_5"":""taut""}","experiment","","","","","","","caught","wart","bought","sort","taut","","","","","","","","","","","","","","","","","","","","","","",""
"","","","","","html-keyboard-response","45","1617175","0.0-6.0-0.17","A2PUL3ZDXOW0VZ","2022-05-18T17:46:57.178Z","phon_sim-same_different-task_switching-rhyme","","null","phon_sim","<div style=""display:grid""><h1 id=""word_1"" style=""grid-column:1; grid-row:1"">board</h1><h1 id=""word_2"" style=""visibility:hidden;grid-column:1; grid-row:1"">sleigh</h1><h1 id=""word_3"" style=""visibility:hidden;grid-column:1; grid-row:1"">friend</h1><h1 id=""word_4"" style=""visibility:hidden;grid-column:1; grid-row:1"">plea</h1><h1 id=""word_5"" style=""visibility:hidden;grid-column:1; grid-row:1"">row</h1></div>","null","experiment","board","sleigh","friend","plea","row","controlSet","","","","","","","","","","","","","","","","","","","","","","","","","","","",""
"","","","","","survey-text","46","1677185","0.0-6.0-1.17","A2PUL3ZDXOW0VZ","2022-05-18T17:46:57.178Z","phon_sim-same_different-task_switching-rhyme","","60005.80000001192","phon_sim","","{""position_1"":""board"",""position_2"":""friend"",""position_3"":""sleigh"",""position_4"":""plea"",""position_5"":""row""}","experiment","","","","","","","board","friend","sleigh","plea","row","","","","","","","","","","","","","","","","","","","","","","",""
"","","","","","html-keyboard-response","47","1690199","0.0-6.0-0.18","A2PUL3ZDXOW0VZ","2022-05-18T17:46:57.178Z","phon_sim-same_different-task_switching-rhyme","","null","phon_sim","<div style=""display:grid""><h1 id=""word_1"" style=""grid-column:1; grid-row:1"">dough</h1><h1 id=""word_2"" style=""visibility:hidden;grid-column:1; grid-row:1"">through</h1><h1 id=""word_3"" style=""visibility:hidden;grid-column:1; grid-row:1"">rough</h1><h1 id=""word_4"" style=""visibility:hidden;grid-column:1; grid-row:1"">cough</h1><h1 id=""word_5"" style=""visibility:hidden;grid-column:1; grid-row:1"">bough</h1></div>","null","experiment","dough","through","rough","cough","bough","orthoSet","","","","","","","","","","","","","","","","","","","","","","","","","","","",""
"","","","","","survey-text","48","1742484","0.0-6.0-1.18","A2PUL3ZDXOW0VZ","2022-05-18T17:46:57.178Z","phon_sim-same_different-task_switching-rhyme","","52280.69999998808","phon_sim","","{""position_1"":""dough"",""position_2"":""through"",""position_3"":""rough"",""position_4"":""cough"",""position_5"":""bough""}","experiment","","","","","","","dough","through","rough","cough","bough","","","","","","","","","","","","","","","","","","","","","","",""
"","","","","","html-keyboard-response","49","1755489","0.0-6.0-0.19","A2PUL3ZDXOW0VZ","2022-05-18T17:46:57.178Z","phon_sim-same_different-task_switching-rhyme","","null","phon_sim","<div style=""display:grid""><h1 id=""word_1"" style=""grid-column:1; grid-row:1"">bought</h1><h1 id=""word_2"" style=""visibility:hidden;grid-column:1; grid-row:1"">taut</h1><h1 id=""word_3"" style=""visibility:hidden;grid-column:1; grid-row:1"">caught</h1><h1 id=""word_4"" style=""visibility:hidden;grid-column:1; grid-row:1"">wart</h1><h1 id=""word_5"" style=""visibility:hidden;grid-column:1; grid-row:1"">sort</h1></div>","null","experiment","bought","taut","caught","wart","sort","phonSet","","","","","","","","","","","","","","","","","","","","","","","","","","","",""
"","","","","","survey-text","50","1810241","0.0-6.0-1.19","A2PUL3ZDXOW0VZ","2022-05-18T17:46:57.178Z","phon_sim-same_different-task_switching-rhyme","","54746.09999996424","phon_sim","","{""position_1"":""taut"",""position_2"":""bought"",""position_3"":""caught"",""position_4"":""wart"",""position_5"":""sort""}","experiment","","","","","","","taut","bought","caught","wart","sort","","","","","","","","","","","","","","","","","","","","","","",""
"","","","","","html-keyboard-response","51","1823250","0.0-6.0-0.20","A2PUL3ZDXOW0VZ","2022-05-18T17:46:57.178Z","phon_sim-same_different-task_switching-rhyme","","null","phon_sim","<div style=""display:grid""><h1 id=""word_1"" style=""grid-column:1; grid-row:1"">friend</h1><h1 id=""word_2"" style=""visibility:hidden;grid-column:1; grid-row:1"">sleigh</h1><h1 id=""word_3"" style=""visibility:hidden;grid-column:1; grid-row:1"">plea</h1><h1 id=""word_4"" style=""visibility:hidden;grid-column:1; grid-row:1"">row</h1><h1 id=""word_5"" style=""visibility:hidden;grid-column:1; grid-row:1"">board</h1></div>","null","experiment","friend","sleigh","plea","row","board","controlSet","","","","","","","","","","","","","","","","","","","","","","","","","","","",""
"","","","","","survey-text","52","1887747","0.0-6.0-1.20","A2PUL3ZDXOW0VZ","2022-05-18T17:46:57.178Z","phon_sim-same_different-task_switching-rhyme","","64493.299999952316","phon_sim","","{""position_1"":""friend"",""position_2"":""sleigh"",""position_3"":""plea"",""position_4"":""row"",""position_5"":""board""}","experiment","","","","","","","friend","sleigh","plea","row","board","","","","","","","","","","","","","","","","","","","","","","",""
"","","","","","html-keyboard-response","53","1900754","0.0-6.0-0.21","A2PUL3ZDXOW0VZ","2022-05-18T17:46:57.178Z","phon_sim-same_different-task_switching-rhyme","","null","phon_sim","<div style=""display:grid""><h1 id=""word_1"" style=""grid-column:1; grid-row:1"">dough</h1><h1 id=""word_2"" style=""visibility:hidden;grid-column:1; grid-row:1"">through</h1><h1 id=""word_3"" style=""visibility:hidden;grid-column:1; grid-row:1"">bough</h1><h1 id=""word_4"" style=""visibility:hidden;grid-column:1; grid-row:1"">rough</h1><h1 id=""word_5"" style=""visibility:hidden;grid-column:1; grid-row:1"">cough</h1></div>","null","experiment","dough","through","bough","rough","cough","orthoSet","","","","","","","","","","","","","","","","","","","","","","","","","","","",""
"","","","","","survey-text","54","1947827","0.0-6.0-1.21","A2PUL3ZDXOW0VZ","2022-05-18T17:46:57.178Z","phon_sim-same_different-task_switching-rhyme","","47067.799999952316","phon_sim","","{""position_1"":""through"",""position_2"":""dough"",""position_3"":""bough"",""position_4"":""rough"",""position_5"":""cough""}","experiment","","","","","","","through","dough","bough","rough","cough","","","","","","","","","","","","","","","","","","","","","","",""
"","","","","","html-keyboard-response","55","1960835","0.0-6.0-0.22","A2PUL3ZDXOW0VZ","2022-05-18T17:46:57.178Z","phon_sim-same_different-task_switching-rhyme","","null","phon_sim","<div style=""display:grid""><h1 id=""word_1"" style=""grid-column:1; grid-row:1"">taut</h1><h1 id=""word_2"" style=""visibility:hidden;grid-column:1; grid-row:1"">bought</h1><h1 id=""word_3"" style=""visibility:hidden;grid-column:1; grid-row:1"">sort</h1><h1 id=""word_4"" style=""visibility:hidden;grid-column:1; grid-row:1"">caught</h1><h1 id=""word_5"" style=""visibility:hidden;grid-column:1; grid-row:1"">wart</h1></div>","null","experiment","taut","bought","sort","caught","wart","phonSet","","","","","","","","","","","","","","","","","","","","","","","","","","","",""
"","","","","","survey-text","56","2001471","0.0-6.0-1.22","A2PUL3ZDXOW0VZ","2022-05-18T17:46:57.178Z","phon_sim-same_different-task_switching-rhyme","","40632.700000047684","phon_sim","","{""position_1"":""taut"",""position_2"":""bought"",""position_3"":""sort"",""position_4"":""caught"",""position_5"":""wart""}","experiment","","","","","","","taut","bought","sort","caught","wart","","","","","","","","","","","","","","","","","","","","","","",""
"","","","","","html-keyboard-response","57","2014482","0.0-6.0-0.23","A2PUL3ZDXOW0VZ","2022-05-18T17:46:57.178Z","phon_sim-same_different-task_switching-rhyme","","null","phon_sim","<div style=""display:grid""><h1 id=""word_1"" style=""grid-column:1; grid-row:1"">cough</h1><h1 id=""word_2"" style=""visibility:hidden;grid-column:1; grid-row:1"">bough</h1><h1 id=""word_3"" style=""visibility:hidden;grid-column:1; grid-row:1"">dough</h1><h1 id=""word_4"" style=""visibility:hidden;grid-column:1; grid-row:1"">through</h1><h1 id=""word_5"" style=""visibility:hidden;grid-column:1; grid-row:1"">rough</h1></div>","null","experiment","cough","bough","dough","through","rough","orthoSet","","","","","","","","","","","","","","","","","","","","","","","","","","","",""
"","","","","","survey-text","58","2077717","0.0-6.0-1.23","A2PUL3ZDXOW0VZ","2022-05-18T17:46:57.178Z","phon_sim-same_different-task_switching-rhyme","","63231.60000002384","phon_sim","","{""position_1"":""cough"",""position_2"":""through"",""position_3"":""bough"",""position_4"":""dough"",""position_5"":""rough""}","experiment","","","","","","","cough","through","bough","dough","rough","","","","","","","","","","","","","","","","","","","","","","",""
"","","","","","survey-multi-choice","59","2085908","0.0-7.0","A2PUL3ZDXOW0VZ","2022-05-18T17:46:57.178Z","phon_sim-same_different-task_switching-rhyme","","8188.199999988079","phon_sim","","{""Q0"":""Yes""}","","","","","","","","","","","","","[0]","Yes","","","","","","","","","","","","","","","","","","","","",""
"","","","","","survey-text","60","2092260","0.0-8.0","A2PUL3ZDXOW0VZ","2022-05-18T17:46:57.178Z","phon_sim-same_different-task_switching-rhyme","","6347.600000023842","phon_sim","","{""Q0"":""""}","","","","","","","","","","","","","","","","","","","","","","","","","","","","","","","","","","",""
"","","","","","instructions","61","2094555","0.0-9.0","A2PUL3ZDXOW0VZ","2022-05-18T17:46:57.178Z","phon_sim-same_different-task_switching-rhyme","[{""page_index"":0,""viewing_time"":2292.899999976158}]","2293.599999964237","phon_sim","","","","","","","","","","","","","","","","","","","","","","","","","","","","","","","","","","","","",""
"","","","","","instructions","62","2120772","0.0-10.0","A2PUL3ZDXOW0VZ","2022-05-18T17:46:57.178Z","phon_sim-same_different-task_switching-rhyme","[{""page_index"":0,""viewing_time"":26215.400000035763}]","26215.700000047684","same_different","","","","","","","","","","","","","","","","","","","","","","","","","","","","","","","","","","","","",""
"","","","","","instructions","63","2159844","0.0-11.0","A2PUL3ZDXOW0VZ","2022-05-18T17:46:57.178Z","phon_sim-same_different-task_switching-rhyme","[{""page_index"":0,""viewing_time"":39071.09999996424}]","39071.39999997616","","","","","","","","","","","","","","","","","","","","","","","","","","","","","","","","","","","","","",""
"","","","","","html-keyboard-response","64","2160597","0.0-12.0-0.0","A2PUL3ZDXOW0VZ","2022-05-18T17:46:57.178Z","phon_sim-same_different-task_switching-rhyme","","null","same_different","<div style=""font-size:60px"">+</div>","null","","","","","","","","","","","","","","","","","","","","","","","","","","","","","","","","","","",""
"","","","","","html-keyboard-response","65","2164621","0.0-12.0-1.0","A2PUL3ZDXOW0VZ","2022-05-18T17:46:57.178Z","phon_sim-same_different-task_switching-rhyme","","4020.5","same_different","[""<img src=\""square.png\"" width=\""100\"" height=\""100\"" style=\""position: fixed;left:39%;top:47%\""><img src=\""square.png\"" width=\""100\"" height=\""100\"" style=\""position: fixed;left:54%;top:47%\""><img src=\""square.png\"" width=\""100\"" height=\""100\"" style=\""position: fixed;left:46.5%;top:32%\""><img src=\""square.png\"" width=\""100\"" height=\""100\"" style=\""position: fixed;left:46.5%;top:61%\""><div style=\""font-size:60px;text-align: center;margin-top:35.2%\"">+</div><div id=\""first\"" style=\""position: fixed;visibility: hidden;left:40%;top:48%\""><img src=\""same_diff_imgs/D07.gif\"" style=\""-webkit-transform: scaleX(-1);transform: scaleX(-1);\""></div><div id=\""delayed\"" style=\""position: fixed;visibility: hidden;left:48%;top:34%\""><img src=\""same_diff_imgs/C04.gif\"" style=\""-webkit-transform: scaleX(-1);transform: scaleX(-1);\""></div>""]","arrowdown","","","","","","","","","","","","","","","","categorical_image","same_diff_imgs/D07.gif","same_diff_imgs/C04.gif","yes","different","1","true","","","","","","","","","","","","",""
"","","","","","html-keyboard-response","66","2164628","0.0-12.0-2.0","A2PUL3ZDXOW0VZ","2022-05-18T17:46:57.178Z","phon_sim-same_different-task_switching-rhyme","","null",""," ","null","","","","","","","","","","","","","","","","","","","","","","","","","","","","","","","","","","",""
"","","","","","html-keyboard-response","67","2164946","0.0-12.0-3.0","A2PUL3ZDXOW0VZ","2022-05-18T17:46:57.178Z","phon_sim-same_different-task_switching-rhyme","","null","same_different"," ","null","","","","","","","","","","","","","","","","","","","","","","","","","","","","","","","","","","",""
"","","","","","html-keyboard-response","68","2165706","0.0-12.0-0.1","A2PUL3ZDXOW0VZ","2022-05-18T17:46:57.178Z","phon_sim-same_different-task_switching-rhyme","","null","same_different","<div style=""font-size:60px"">+</div>","null","","","","","","","","","","","","","","","","","","","","","","","","","","","","","","","","","","",""
"","","","","","html-keyboard-response","69","2167285","0.0-12.0-1.1","A2PUL3ZDXOW0VZ","2022-05-18T17:46:57.178Z","phon_sim-same_different-task_switching-rhyme","","1576.5","same_different","[""<img src=\""square.png\"" width=\""100\"" height=\""100\"" style=\""position: fixed;left:39%;top:47%\""><img src=\""square.png\"" width=\""100\"" height=\""100\"" style=\""position: fixed;left:54%;top:47%\""><img src=\""square.png\"" width=\""100\"" height=\""100\"" style=\""position: fixed;left:46.5%;top:32%\""><img src=\""square.png\"" width=\""100\"" height=\""100\"" style=\""position: fixed;left:46.5%;top:61%\""><div style=\""font-size:60px;text-align: center;margin-top:35.2%\"">+</div><div id=\""first\"" style=\""position: fixed;visibility: hidden;left:48%;top:34%\""><img src=\""same_diff_imgs/D09.gif\"" style=\""-webkit-transform: scaleX(-1);transform: scaleX(-1);\""></div><div id=\""delayed\"" style=\""position: fixed;visibility: hidden;left:48%;top:62%\""><img src=\""same_diff_imgs/D11.gif\"" style=\""-webkit-transform: scaleX(-1);transform: scaleX(-1);\""></div>""]","arrowup","","","","","","","","","","","","","","","","categorical_image","same_diff_imgs/D09.gif","same_diff_imgs/D11.gif","yes","same","","true","1","","","","","","","","","","","",""
"","","","","","html-keyboard-response","70","2167287","0.0-12.0-2.1","A2PUL3ZDXOW0VZ","2022-05-18T17:46:57.178Z","phon_sim-same_different-task_switching-rhyme","","null",""," ","null","","","","","","","","","","","","","","","","","","","","","","","","","","","","","","","","","","",""
"","","","","","html-keyboard-response","71","2167599","0.0-12.0-3.1","A2PUL3ZDXOW0VZ","2022-05-18T17:46:57.178Z","phon_sim-same_different-task_switching-rhyme","","null","same_different"," ","null","","","","","","","","","","","","","","","","","","","","","","","","","","","","","","","","","","",""
"","","","","","html-keyboard-response","72","2168364","0.0-12.0-0.2","A2PUL3ZDXOW0VZ","2022-05-18T17:46:57.178Z","phon_sim-same_different-task_switching-rhyme","","null","same_different","<div style=""font-size:60px"">+</div>","null","","","","","","","","","","","","","","","","","","","","","","","","","","","","","","","","","","",""
"","","","","","html-keyboard-response","73","2170011","0.0-12.0-1.2","A2PUL3ZDXOW0VZ","2022-05-18T17:46:57.178Z","phon_sim-same_different-task_switching-rhyme","","1645.199999988079","same_different","[""<img src=\""square.png\"" width=\""100\"" height=\""100\"" style=\""position: fixed;left:39%;top:47%\""><img src=\""square.png\"" width=\""100\"" height=\""100\"" style=\""position: fixed;left:54%;top:47%\""><img src=\""square.png\"" width=\""100\"" height=\""100\"" style=\""position: fixed;left:46.5%;top:32%\""><img src=\""square.png\"" width=\""100\"" height=\""100\"" style=\""position: fixed;left:46.5%;top:61%\""><div style=\""font-size:60px; text-align: center;margin-top:35.2%\"">+</div><div id=\""first\"" style=\""position: fixed;visibility: hidden;left:48%;top:34%\""><img src=\""same_diff_imgs/C04.gif\""></div><div id=\""delayed\"" style=\""position: fixed;visibility: hidden;left:55%;top:49%\""><img src=\""same_diff_imgs/D07.gif\""></div>""]","arrowdown","","","","","","","","","","","","","","","","categorical_image","same_diff_imgs/C04.gif","same_diff_imgs/D07.gif","no","different","1","true","","","","","","","","","","","","",""
"","","","","","html-keyboard-response","74","2170013","0.0-12.0-2.2","A2PUL3ZDXOW0VZ","2022-05-18T17:46:57.178Z","phon_sim-same_different-task_switching-rhyme","","null",""," ","null","","","","","","","","","","","","","","","","","","","","","","","","","","","","","","","","","","",""
"","","","","","html-keyboard-response","75","2170317","0.0-12.0-3.2","A2PUL3ZDXOW0VZ","2022-05-18T17:46:57.178Z","phon_sim-same_different-task_switching-rhyme","","null","same_different"," ","null","","","","","","","","","","","","","","","","","","","","","","","","","","","","","","","","","","",""
"","","","","","html-keyboard-response","76","2171081","0.0-12.0-0.3","A2PUL3ZDXOW0VZ","2022-05-18T17:46:57.178Z","phon_sim-same_different-task_switching-rhyme","","null","same_different","<div style=""font-size:60px"">+</div>","null","","","","","","","","","","","","","","","","","","","","","","","","","","","","","","","","","","",""
"","","","","","html-keyboard-response","77","2173039","0.0-12.0-1.3","A2PUL3ZDXOW0VZ","2022-05-18T17:46:57.178Z","phon_sim-same_different-task_switching-rhyme","","1956.300000011921","same_different","[""<img src=\""square.png\"" width=\""100\"" height=\""100\"" style=\""position: fixed;left:39%;top:47%\""><img src=\""square.png\"" width=\""100\"" height=\""100\"" style=\""position: fixed;left:54%;top:47%\""><img src=\""square.png\"" width=\""100\"" height=\""100\"" style=\""position: fixed;left:46.5%;top:32%\""><img src=\""square.png\"" width=\""100\"" height=\""100\"" style=\""position: fixed;left:46.5%;top:61%\""><div style=\""font-size:60px; text-align: center;margin-top:35.2%\"">+</div><div id=\""first\"" style=\""position: fixed;visibility: hidden;left:48%;top:62%\""><img src=\""same_diff_imgs/C09.gif\""></div><div id=\""delayed\"" style=\""position: fixed;visibility: hidden;left:48%;top:34%\""><img src=\""same_diff_imgs/D11.gif\""></div>""]","arrowdown","","","","","","","","","","","","","","","","categorical_image","same_diff_imgs/C09.gif","same_diff_imgs/D11.gif","no","different","1","true","","","","","","","","","","","","",""
"","","","","","html-keyboard-response","78","2173041","0.0-12.0-2.3","A2PUL3ZDXOW0VZ","2022-05-18T17:46:57.178Z","phon_sim-same_different-task_switching-rhyme","","null",""," ","null","","","","","","","","","","","","","","","","","","","","","","","","","","","","","","","","","","",""
"","","","","","html-keyboard-response","79","2173350","0.0-12.0-3.3","A2PUL3ZDXOW0VZ","2022-05-18T17:46:57.178Z","phon_sim-same_different-task_switching-rhyme","","null","same_different"," ","null","","","","","","","","","","","","","","","","","","","","","","","","","","","","","","","","","","",""
"","","","","","html-keyboard-response","80","2174109","0.0-12.0-0.4","A2PUL3ZDXOW0VZ","2022-05-18T17:46:57.178Z","phon_sim-same_different-task_switching-rhyme","","null","same_different","<div style=""font-size:60px"">+</div>","null","","","","","","","","","","","","","","","","","","","","","","","","","","","","","","","","","","",""
"","","","","","html-keyboard-response","81","2175665","0.0-12.0-1.4","A2PUL3ZDXOW0VZ","2022-05-18T17:46:57.178Z","phon_sim-same_different-task_switching-rhyme","","1553.9000000357628","same_different","[""<img src=\""square.png\"" width=\""100\"" height=\""100\"" style=\""position: fixed;left:39%;top:47%\""><img src=\""square.png\"" width=\""100\"" height=\""100\"" style=\""position: fixed;left:54%;top:47%\""><img src=\""square.png\"" width=\""100\"" height=\""100\"" style=\""position: fixed;left:46.5%;top:32%\""><img src=\""square.png\"" width=\""100\"" height=\""100\"" style=\""position: fixed;left:46.5%;top:61%\""><div style=\""font-size:60px; text-align: center;margin-top:35.2%\"">+</div><div id=\""first\"" style=\""position: fixed;visibility: hidden;left:48%;top:34%\""><img src=\""same_diff_imgs/C14.gif\""></div><div id=\""delayed\"" style=\""position: fixed;visibility: hidden;left:55%;top:49%\""><img src=\""same_diff_imgs/C09.gif\""></div>""]","arrowup","","","","","","","","","","","","","","","","categorical_image","same_diff_imgs/C14.gif","same_diff_imgs/C09.gif","no","same","","true","1","","","","","","","","","","","",""
"","","","","","html-keyboard-response","82","2175667","0.0-12.0-2.4","A2PUL3ZDXOW0VZ","2022-05-18T17:46:57.178Z","phon_sim-same_different-task_switching-rhyme","","null",""," ","null","","","","","","","","","","","","","","","","","","","","","","","","","","","","","","","","","","",""
"","","","","","html-keyboard-response","83","2175973","0.0-12.0-3.4","A2PUL3ZDXOW0VZ","2022-05-18T17:46:57.178Z","phon_sim-same_different-task_switching-rhyme","","null","same_different"," ","null","","","","","","","","","","","","","","","","","","","","","","","","","","","","","","","","","","",""
"","","","","","html-keyboard-response","84","2176727","0.0-12.0-0.5","A2PUL3ZDXOW0VZ","2022-05-18T17:46:57.178Z","phon_sim-same_different-task_switching-rhyme","","null","same_different","<div style=""font-size:60px"">+</div>","null","","","","","","","","","","","","","","","","","","","","","","","","","","","","","","","","","","",""
"","","","","","html-keyboard-response","85","2178639","0.0-12.0-1.5","A2PUL3ZDXOW0VZ","2022-05-18T17:46:57.178Z","phon_sim-same_different-task_switching-rhyme","","1909.5","same_different","[""<img src=\""square.png\"" width=\""100\"" height=\""100\"" style=\""position: fixed;left:39%;top:47%\""><img src=\""square.png\"" width=\""100\"" height=\""100\"" style=\""position: fixed;left:54%;top:47%\""><img src=\""square.png\"" width=\""100\"" height=\""100\"" style=\""position: fixed;left:46.5%;top:32%\""><img src=\""square.png\"" width=\""100\"" height=\""100\"" style=\""position: fixed;left:46.5%;top:61%\""><div style=\""font-size:60px;text-align: center;margin-top:35.2%\"">+</div><div id=\""first\"" style=\""position: fixed;visibility: hidden;left:40%;top:48%\""><img src=\""same_diff_imgs/C04.gif\"" style=\""-webkit-transform: scaleX(-1);transform: scaleX(-1);\""></div><div id=\""delayed\"" style=\""position: fixed;visibility: hidden;left:48%;top:34%\""><img src=\""same_diff_imgs/C14.gif\"" style=\""-webkit-transform: scaleX(-1);transform: scaleX(-1);\""></div>""]","arrowup","","","","","","","","","","","","","","","","categorical_image","same_diff_imgs/C04.gif","same_diff_imgs/C14.gif","yes","same","","true","1","","","","","","","","","","","",""
"","","","","","html-keyboard-response","86","2178642","0.0-12.0-2.5","A2PUL3ZDXOW0VZ","2022-05-18T17:46:57.178Z","phon_sim-same_different-task_switching-rhyme","","null",""," ","null","","","","","","","","","","","","","","","","","","","","","","","","","","","","","","","","","","",""
"","","","","","html-keyboard-response","87","2178946","0.0-12.0-3.5","A2PUL3ZDXOW0VZ","2022-05-18T17:46:57.178Z","phon_sim-same_different-task_switching-rhyme","","null","same_different"," ","null","","","","","","","","","","","","","","","","","","","","","","","","","","","","","","","","","","",""
"","","","","","html-keyboard-response","88","2179701","0.0-12.0-0.6","A2PUL3ZDXOW0VZ","2022-05-18T17:46:57.178Z","phon_sim-same_different-task_switching-rhyme","","null","same_different","<div style=""font-size:60px"">+</div>","null","","","","","","","","","","","","","","","","","","","","","","","","","","","","","","","","","","",""
"","","","","","html-keyboard-response","89","2181377","0.0-12.0-1.6","A2PUL3ZDXOW0VZ","2022-05-18T17:46:57.178Z","phon_sim-same_different-task_switching-rhyme","","1673.800000011921","same_different","[""<img src=\""square.png\"" width=\""100\"" height=\""100\"" style=\""position: fixed;left:39%;top:47%\""><img src=\""square.png\"" width=\""100\"" height=\""100\"" style=\""position: fixed;left:54%;top:47%\""><img src=\""square.png\"" width=\""100\"" height=\""100\"" style=\""position: fixed;left:46.5%;top:32%\""><img src=\""square.png\"" width=\""100\"" height=\""100\"" style=\""position: fixed;left:46.5%;top:61%\""><div style=\""font-size:60px;text-align: center;margin-top:35.2%\"">+</div><div id=\""first\"" style=\""position: fixed;visibility: hidden;left:48%;top:62%\""><img src=\""same_diff_imgs/C09.gif\"" style=\""-webkit-transform: scaleX(-1);transform: scaleX(-1);\""></div><div id=\""delayed\"" style=\""position: fixed;visibility: hidden;left:55%;top:49%\""><img src=\""same_diff_imgs/C09.gif\"" style=\""-webkit-transform: scaleX(-1);transform: scaleX(-1);\""></div>""]","arrowup","","","","","","","","","","","","","","","","categorical_image","same_diff_imgs/C09.gif","same_diff_imgs/C09.gif","yes","same","","true","1","","","","","","","","","","","",""
"","","","","","html-keyboard-response","90","2181379","0.0-12.0-2.6","A2PUL3ZDXOW0VZ","2022-05-18T17:46:57.178Z","phon_sim-same_different-task_switching-rhyme","","null",""," ","null","","","","","","","","","","","","","","","","","","","","","","","","","","","","","","","","","","",""
"","","","","","html-keyboard-response","91","2181688","0.0-12.0-3.6","A2PUL3ZDXOW0VZ","2022-05-18T17:46:57.178Z","phon_sim-same_different-task_switching-rhyme","","null","same_different"," ","null","","","","","","","","","","","","","","","","","","","","","","","","","","","","","","","","","","",""
"","","","","","html-keyboard-response","92","2182445","0.0-12.0-0.7","A2PUL3ZDXOW0VZ","2022-05-18T17:46:57.178Z","phon_sim-same_different-task_switching-rhyme","","null","same_different","<div style=""font-size:60px"">+</div>","null","","","","","","","","","","","","","","","","","","","","","","","","","","","","","","","","","","",""
"","","","","","html-keyboard-response","93","2184118","0.0-12.0-1.7","A2PUL3ZDXOW0VZ","2022-05-18T17:46:57.178Z","phon_sim-same_different-task_switching-rhyme","","1670.8999999761581","same_different","[""<img src=\""square.png\"" width=\""100\"" height=\""100\"" style=\""position: fixed;left:39%;top:47%\""><img src=\""square.png\"" width=\""100\"" height=\""100\"" style=\""position: fixed;left:54%;top:47%\""><img src=\""square.png\"" width=\""100\"" height=\""100\"" style=\""position: fixed;left:46.5%;top:32%\""><img src=\""square.png\"" width=\""100\"" height=\""100\"" style=\""position: fixed;left:46.5%;top:61%\""><div style=\""font-size:60px;text-align: center;margin-top:35.2%\"">+</div><div id=\""first\"" style=\""position: fixed;visibility: hidden;left:48%;top:34%\""><img src=\""same_diff_imgs/D09.gif\"" style=\""-webkit-transform: scaleX(-1);transform: scaleX(-1);\""></div><div id=\""delayed\"" style=\""position: fixed;visibility: hidden;left:40%;top:48%\""><img src=\""same_diff_imgs/C14.gif\"" style=\""-webkit-transform: scaleX(-1);transform: scaleX(-1);\""></div>""]","arrowdown","","","","","","","","","","","","","","","","categorical_image","same_diff_imgs/D09.gif","same_diff_imgs/C14.gif","yes","different","1","true","","","","","","","","","","","","",""
"","","","","","html-keyboard-response","94","2184121","0.0-12.0-2.7","A2PUL3ZDXOW0VZ","2022-05-18T17:46:57.178Z","phon_sim-same_different-task_switching-rhyme","","null",""," ","null","","","","","","","","","","","","","","","","","","","","","","","","","","","","","","","","","","",""
"","","","","","html-keyboard-response","95","2184426","0.0-12.0-3.7","A2PUL3ZDXOW0VZ","2022-05-18T17:46:57.178Z","phon_sim-same_different-task_switching-rhyme","","null","same_different"," ","null","","","","","","","","","","","","","","","","","","","","","","","","","","","","","","","","","","",""
"","","","","","html-keyboard-response","96","2185181","0.0-12.0-0.8","A2PUL3ZDXOW0VZ","2022-05-18T17:46:57.178Z","phon_sim-same_different-task_switching-rhyme","","null","same_different","<div style=""font-size:60px"">+</div>","null","","","","","","","","","","","","","","","","","","","","","","","","","","","","","","","","","","",""
"","","","","","html-keyboard-response","97","2186899","0.0-12.0-1.8","A2PUL3ZDXOW0VZ","2022-05-18T17:46:57.178Z","phon_sim-same_different-task_switching-rhyme","","1715.7999999523163","same_different","[""<img src=\""square.png\"" width=\""100\"" height=\""100\"" style=\""position: fixed;left:39%;top:47%\""><img src=\""square.png\"" width=\""100\"" height=\""100\"" style=\""position: fixed;left:54%;top:47%\""><img src=\""square.png\"" width=\""100\"" height=\""100\"" style=\""position: fixed;left:46.5%;top:32%\""><img src=\""square.png\"" width=\""100\"" height=\""100\"" style=\""position: fixed;left:46.5%;top:61%\""><div style=\""font-size:60px; text-align: center;margin-top:35.2%\"">+</div><div id=\""first\"" style=\""position: fixed;visibility: hidden;left:48%;top:34%\""><img src=\""same_diff_imgs/D09.gif\""></div><div id=\""delayed\"" style=\""position: fixed;visibility: hidden;left:55%;top:49%\""><img src=\""same_diff_imgs/C09.gif\""></div>""]","arrowdown","","","","","","","","","","","","","","","","categorical_image","same_diff_imgs/D09.gif","same_diff_imgs/C09.gif","no","different","1","true","","","","","","","","","","","","",""
"","","","","","html-keyboard-response","98","2186901","0.0-12.0-2.8","A2PUL3ZDXOW0VZ","2022-05-18T17:46:57.178Z","phon_sim-same_different-task_switching-rhyme","","null",""," ","null","","","","","","","","","","","","","","","","","","","","","","","","","","","","","","","","","","",""
"","","","","","html-keyboard-response","99","2187217","0.0-12.0-3.8","A2PUL3ZDXOW0VZ","2022-05-18T17:46:57.178Z","phon_sim-same_different-task_switching-rhyme","","null","same_different"," ","null","","","","","","","","","","","","","","","","","","","","","","","","","","","","","","","","","","",""
"","","","","","html-keyboard-response","100","2187967","0.0-12.0-0.9","A2PUL3ZDXOW0VZ","2022-05-18T17:46:57.178Z","phon_sim-same_different-task_switching-rhyme","","null","same_different","<div style=""font-size:60px"">+</div>","null","","","","","","","","","","","","","","","","","","","","","","","","","","","","","","","","","","",""
"","","","","","html-keyboard-response","101","2189980","0.0-12.0-1.9","A2PUL3ZDXOW0VZ","2022-05-18T17:46:57.178Z","phon_sim-same_different-task_switching-rhyme","","2009.300000011921","same_different","[""<img src=\""square.png\"" width=\""100\"" height=\""100\"" style=\""position: fixed;left:39%;top:47%\""><img src=\""square.png\"" width=\""100\"" height=\""100\"" style=\""position: fixed;left:54%;top:47%\""><img src=\""square.png\"" width=\""100\"" height=\""100\"" style=\""position: fixed;left:46.5%;top:32%\""><img src=\""square.png\"" width=\""100\"" height=\""100\"" style=\""position: fixed;left:46.5%;top:61%\""><div style=\""font-size:60px; text-align: center;margin-top:35.2%\"">+</div><div id=\""first\"" style=\""position: fixed;visibility: hidden;left:55%;top:49%\""><img src=\""same_diff_imgs/D11.gif\""></div><div id=\""delayed\"" style=\""position: fixed;visibility: hidden;left:48%;top:34%\""><img src=\""same_diff_imgs/C14.gif\""></div>""]","arrowdown","","","","","","","","","","","","","","","","categorical_image","same_diff_imgs/D11.gif","same_diff_imgs/C14.gif","no","different","1","true","","","","","","","","","","","","",""
"","","","","","html-keyboard-response","102","2189981","0.0-12.0-2.9","A2PUL3ZDXOW0VZ","2022-05-18T17:46:57.178Z","phon_sim-same_different-task_switching-rhyme","","null",""," ","null","","","","","","","","","","","","","","","","","","","","","","","","","","","","","","","","","","",""
"","","","","","html-keyboard-response","103","2190285","0.0-12.0-3.9","A2PUL3ZDXOW0VZ","2022-05-18T17:46:57.178Z","phon_sim-same_different-task_switching-rhyme","","null","same_different"," ","null","","","","","","","","","","","","","","","","","","","","","","","","","","","","","","","","","","",""
"","","","","","html-keyboard-response","104","2191044","0.0-12.0-0.10","A2PUL3ZDXOW0VZ","2022-05-18T17:46:57.178Z","phon_sim-same_different-task_switching-rhyme","","null","same_different","<div style=""font-size:60px"">+</div>","null","","","","","","","","","","","","","","","","","","","","","","","","","","","","","","","","","","",""
"","","","","","html-keyboard-response","105","2192748","0.0-12.0-1.10","A2PUL3ZDXOW0VZ","2022-05-18T17:46:57.178Z","phon_sim-same_different-task_switching-rhyme","","1702.800000011921","same_different","[""<img src=\""square.png\"" width=\""100\"" height=\""100\"" style=\""position: fixed;left:39%;top:47%\""><img src=\""square.png\"" width=\""100\"" height=\""100\"" style=\""position: fixed;left:54%;top:47%\""><img src=\""square.png\"" width=\""100\"" height=\""100\"" style=\""position: fixed;left:46.5%;top:32%\""><img src=\""square.png\"" width=\""100\"" height=\""100\"" style=\""position: fixed;left:46.5%;top:61%\""><div style=\""font-size:60px;text-align: center;margin-top:35.2%\"">+</div><div id=\""first\"" style=\""position: fixed;visibility: hidden;left:48%;top:34%\""><img src=\""same_diff_imgs/D11.gif\"" style=\""-webkit-transform: scaleX(-1);transform: scaleX(-1);\""></div><div id=\""delayed\"" style=\""position: fixed;visibility: hidden;left:40%;top:48%\""><img src=\""same_diff_imgs/C04.gif\"" style=\""-webkit-transform: scaleX(-1);transform: scaleX(-1);\""></div>""]","arrowup","","","","","","","","","","","","","","","","categorical_image","same_diff_imgs/D11.gif","same_diff_imgs/C04.gif","yes","different","","false","","1","","","","","","","","","","",""
"","","","","","html-keyboard-response","106","2193258","0.0-12.0-2.10","A2PUL3ZDXOW0VZ","2022-05-18T17:46:57.178Z","phon_sim-same_different-task_switching-rhyme","","null","","<div style=""color:darkred; font-size:40px"">Incorrect!</div>","null","","","","","","","","","","","","","","","","","","","","","","","","","","","","","","","","","","",""
"","","","","","html-keyboard-response","107","2193566","0.0-12.0-3.10","A2PUL3ZDXOW0VZ","2022-05-18T17:46:57.178Z","phon_sim-same_different-task_switching-rhyme","","null","same_different"," ","null","","","","","","","","","","","","","","","","","","","","","","","","","","","","","","","","","","",""
"","","","","","html-keyboard-response","108","2194329","0.0-12.0-0.11","A2PUL3ZDXOW0VZ","2022-05-18T17:46:57.178Z","phon_sim-same_different-task_switching-rhyme","","null","same_different","<div style=""font-size:60px"">+</div>","null","","","","","","","","","","","","","","","","","","","","","","","","","","","","","","","","","","",""
"","","","","","html-keyboard-response","109","2196749","0.0-12.0-1.11","A2PUL3ZDXOW0VZ","2022-05-18T17:46:57.178Z","phon_sim-same_different-task_switching-rhyme","","2417.300000011921","same_different","[""<img src=\""square.png\"" width=\""100\"" height=\""100\"" style=\""position: fixed;left:39%;top:47%\""><img src=\""square.png\"" width=\""100\"" height=\""100\"" style=\""position: fixed;left:54%;top:47%\""><img src=\""square.png\"" width=\""100\"" height=\""100\"" style=\""position: fixed;left:46.5%;top:32%\""><img src=\""square.png\"" width=\""100\"" height=\""100\"" style=\""position: fixed;left:46.5%;top:61%\""><div style=\""font-size:60px;text-align: center;margin-top:35.2%\"">+</div><div id=\""first\"" style=\""position: fixed;visibility: hidden;left:48%;top:62%\""><img src=\""same_diff_imgs/D11.gif\"" style=\""-webkit-transform: scaleX(-1);transform: scaleX(-1);\""></div><div id=\""delayed\"" style=\""position: fixed;visibility: hidden;left:48%;top:34%\""><img src=\""same_diff_imgs/D11.gif\"" style=\""-webkit-transform: scaleX(-1);transform: scaleX(-1);\""></div>""]","arrowup","","","","","","","","","","","","","","","","categorical_image","same_diff_imgs/D11.gif","same_diff_imgs/D11.gif","yes","same","","true","1","","","","","","","","","","","",""
"","","","","","html-keyboard-response","110","2196751","0.0-12.0-2.11","A2PUL3ZDXOW0VZ","2022-05-18T17:46:57.178Z","phon_sim-same_different-task_switching-rhyme","","null",""," ","null","","","","","","","","","","","","","","","","","","","","","","","","","","","","","","","","","","",""
"","","","","","html-keyboard-response","111","2197060","0.0-12.0-3.11","A2PUL3ZDXOW0VZ","2022-05-18T17:46:57.178Z","phon_sim-same_different-task_switching-rhyme","","null","same_different"," ","null","","","","","","","","","","","","","","","","","","","","","","","","","","","","","","","","","","",""
"","","","","","html-keyboard-response","112","2197816","0.0-12.0-0.12","A2PUL3ZDXOW0VZ","2022-05-18T17:46:57.178Z","phon_sim-same_different-task_switching-rhyme","","null","same_different","<div style=""font-size:60px"">+</div>","null","","","","","","","","","","","","","","","","","","","","","","","","","","","","","","","","","","",""
"","","","","","html-keyboard-response","113","2199579","0.0-12.0-1.12","A2PUL3ZDXOW0VZ","2022-05-18T17:46:57.178Z","phon_sim-same_different-task_switching-rhyme","","1760.3999999761581","same_different","[""<img src=\""square.png\"" width=\""100\"" height=\""100\"" style=\""position: fixed;left:39%;top:47%\""><img src=\""square.png\"" width=\""100\"" height=\""100\"" style=\""position: fixed;left:54%;top:47%\""><img src=\""square.png\"" width=\""100\"" height=\""100\"" style=\""position: fixed;left:46.5%;top:32%\""><img src=\""square.png\"" width=\""100\"" height=\""100\"" style=\""position: fixed;left:46.5%;top:61%\""><div style=\""font-size:60px;text-align: center;margin-top:35.2%\"">+</div><div id=\""first\"" style=\""position: fixed;visibility: hidden;left:55%;top:49%\""><img src=\""same_diff_imgs/C04.gif\"" style=\""-webkit-transform: scaleX(-1);transform: scaleX(-1);\""></div><div id=\""delayed\"" style=\""position: fixed;visibility: hidden;left:48%;top:34%\""><img src=\""same_diff_imgs/D07.gif\"" style=\""-webkit-transform: scaleX(-1);transform: scaleX(-1);\""></div>""]","arrowup","","","","","","","","","","","","","","","","categorical_image","same_diff_imgs/C04.gif","same_diff_imgs/D07.gif","yes","different","","false","","1","","","","","","","","","","",""
"","","","","","html-keyboard-response","114","2200083","0.0-12.0-2.12","A2PUL3ZDXOW0VZ","2022-05-18T17:46:57.178Z","phon_sim-same_different-task_switching-rhyme","","null","","<div style=""color:darkred; font-size:40px"">Incorrect!</div>","null","","","","","","","","","","","","","","","","","","","","","","","","","","","","","","","","","","",""
"","","","","","html-keyboard-response","115","2200392","0.0-12.0-3.12","A2PUL3ZDXOW0VZ","2022-05-18T17:46:57.178Z","phon_sim-same_different-task_switching-rhyme","","null","same_different"," ","null","","","","","","","","","","","","","","","","","","","","","","","","","","","","","","","","","","",""
"","","","","","html-keyboard-response","116","2201149","0.0-12.0-0.13","A2PUL3ZDXOW0VZ","2022-05-18T17:46:57.178Z","phon_sim-same_different-task_switching-rhyme","","null","same_different","<div style=""font-size:60px"">+</div>","null","","","","","","","","","","","","","","","","","","","","","","","","","","","","","","","","","","",""
"","","","","","html-keyboard-response","117","2203766","0.0-12.0-1.13","A2PUL3ZDXOW0VZ","2022-05-18T17:46:57.178Z","phon_sim-same_different-task_switching-rhyme","","2614.2999999523163","same_different","[""<img src=\""square.png\"" width=\""100\"" height=\""100\"" style=\""position: fixed;left:39%;top:47%\""><img src=\""square.png\"" width=\""100\"" height=\""100\"" style=\""position: fixed;left:54%;top:47%\""><img src=\""square.png\"" width=\""100\"" height=\""100\"" style=\""position: fixed;left:46.5%;top:32%\""><img src=\""square.png\"" width=\""100\"" height=\""100\"" style=\""position: fixed;left:46.5%;top:61%\""><div style=\""font-size:60px; text-align: center;margin-top:35.2%\"">+</div><div id=\""first\"" style=\""position: fixed;visibility: hidden;left:48%;top:34%\""><img src=\""same_diff_imgs/D07.gif\""></div><div id=\""delayed\"" style=\""position: fixed;visibility: hidden;left:48%;top:62%\""><img src=\""same_diff_imgs/D07.gif\""></div>""]","arrowup","","","","","","","","","","","","","","","","categorical_image","same_diff_imgs/D07.gif","same_diff_imgs/D07.gif","no","same","","true","1","","","","","","","","","","","",""
"","","","","","html-keyboard-response","118","2203767","0.0-12.0-2.13","A2PUL3ZDXOW0VZ","2022-05-18T17:46:57.178Z","phon_sim-same_different-task_switching-rhyme","","null",""," ","null","","","","","","","","","","","","","","","","","","","","","","","","","","","","","","","","","","",""
"","","","","","html-keyboard-response","119","2204069","0.0-12.0-3.13","A2PUL3ZDXOW0VZ","2022-05-18T17:46:57.178Z","phon_sim-same_different-task_switching-rhyme","","null","same_different"," ","null","","","","","","","","","","","","","","","","","","","","","","","","","","","","","","","","","","",""
"","","","","","html-keyboard-response","120","2204824","0.0-12.0-0.14","A2PUL3ZDXOW0VZ","2022-05-18T17:46:57.178Z","phon_sim-same_different-task_switching-rhyme","","null","same_different","<div style=""font-size:60px"">+</div>","null","","","","","","","","","","","","","","","","","","","","","","","","","","","","","","","","","","",""
"","","","","","html-keyboard-response","121","2206467","0.0-12.0-1.14","A2PUL3ZDXOW0VZ","2022-05-18T17:46:57.178Z","phon_sim-same_different-task_switching-rhyme","","1639.800000011921","same_different","[""<img src=\""square.png\"" width=\""100\"" height=\""100\"" style=\""position: fixed;left:39%;top:47%\""><img src=\""square.png\"" width=\""100\"" height=\""100\"" style=\""position: fixed;left:54%;top:47%\""><img src=\""square.png\"" width=\""100\"" height=\""100\"" style=\""position: fixed;left:46.5%;top:32%\""><img src=\""square.png\"" width=\""100\"" height=\""100\"" style=\""position: fixed;left:46.5%;top:61%\""><div style=\""font-size:60px; text-align: center;margin-top:35.2%\"">+</div><div id=\""first\"" style=\""position: fixed;visibility: hidden;left:40%;top:48%\""><img src=\""same_diff_imgs/D07.gif\""></div><div id=\""delayed\"" style=\""position: fixed;visibility: hidden;left:48%;top:34%\""><img src=\""same_diff_imgs/D11.gif\""></div>""]","arrowup","","","","","","","","","","","","","","","","categorical_image","same_diff_imgs/D07.gif","same_diff_imgs/D11.gif","no","same","","true","1","","","","","","","","","","","",""
"","","","","","html-keyboard-response","122","2206469","0.0-12.0-2.14","A2PUL3ZDXOW0VZ","2022-05-18T17:46:57.178Z","phon_sim-same_different-task_switching-rhyme","","null",""," ","null","","","","","","","","","","","","","","","","","","","","","","","","","","","","","","","","","","",""
"","","","","","html-keyboard-response","123","2206775","0.0-12.0-3.14","A2PUL3ZDXOW0VZ","2022-05-18T17:46:57.178Z","phon_sim-same_different-task_switching-rhyme","","null","same_different"," ","null","","","","","","","","","","","","","","","","","","","","","","","","","","","","","","","","","","",""
"","","","","","html-keyboard-response","124","2207530","0.0-12.0-0.15","A2PUL3ZDXOW0VZ","2022-05-18T17:46:57.178Z","phon_sim-same_different-task_switching-rhyme","","null","same_different","<div style=""font-size:60px"">+</div>","null","","","","","","","","","","","","","","","","","","","","","","","","","","","","","","","","","","",""
"","","","","","html-keyboard-response","125","2209654","0.0-12.0-1.15","A2PUL3ZDXOW0VZ","2022-05-18T17:46:57.178Z","phon_sim-same_different-task_switching-rhyme","","2122.300000011921","same_different","[""<img src=\""square.png\"" width=\""100\"" height=\""100\"" style=\""position: fixed;left:39%;top:47%\""><img src=\""square.png\"" width=\""100\"" height=\""100\"" style=\""position: fixed;left:54%;top:47%\""><img src=\""square.png\"" width=\""100\"" height=\""100\"" style=\""position: fixed;left:46.5%;top:32%\""><img src=\""square.png\"" width=\""100\"" height=\""100\"" style=\""position: fixed;left:46.5%;top:61%\""><div style=\""font-size:60px;text-align: center;margin-top:35.2%\"">+</div><div id=\""first\"" style=\""position: fixed;visibility: hidden;left:40%;top:48%\""><img src=\""same_diff_imgs/C14.gif\"" style=\""-webkit-transform: scaleX(-1);transform: scaleX(-1);\""></div><div id=\""delayed\"" style=\""position: fixed;visibility: hidden;left:55%;top:49%\""><img src=\""same_diff_imgs/C09.gif\"" style=\""-webkit-transform: scaleX(-1);transform: scaleX(-1);\""></div>""]","arrowup","","","","","","","","","","","","","","","","categorical_image","same_diff_imgs/C14.gif","same_diff_imgs/C09.gif","yes","same","","true","1","","","","","","","","","","","",""
"","","","","","html-keyboard-response","126","2209657","0.0-12.0-2.15","A2PUL3ZDXOW0VZ","2022-05-18T17:46:57.178Z","phon_sim-same_different-task_switching-rhyme","","null",""," ","null","","","","","","","","","","","","","","","","","","","","","","","","","","","","","","","","","","",""
"","","","","","html-keyboard-response","127","2209960","0.0-12.0-3.15","A2PUL3ZDXOW0VZ","2022-05-18T17:46:57.178Z","phon_sim-same_different-task_switching-rhyme","","null","same_different"," ","null","","","","","","","","","","","","","","","","","","","","","","","","","","","","","","","","","","",""
"","","","","","html-keyboard-response","128","2210721","0.0-12.0-0.16","A2PUL3ZDXOW0VZ","2022-05-18T17:46:57.178Z","phon_sim-same_different-task_switching-rhyme","","null","same_different","<div style=""font-size:60px"">+</div>","null","","","","","","","","","","","","","","","","","","","","","","","","","","","","","","","","","","",""
"","","","","","html-keyboard-response","129","2212721","0.0-12.0-1.16","A2PUL3ZDXOW0VZ","2022-05-18T17:46:57.178Z","phon_sim-same_different-task_switching-rhyme","","1997.800000011921","same_different","[""<img src=\""square.png\"" width=\""100\"" height=\""100\"" style=\""position: fixed;left:39%;top:47%\""><img src=\""square.png\"" width=\""100\"" height=\""100\"" style=\""position: fixed;left:54%;top:47%\""><img src=\""square.png\"" width=\""100\"" height=\""100\"" style=\""position: fixed;left:46.5%;top:32%\""><img src=\""square.png\"" width=\""100\"" height=\""100\"" style=\""position: fixed;left:46.5%;top:61%\""><div style=\""font-size:60px; text-align: center;margin-top:35.2%\"">+</div><div id=\""first\"" style=\""position: fixed;visibility: hidden;left:55%;top:49%\""><img src=\""same_diff_imgs/D11.gif\""></div><div id=\""delayed\"" style=\""position: fixed;visibility: hidden;left:48%;top:62%\""><img src=\""same_diff_imgs/C09.gif\""></div>""]","arrowdown","","","","","","","","","","","","","","","","categorical_image","same_diff_imgs/D11.gif","same_diff_imgs/C09.gif","no","different","1","true","","","","","","","","","","","","",""
"","","","","","html-keyboard-response","130","2212723","0.0-12.0-2.16","A2PUL3ZDXOW0VZ","2022-05-18T17:46:57.178Z","phon_sim-same_different-task_switching-rhyme","","null",""," ","null","","","","","","","","","","","","","","","","","","","","","","","","","","","","","","","","","","",""
"","","","","","html-keyboard-response","131","2213040","0.0-12.0-3.16","A2PUL3ZDXOW0VZ","2022-05-18T17:46:57.178Z","phon_sim-same_different-task_switching-rhyme","","null","same_different"," ","null","","","","","","","","","","","","","","","","","","","","","","","","","","","","","","","","","","",""
"","","","","","html-keyboard-response","132","2213795","0.0-12.0-0.17","A2PUL3ZDXOW0VZ","2022-05-18T17:46:57.178Z","phon_sim-same_different-task_switching-rhyme","","null","same_different","<div style=""font-size:60px"">+</div>","null","","","","","","","","","","","","","","","","","","","","","","","","","","","","","","","","","","",""
"","","","","","html-keyboard-response","133","2215398","0.0-12.0-1.17","A2PUL3ZDXOW0VZ","2022-05-18T17:46:57.178Z","phon_sim-same_different-task_switching-rhyme","","1600.199999988079","same_different","[""<img src=\""square.png\"" width=\""100\"" height=\""100\"" style=\""position: fixed;left:39%;top:47%\""><img src=\""square.png\"" width=\""100\"" height=\""100\"" style=\""position: fixed;left:54%;top:47%\""><img src=\""square.png\"" width=\""100\"" height=\""100\"" style=\""position: fixed;left:46.5%;top:32%\""><img src=\""square.png\"" width=\""100\"" height=\""100\"" style=\""position: fixed;left:46.5%;top:61%\""><div style=\""font-size:60px;text-align: center;margin-top:35.2%\"">+</div><div id=\""first\"" style=\""position: fixed;visibility: hidden;left:48%;top:62%\""><img src=\""same_diff_imgs/D07.gif\"" style=\""-webkit-transform: scaleX(-1);transform: scaleX(-1);\""></div><div id=\""delayed\"" style=\""position: fixed;visibility: hidden;left:40%;top:48%\""><img src=\""same_diff_imgs/D07.gif\"" style=\""-webkit-transform: scaleX(-1);transform: scaleX(-1);\""></div>""]","arrowup","","","","","","","","","","","","","","","","categorical_image","same_diff_imgs/D07.gif","same_diff_imgs/D07.gif","yes","same","","true","1","","","","","","","","","","","",""
"","","","","","html-keyboard-response","134","2215400","0.0-12.0-2.17","A2PUL3ZDXOW0VZ","2022-05-18T17:46:57.178Z","phon_sim-same_different-task_switching-rhyme","","null",""," ","null","","","","","","","","","","","","","","","","","","","","","","","","","","","","","","","","","","",""
"","","","","","html-keyboard-response","135","2215709","0.0-12.0-3.17","A2PUL3ZDXOW0VZ","2022-05-18T17:46:57.178Z","phon_sim-same_different-task_switching-rhyme","","null","same_different"," ","null","","","","","","","","","","","","","","","","","","","","","","","","","","","","","","","","","","",""
"","","","","","html-keyboard-response","136","2216468","0.0-12.0-0.18","A2PUL3ZDXOW0VZ","2022-05-18T17:46:57.178Z","phon_sim-same_different-task_switching-rhyme","","null","same_different","<div style=""font-size:60px"">+</div>","null","","","","","","","","","","","","","","","","","","","","","","","","","","","","","","","","","","",""
"","","","","","html-keyboard-response","137","2218095","0.0-12.0-1.18","A2PUL3ZDXOW0VZ","2022-05-18T17:46:57.178Z","phon_sim-same_different-task_switching-rhyme","","1623.3999999761581","same_different","[""<img src=\""square.png\"" width=\""100\"" height=\""100\"" style=\""position: fixed;left:39%;top:47%\""><img src=\""square.png\"" width=\""100\"" height=\""100\"" style=\""position: fixed;left:54%;top:47%\""><img src=\""square.png\"" width=\""100\"" height=\""100\"" style=\""position: fixed;left:46.5%;top:32%\""><img src=\""square.png\"" width=\""100\"" height=\""100\"" style=\""position: fixed;left:46.5%;top:61%\""><div style=\""font-size:60px;text-align: center;margin-top:35.2%\"">+</div><div id=\""first\"" style=\""position: fixed;visibility: hidden;left:48%;top:34%\""><img src=\""same_diff_imgs/C14.gif\"" style=\""-webkit-transform: scaleX(-1);transform: scaleX(-1);\""></div><div id=\""delayed\"" style=\""position: fixed;visibility: hidden;left:55%;top:49%\""><img src=\""same_diff_imgs/D07.gif\"" style=\""-webkit-transform: scaleX(-1);transform: scaleX(-1);\""></div>""]","arrowdown","","","","","","","","","","","","","","","","categorical_image","same_diff_imgs/C14.gif","same_diff_imgs/D07.gif","yes","different","1","true","","","","","","","","","","","","",""
"","","","","","html-keyboard-response","138","2218097","0.0-12.0-2.18","A2PUL3ZDXOW0VZ","2022-05-18T17:46:57.178Z","phon_sim-same_different-task_switching-rhyme","","null",""," ","null","","","","","","","","","","","","","","","","","","","","","","","","","","","","","","","","","","",""
"","","","","","html-keyboard-response","139","2218404","0.0-12.0-3.18","A2PUL3ZDXOW0VZ","2022-05-18T17:46:57.178Z","phon_sim-same_different-task_switching-rhyme","","null","same_different"," ","null","","","","","","","","","","","","","","","","","","","","","","","","","","","","","","","","","","",""
"","","","","","html-keyboard-response","140","2219176","0.0-12.0-0.19","A2PUL3ZDXOW0VZ","2022-05-18T17:46:57.178Z","phon_sim-same_different-task_switching-rhyme","","null","same_different","<div style=""font-size:60px"">+</div>","null","","","","","","","","","","","","","","","","","","","","","","","","","","","","","","","","","","",""
"","","","","","html-keyboard-response","141","2221135","0.0-12.0-1.19","A2PUL3ZDXOW0VZ","2022-05-18T17:46:57.178Z","phon_sim-same_different-task_switching-rhyme","","1956","same_different","[""<img src=\""square.png\"" width=\""100\"" height=\""100\"" style=\""position: fixed;left:39%;top:47%\""><img src=\""square.png\"" width=\""100\"" height=\""100\"" style=\""position: fixed;left:54%;top:47%\""><img src=\""square.png\"" width=\""100\"" height=\""100\"" style=\""position: fixed;left:46.5%;top:32%\""><img src=\""square.png\"" width=\""100\"" height=\""100\"" style=\""position: fixed;left:46.5%;top:61%\""><div style=\""font-size:60px; text-align: center;margin-top:35.2%\"">+</div><div id=\""first\"" style=\""position: fixed;visibility: hidden;left:48%;top:62%\""><img src=\""same_diff_imgs/C04.gif\""></div><div id=\""delayed\"" style=\""position: fixed;visibility: hidden;left:55%;top:49%\""><img src=\""same_diff_imgs/D11.gif\""></div>""]","arrowdown","","","","","","","","","","","","","","","","categorical_image","same_diff_imgs/C04.gif","same_diff_imgs/D11.gif","no","different","1","true","","","","","","","","","","","","",""
"","","","","","html-keyboard-response","142","2221137","0.0-12.0-2.19","A2PUL3ZDXOW0VZ","2022-05-18T17:46:57.178Z","phon_sim-same_different-task_switching-rhyme","","null",""," ","null","","","","","","","","","","","","","","","","","","","","","","","","","","","","","","","","","","",""
"","","","","","html-keyboard-response","143","2221450","0.0-12.0-3.19","A2PUL3ZDXOW0VZ","2022-05-18T17:46:57.178Z","phon_sim-same_different-task_switching-rhyme","","null","same_different"," ","null","","","","","","","","","","","","","","","","","","","","","","","","","","","","","","","","","","",""
"","","","","","html-keyboard-response","144","2222204","0.0-12.0-0.20","A2PUL3ZDXOW0VZ","2022-05-18T17:46:57.178Z","phon_sim-same_different-task_switching-rhyme","","null","same_different","<div style=""font-size:60px"">+</div>","null","","","","","","","","","","","","","","","","","","","","","","","","","","","","","","","","","","",""
"","","","","","html-keyboard-response","145","2223948","0.0-12.0-1.20","A2PUL3ZDXOW0VZ","2022-05-18T17:46:57.178Z","phon_sim-same_different-task_switching-rhyme","","1740.300000011921","same_different","[""<img src=\""square.png\"" width=\""100\"" height=\""100\"" style=\""position: fixed;left:39%;top:47%\""><img src=\""square.png\"" width=\""100\"" height=\""100\"" style=\""position: fixed;left:54%;top:47%\""><img src=\""square.png\"" width=\""100\"" height=\""100\"" style=\""position: fixed;left:46.5%;top:32%\""><img src=\""square.png\"" width=\""100\"" height=\""100\"" style=\""position: fixed;left:46.5%;top:61%\""><div style=\""font-size:60px; text-align: center;margin-top:35.2%\"">+</div><div id=\""first\"" style=\""position: fixed;visibility: hidden;left:55%;top:49%\""><img src=\""same_diff_imgs/D07.gif\""></div><div id=\""delayed\"" style=\""position: fixed;visibility: hidden;left:48%;top:34%\""><img src=\""same_diff_imgs/C14.gif\""></div>""]","arrowdown","","","","","","","","","","","","","","","","categorical_image","same_diff_imgs/D07.gif","same_diff_imgs/C14.gif","no","different","1","true","","","","","","","","","","","","",""
"","","","","","html-keyboard-response","146","2223950","0.0-12.0-2.20","A2PUL3ZDXOW0VZ","2022-05-18T17:46:57.178Z","phon_sim-same_different-task_switching-rhyme","","null",""," ","null","","","","","","","","","","","","","","","","","","","","","","","","","","","","","","","","","","",""
"","","","","","html-keyboard-response","147","2224264","0.0-12.0-3.20","A2PUL3ZDXOW0VZ","2022-05-18T17:46:57.178Z","phon_sim-same_different-task_switching-rhyme","","null","same_different"," ","null","","","","","","","","","","","","","","","","","","","","","","","","","","","","","","","","","","",""
"","","","","","html-keyboard-response","148","2225026","0.0-12.0-0.21","A2PUL3ZDXOW0VZ","2022-05-18T17:46:57.178Z","phon_sim-same_different-task_switching-rhyme","","null","same_different","<div style=""font-size:60px"">+</div>","null","","","","","","","","","","","","","","","","","","","","","","","","","","","","","","","","","","",""
"","","","","","html-keyboard-response","149","2226790","0.0-12.0-1.21","A2PUL3ZDXOW0VZ","2022-05-18T17:46:57.178Z","phon_sim-same_different-task_switching-rhyme","","1762","same_different","[""<img src=\""square.png\"" width=\""100\"" height=\""100\"" style=\""position: fixed;left:39%;top:47%\""><img src=\""square.png\"" width=\""100\"" height=\""100\"" style=\""position: fixed;left:54%;top:47%\""><img src=\""square.png\"" width=\""100\"" height=\""100\"" style=\""position: fixed;left:46.5%;top:32%\""><img src=\""square.png\"" width=\""100\"" height=\""100\"" style=\""position: fixed;left:46.5%;top:61%\""><div style=\""font-size:60px; text-align: center;margin-top:35.2%\"">+</div><div id=\""first\"" style=\""position: fixed;visibility: hidden;left:40%;top:48%\""><img src=\""same_diff_imgs/D09.gif\""></div><div id=\""delayed\"" style=\""position: fixed;visibility: hidden;left:48%;top:62%\""><img src=\""same_diff_imgs/D11.gif\""></div>""]","arrowup","","","","","","","","","","","","","","","","categorical_image","same_diff_imgs/D09.gif","same_diff_imgs/D11.gif","no","same","","true","1","","","","","","","","","","","",""
"","","","","","html-keyboard-response","150","2226792","0.0-12.0-2.21","A2PUL3ZDXOW0VZ","2022-05-18T17:46:57.178Z","phon_sim-same_different-task_switching-rhyme","","null",""," ","null","","","","","","","","","","","","","","","","","","","","","","","","","","","","","","","","","","",""
"","","","","","html-keyboard-response","151","2227103","0.0-12.0-3.21","A2PUL3ZDXOW0VZ","2022-05-18T17:46:57.178Z","phon_sim-same_different-task_switching-rhyme","","null","same_different"," ","null","","","","","","","","","","","","","","","","","","","","","","","","","","","","","","","","","","",""
"","","","","","html-keyboard-response","152","2227860","0.0-12.0-0.22","A2PUL3ZDXOW0VZ","2022-05-18T17:46:57.178Z","phon_sim-same_different-task_switching-rhyme","","null","same_different","<div style=""font-size:60px"">+</div>","null","","","","","","","","","","","","","","","","","","","","","","","","","","","","","","","","","","",""
"","","","","","html-keyboard-response","153","2229575","0.0-12.0-1.22","A2PUL3ZDXOW0VZ","2022-05-18T17:46:57.178Z","phon_sim-same_different-task_switching-rhyme","","1712.5","same_different","[""<img src=\""square.png\"" width=\""100\"" height=\""100\"" style=\""position: fixed;left:39%;top:47%\""><img src=\""square.png\"" width=\""100\"" height=\""100\"" style=\""position: fixed;left:54%;top:47%\""><img src=\""square.png\"" width=\""100\"" height=\""100\"" style=\""position: fixed;left:46.5%;top:32%\""><img src=\""square.png\"" width=\""100\"" height=\""100\"" style=\""position: fixed;left:46.5%;top:61%\""><div style=\""font-size:60px;text-align: center;margin-top:35.2%\"">+</div><div id=\""first\"" style=\""position: fixed;visibility: hidden;left:55%;top:49%\""><img src=\""same_diff_imgs/C14.gif\"" style=\""-webkit-transform: scaleX(-1);transform: scaleX(-1);\""></div><div id=\""delayed\"" style=\""position: fixed;visibility: hidden;left:48%;top:62%\""><img src=\""same_diff_imgs/D09.gif\"" style=\""-webkit-transform: scaleX(-1);transform: scaleX(-1);\""></div>""]","arrowdown","","","","","","","","","","","","","","","","categorical_image","same_diff_imgs/C14.gif","same_diff_imgs/D09.gif","yes","different","1","true","","","","","","","","","","","","",""
"","","","","","html-keyboard-response","154","2229577","0.0-12.0-2.22","A2PUL3ZDXOW0VZ","2022-05-18T17:46:57.178Z","phon_sim-same_different-task_switching-rhyme","","null",""," ","null","","","","","","","","","","","","","","","","","","","","","","","","","","","","","","","","","","",""
"","","","","","html-keyboard-response","155","2229886","0.0-12.0-3.22","A2PUL3ZDXOW0VZ","2022-05-18T17:46:57.178Z","phon_sim-same_different-task_switching-rhyme","","null","same_different"," ","null","","","","","","","","","","","","","","","","","","","","","","","","","","","","","","","","","","",""
"","","","","","html-keyboard-response","156","2230645","0.0-12.0-0.23","A2PUL3ZDXOW0VZ","2022-05-18T17:46:57.178Z","phon_sim-same_different-task_switching-rhyme","","null","same_different","<div style=""font-size:60px"">+</div>","null","","","","","","","","","","","","","","","","","","","","","","","","","","","","","","","","","","",""
"","","","","","html-keyboard-response","157","2232907","0.0-12.0-1.23","A2PUL3ZDXOW0VZ","2022-05-18T17:46:57.178Z","phon_sim-same_different-task_switching-rhyme","","2259.600000023842","same_different","[""<img src=\""square.png\"" width=\""100\"" height=\""100\"" style=\""position: fixed;left:39%;top:47%\""><img src=\""square.png\"" width=\""100\"" height=\""100\"" style=\""position: fixed;left:54%;top:47%\""><img src=\""square.png\"" width=\""100\"" height=\""100\"" style=\""position: fixed;left:46.5%;top:32%\""><img src=\""square.png\"" width=\""100\"" height=\""100\"" style=\""position: fixed;left:46.5%;top:61%\""><div style=\""font-size:60px;text-align: center;margin-top:35.2%\"">+</div><div id=\""first\"" style=\""position: fixed;visibility: hidden;left:48%;top:62%\""><img src=\""same_diff_imgs/C09.gif\"" style=\""-webkit-transform: scaleX(-1);transform: scaleX(-1);\""></div><div id=\""delayed\"" style=\""position: fixed;visibility: hidden;left:40%;top:48%\""><img src=\""same_diff_imgs/C14.gif\"" style=\""-webkit-transform: scaleX(-1);transform: scaleX(-1);\""></div>""]","arrowup","","","","","","","","","","","","","","","","categorical_image","same_diff_imgs/C09.gif","same_diff_imgs/C14.gif","yes","same","","true","1","","","","","","","","","","","",""
"","","","","","html-keyboard-response","158","2232909","0.0-12.0-2.23","A2PUL3ZDXOW0VZ","2022-05-18T17:46:57.178Z","phon_sim-same_different-task_switching-rhyme","","null",""," ","null","","","","","","","","","","","","","","","","","","","","","","","","","","","","","","","","","","",""
"","","","","","html-keyboard-response","159","2233211","0.0-12.0-3.23","A2PUL3ZDXOW0VZ","2022-05-18T17:46:57.178Z","phon_sim-same_different-task_switching-rhyme","","null","same_different"," ","null","","","","","","","","","","","","","","","","","","","","","","","","","","","","","","","","","","",""
"","","","","","html-keyboard-response","160","2233968","0.0-12.0-0.24","A2PUL3ZDXOW0VZ","2022-05-18T17:46:57.178Z","phon_sim-same_different-task_switching-rhyme","","null","same_different","<div style=""font-size:60px"">+</div>","null","","","","","","","","","","","","","","","","","","","","","","","","","","","","","","","","","","",""
"","","","","","html-keyboard-response","161","2235761","0.0-12.0-1.24","A2PUL3ZDXOW0VZ","2022-05-18T17:46:57.178Z","phon_sim-same_different-task_switching-rhyme","","1791.699999988079","same_different","[""<img src=\""square.png\"" width=\""100\"" height=\""100\"" style=\""position: fixed;left:39%;top:47%\""><img src=\""square.png\"" width=\""100\"" height=\""100\"" style=\""position: fixed;left:54%;top:47%\""><img src=\""square.png\"" width=\""100\"" height=\""100\"" style=\""position: fixed;left:46.5%;top:32%\""><img src=\""square.png\"" width=\""100\"" height=\""100\"" style=\""position: fixed;left:46.5%;top:61%\""><div style=\""font-size:60px; text-align: center;margin-top:35.2%\"">+</div><div id=\""first\"" style=\""position: fixed;visibility: hidden;left:48%;top:34%\""><img src=\""same_diff_imgs/D11.gif\""></div><div id=\""delayed\"" style=\""position: fixed;visibility: hidden;left:48%;top:62%\""><img src=\""same_diff_imgs/D11.gif\""></div>""]","arrowup","","","","","","","","","","","","","","","","categorical_image","same_diff_imgs/D11.gif","same_diff_imgs/D11.gif","no","same","","true","1","","","","","","","","","","","",""
"","","","","","html-keyboard-response","162","2235763","0.0-12.0-2.24","A2PUL3ZDXOW0VZ","2022-05-18T17:46:57.178Z","phon_sim-same_different-task_switching-rhyme","","null",""," ","null","","","","","","","","","","","","","","","","","","","","","","","","","","","","","","","","","","",""
"","","","","","html-keyboard-response","163","2236077","0.0-12.0-3.24","A2PUL3ZDXOW0VZ","2022-05-18T17:46:57.178Z","phon_sim-same_different-task_switching-rhyme","","null","same_different"," ","null","","","","","","","","","","","","","","","","","","","","","","","","","","","","","","","","","","",""
"","","","","","html-keyboard-response","164","2236829","0.0-12.0-0.25","A2PUL3ZDXOW0VZ","2022-05-18T17:46:57.178Z","phon_sim-same_different-task_switching-rhyme","","null","same_different","<div style=""font-size:60px"">+</div>","null","","","","","","","","","","","","","","","","","","","","","","","","","","","","","","","","","","",""
"","","","","","html-keyboard-response","165","2238954","0.0-12.0-1.25","A2PUL3ZDXOW0VZ","2022-05-18T17:46:57.178Z","phon_sim-same_different-task_switching-rhyme","","2122.199999988079","same_different","[""<img src=\""square.png\"" width=\""100\"" height=\""100\"" style=\""position: fixed;left:39%;top:47%\""><img src=\""square.png\"" width=\""100\"" height=\""100\"" style=\""position: fixed;left:54%;top:47%\""><img src=\""square.png\"" width=\""100\"" height=\""100\"" style=\""position: fixed;left:46.5%;top:32%\""><img src=\""square.png\"" width=\""100\"" height=\""100\"" style=\""position: fixed;left:46.5%;top:61%\""><div style=\""font-size:60px; text-align: center;margin-top:35.2%\"">+</div><div id=\""first\"" style=\""position: fixed;visibility: hidden;left:48%;top:62%\""><img src=\""same_diff_imgs/C04.gif\""></div><div id=\""delayed\"" style=\""position: fixed;visibility: hidden;left:48%;top:34%\""><img src=\""same_diff_imgs/C14.gif\""></div>""]","arrowdown","","","","","","","","","","","","","","","","categorical_image","same_diff_imgs/C04.gif","same_diff_imgs/C14.gif","no","same","","false","","","1","","","","","","","","","",""
"","","","","","html-keyboard-response","166","2239458","0.0-12.0-2.25","A2PUL3ZDXOW0VZ","2022-05-18T17:46:57.178Z","phon_sim-same_different-task_switching-rhyme","","null","","<div style=""color:darkred; font-size:40px"">Incorrect!</div>","null","","","","","","","","","","","","","","","","","","","","","","","","","","","","","","","","","","",""
"","","","","","html-keyboard-response","167","2239768","0.0-12.0-3.25","A2PUL3ZDXOW0VZ","2022-05-18T17:46:57.178Z","phon_sim-same_different-task_switching-rhyme","","null","same_different"," ","null","","","","","","","","","","","","","","","","","","","","","","","","","","","","","","","","","","",""
"","","","","","html-keyboard-response","168","2240521","0.0-12.0-0.26","A2PUL3ZDXOW0VZ","2022-05-18T17:46:57.178Z","phon_sim-same_different-task_switching-rhyme","","null","same_different","<div style=""font-size:60px"">+</div>","null","","","","","","","","","","","","","","","","","","","","","","","","","","","","","","","","","","",""
"","","","","","html-keyboard-response","169","2242701","0.0-12.0-1.26","A2PUL3ZDXOW0VZ","2022-05-18T17:46:57.178Z","phon_sim-same_different-task_switching-rhyme","","2177.399999976158","same_different","[""<img src=\""square.png\"" width=\""100\"" height=\""100\"" style=\""position: fixed;left:39%;top:47%\""><img src=\""square.png\"" width=\""100\"" height=\""100\"" style=\""position: fixed;left:54%;top:47%\""><img src=\""square.png\"" width=\""100\"" height=\""100\"" style=\""position: fixed;left:46.5%;top:32%\""><img src=\""square.png\"" width=\""100\"" height=\""100\"" style=\""position: fixed;left:46.5%;top:61%\""><div style=\""font-size:60px;text-align: center;margin-top:35.2%\"">+</div><div id=\""first\"" style=\""position: fixed;visibility: hidden;left:48%;top:34%\""><img src=\""same_diff_imgs/C04.gif\"" style=\""-webkit-transform: scaleX(-1);transform: scaleX(-1);\""></div><div id=\""delayed\"" style=\""position: fixed;visibility: hidden;left:40%;top:48%\""><img src=\""same_diff_imgs/D09.gif\"" style=\""-webkit-transform: scaleX(-1);transform: scaleX(-1);\""></div>""]","arrowdown","","","","","","","","","","","","","","","","categorical_image","same_diff_imgs/C04.gif","same_diff_imgs/D09.gif","yes","different","1","true","","","","","","","","","","","","",""
"","","","","","html-keyboard-response","170","2242703","0.0-12.0-2.26","A2PUL3ZDXOW0VZ","2022-05-18T17:46:57.178Z","phon_sim-same_different-task_switching-rhyme","","null",""," ","null","","","","","","","","","","","","","","","","","","","","","","","","","","","","","","","","","","",""
"","","","","","html-keyboard-response","171","2243009","0.0-12.0-3.26","A2PUL3ZDXOW0VZ","2022-05-18T17:46:57.178Z","phon_sim-same_different-task_switching-rhyme","","null","same_different"," ","null","","","","","","","","","","","","","","","","","","","","","","","","","","","","","","","","","","",""
"","","","","","html-keyboard-response","172","2243767","0.0-12.0-0.27","A2PUL3ZDXOW0VZ","2022-05-18T17:46:57.178Z","phon_sim-same_different-task_switching-rhyme","","null","same_different","<div style=""font-size:60px"">+</div>","null","","","","","","","","","","","","","","","","","","","","","","","","","","","","","","","","","","",""
"","","","","","html-keyboard-response","173","2245471","0.0-12.0-1.27","A2PUL3ZDXOW0VZ","2022-05-18T17:46:57.178Z","phon_sim-same_different-task_switching-rhyme","","1702.199999988079","same_different","[""<img src=\""square.png\"" width=\""100\"" height=\""100\"" style=\""position: fixed;left:39%;top:47%\""><img src=\""square.png\"" width=\""100\"" height=\""100\"" style=\""position: fixed;left:54%;top:47%\""><img src=\""square.png\"" width=\""100\"" height=\""100\"" style=\""position: fixed;left:46.5%;top:32%\""><img src=\""square.png\"" width=\""100\"" height=\""100\"" style=\""position: fixed;left:46.5%;top:61%\""><div style=\""font-size:60px; text-align: center;margin-top:35.2%\"">+</div><div id=\""first\"" style=\""position: fixed;visibility: hidden;left:48%;top:34%\""><img src=\""same_diff_imgs/D07.gif\""></div><div id=\""delayed\"" style=\""position: fixed;visibility: hidden;left:40%;top:48%\""><img src=\""same_diff_imgs/D09.gif\""></div>""]","arrowup","","","","","","","","","","","","","","","","categorical_image","same_diff_imgs/D07.gif","same_diff_imgs/D09.gif","no","same","","true","1","","","","","","","","","","","",""
"","","","","","html-keyboard-response","174","2245473","0.0-12.0-2.27","A2PUL3ZDXOW0VZ","2022-05-18T17:46:57.178Z","phon_sim-same_different-task_switching-rhyme","","null",""," ","null","","","","","","","","","","","","","","","","","","","","","","","","","","","","","","","","","","",""
"","","","","","html-keyboard-response","175","2245779","0.0-12.0-3.27","A2PUL3ZDXOW0VZ","2022-05-18T17:46:57.178Z","phon_sim-same_different-task_switching-rhyme","","null","same_different"," ","null","","","","","","","","","","","","","","","","","","","","","","","","","","","","","","","","","","",""
"","","","","","html-keyboard-response","176","2246532","0.0-12.0-0.28","A2PUL3ZDXOW0VZ","2022-05-18T17:46:57.178Z","phon_sim-same_different-task_switching-rhyme","","null","same_different","<div style=""font-size:60px"">+</div>","null","","","","","","","","","","","","","","","","","","","","","","","","","","","","","","","","","","",""
"","","","","","html-keyboard-response","177","2248131","0.0-12.0-1.28","A2PUL3ZDXOW0VZ","2022-05-18T17:46:57.178Z","phon_sim-same_different-task_switching-rhyme","","1597.6000000238419","same_different","[""<img src=\""square.png\"" width=\""100\"" height=\""100\"" style=\""position: fixed;left:39%;top:47%\""><img src=\""square.png\"" width=\""100\"" height=\""100\"" style=\""position: fixed;left:54%;top:47%\""><img src=\""square.png\"" width=\""100\"" height=\""100\"" style=\""position: fixed;left:46.5%;top:32%\""><img src=\""square.png\"" width=\""100\"" height=\""100\"" style=\""position: fixed;left:46.5%;top:61%\""><div style=\""font-size:60px; text-align: center;margin-top:35.2%\"">+</div><div id=\""first\"" style=\""position: fixed;visibility: hidden;left:48%;top:62%\""><img src=\""same_diff_imgs/D11.gif\""></div><div id=\""delayed\"" style=\""position: fixed;visibility: hidden;left:55%;top:49%\""><img src=\""same_diff_imgs/D07.gif\""></div>""]","arrowup","","","","","","","","","","","","","","","","categorical_image","same_diff_imgs/D11.gif","same_diff_imgs/D07.gif","no","same","","true","1","","","","","","","","","","","",""
"","","","","","html-keyboard-response","178","2248133","0.0-12.0-2.28","A2PUL3ZDXOW0VZ","2022-05-18T17:46:57.178Z","phon_sim-same_different-task_switching-rhyme","","null",""," ","null","","","","","","","","","","","","","","","","","","","","","","","","","","","","","","","","","","",""
"","","","","","html-keyboard-response","179","2248447","0.0-12.0-3.28","A2PUL3ZDXOW0VZ","2022-05-18T17:46:57.178Z","phon_sim-same_different-task_switching-rhyme","","null","same_different"," ","null","","","","","","","","","","","","","","","","","","","","","","","","","","","","","","","","","","",""
"","","","","","html-keyboard-response","180","2249198","0.0-12.0-0.29","A2PUL3ZDXOW0VZ","2022-05-18T17:46:57.178Z","phon_sim-same_different-task_switching-rhyme","","null","same_different","<div style=""font-size:60px"">+</div>","null","","","","","","","","","","","","","","","","","","","","","","","","","","","","","","","","","","",""
