success,timeout,failed_images,failed_audio,failed_video,trial_type,trial_index,time_elapsed,internal_node_id,worker_id,start_time,experiment_order,view_history,rt,experiment,stimulus,response,wait_time,correct,phase,image_1,image_2,cor_key,type,question_order,talk_out_loud,strategy_free_ans,condition,answer,operation,color_cue,trial_no,symbol_cue,judgment_type,stim_1,stim_2,inverted,true_pos,true_neg,false_pos,false_neg,word_1,word_2,word_3,word_4,word_5,original_word_set,response_1,response_2,response_3,response_4,response_5
TRUE,FALSE,[],[],[],preload,0,3112,0.0-0.0,AMNUNZ65OSTFO,2022-05-18T15:17:28.877Z,rhyme-task_switching-same_different-phon_sim,,,,,,,,,,,,,,,,,,,,,,,,,,,,,,,,,,,,,,,,
,,,,,instructions,1,29482,0.0-1.0,AMNUNZ65OSTFO,2022-05-18T15:17:28.877Z,rhyme-task_switching-same_different-phon_sim,"[{""page_index"":0,""viewing_time"":26368.5}]",26368.9,,,,,,,,,,,,,,,,,,,,,,,,,,,,,,,,,,,,,,
TRUE,,,,,fullscreen,2,38118,0.0-2.0,AMNUNZ65OSTFO,2022-05-18T15:17:28.877Z,rhyme-task_switching-same_different-phon_sim,,,,,,,,,,,,,,,,,,,,,,,,,,,,,,,,,,,,,,,,
,,,,,instructions,3,71490,0.0-3.0,AMNUNZ65OSTFO,2022-05-18T15:17:28.877Z,rhyme-task_switching-same_different-phon_sim,"[{""page_index"":0,""viewing_time"":33353.39999997616}]",33353.8,rhyme,,,,,,,,,,,,,,,,,,,,,,,,,,,,,,,,,,,,,
,,,,,html-keyboard-response,4,71742,0.0-4.0-0.0,AMNUNZ65OSTFO,2022-05-18T15:17:28.877Z,rhyme-task_switching-same_different-phon_sim,,null,rhyme,"<div style=""font-size:60px;"">+</div>",null,250,,,,,,,,,,,,,,,,,,,,,,,,,,,,,,,,,,
,,,,,html-keyboard-response,5,72256,0.0-4.0-1.0,AMNUNZ65OSTFO,2022-05-18T15:17:28.877Z,rhyme-task_switching-same_different-phon_sim,,null,rhyme,"<img src=""square.png"" width=""306"" height=""306"" style=""position: fixed;left:14%;top:30%""><img src=""square.png"" width=""306"" height=""306"" style=""position: fixed;left:64%;top:30%"">",null,,,,,,,,,,,,,,,,,,,,,,,,,,,,,,,,,,,
,,,,,categorize-html,6,75064,0.0-4.0-2.0,AMNUNZ65OSTFO,2022-05-18T15:17:28.877Z,rhyme-task_switching-same_different-phon_sim,,1803.4,rhyme,"<div style=""border: 3px solid #000000; position: fixed;left:14%;top:30%""><img src=""visual/chess.png"" width=""300""></div><div style=""border: 3px solid #000000; position: fixed;left:64%;top:30%""><img src=""visual/suit.png"" width=""300""></div>",arrowdown,,TRUE,training,visual/chess.png,visual/suit.png,ArrowDown,NA,,,,,,,,,,,,,,,,,,,,,,,,,,,,
,,,,,html-keyboard-response,7,75317,0.0-4.0-0.1,AMNUNZ65OSTFO,2022-05-18T15:17:28.877Z,rhyme-task_switching-same_different-phon_sim,,null,rhyme,"<div style=""font-size:60px;"">+</div>",null,250,,,,,,,,,,,,,,,,,,,,,,,,,,,,,,,,,,
,,,,,html-keyboard-response,8,75819,0.0-4.0-1.1,AMNUNZ65OSTFO,2022-05-18T15:17:28.877Z,rhyme-task_switching-same_different-phon_sim,,null,rhyme,"<img src=""square.png"" width=""306"" height=""306"" style=""position: fixed;left:14%;top:30%""><img src=""square.png"" width=""306"" height=""306"" style=""position: fixed;left:64%;top:30%"">",null,,,,,,,,,,,,,,,,,,,,,,,,,,,,,,,,,,,
,,,,,categorize-html,9,77918,0.0-4.0-2.1,AMNUNZ65OSTFO,2022-05-18T15:17:28.877Z,rhyme-task_switching-same_different-phon_sim,,1094.9,rhyme,"<div style=""border: 3px solid #000000; position: fixed;left:14%;top:30%""><img src=""visual/house.png"" width=""300""></div><div style=""border: 3px solid #000000; position: fixed;left:64%;top:30%""><img src=""visual/mouse.png"" width=""300""></div>",arrowup,,TRUE,training,visual/house.png,visual/mouse.png,ArrowUp,NA,,,,,,,,,,,,,,,,,,,,,,,,,,,,
,,,,,html-keyboard-response,10,78671,0.0-4.0-0.2,AMNUNZ65OSTFO,2022-05-18T15:17:28.877Z,rhyme-task_switching-same_different-phon_sim,,null,rhyme,"<div style=""font-size:60px;"">+</div>",null,750,,,,,,,,,,,,,,,,,,,,,,,,,,,,,,,,,,
,,,,,html-keyboard-response,11,79175,0.0-4.0-1.2,AMNUNZ65OSTFO,2022-05-18T15:17:28.877Z,rhyme-task_switching-same_different-phon_sim,,null,rhyme,"<img src=""square.png"" width=""306"" height=""306"" style=""position: fixed;left:14%;top:30%""><img src=""square.png"" width=""306"" height=""306"" style=""position: fixed;left:64%;top:30%"">",null,,,,,,,,,,,,,,,,,,,,,,,,,,,,,,,,,,,
,,,,,categorize-html,12,81786,0.0-4.0-2.2,AMNUNZ65OSTFO,2022-05-18T15:17:28.877Z,rhyme-task_switching-same_different-phon_sim,,1606.3,rhyme,"<div style=""border: 3px solid #000000; position: fixed;left:14%;top:30%""><img src=""visual/mouse.png"" width=""300""></div><div style=""border: 3px solid #000000; position: fixed;left:64%;top:30%""><img src=""visual/dress.png"" width=""300""></div>",arrowdown,,TRUE,training,visual/mouse.png,visual/dress.png,ArrowDown,NA,,,,,,,,,,,,,,,,,,,,,,,,,,,,
,,,,,html-keyboard-response,13,82289,0.0-4.0-0.3,AMNUNZ65OSTFO,2022-05-18T15:17:28.877Z,rhyme-task_switching-same_different-phon_sim,,null,rhyme,"<div style=""font-size:60px;"">+</div>",null,500,,,,,,,,,,,,,,,,,,,,,,,,,,,,,,,,,,
,,,,,html-keyboard-response,14,82807,0.0-4.0-1.3,AMNUNZ65OSTFO,2022-05-18T15:17:28.877Z,rhyme-task_switching-same_different-phon_sim,,null,rhyme,"<img src=""square.png"" width=""306"" height=""306"" style=""position: fixed;left:14%;top:30%""><img src=""square.png"" width=""306"" height=""306"" style=""position: fixed;left:64%;top:30%"">",null,,,,,,,,,,,,,,,,,,,,,,,,,,,,,,,,,,,
,,,,,categorize-html,15,85441,0.0-4.0-2.3,AMNUNZ65OSTFO,2022-05-18T15:17:28.877Z,rhyme-task_switching-same_different-phon_sim,,1629.1,rhyme,"<div style=""border: 3px solid #000000; position: fixed;left:14%;top:30%""><img src=""visual/dress.png"" width=""300""></div><div style=""border: 3px solid #000000; position: fixed;left:64%;top:30%""><img src=""visual/chess.png"" width=""300""></div>",arrowdown,,FALSE,training,visual/dress.png,visual/chess.png,ArrowUp,NA,,,,,,,,,,,,,,,,,,,,,,,,,,,,
,,,,,instructions,16,87150,0.0-5.0,AMNUNZ65OSTFO,2022-05-18T15:17:28.877Z,rhyme-task_switching-same_different-phon_sim,"[{""page_index"":0,""viewing_time"":1708.5}]",1708.9,,,,,,,,,,,,,,,,,,,,,,,,,,,,,,,,,,,,,,
,,,,,html-keyboard-response,17,87402,0.0-6.0-0.0,AMNUNZ65OSTFO,2022-05-18T15:17:28.877Z,rhyme-task_switching-same_different-phon_sim,,null,rhyme,"<div style=""font-size:60px;"">+</div>",null,250,,,,,,,,,,,,,,,,,,,,,,,,,,,,,,,,,,
,,,,,html-keyboard-response,18,87904,0.0-6.0-1.0,AMNUNZ65OSTFO,2022-05-18T15:17:28.877Z,rhyme-task_switching-same_different-phon_sim,,null,rhyme,"<img src=""square.png"" width=""306"" height=""306"" style=""position: fixed;left:14%;top:30%""><img src=""square.png"" width=""306"" height=""306"" style=""position: fixed;left:64%;top:30%"">",null,,,,,,,,,,,,,,,,,,,,,,,,,,,,,,,,,,,
,,,,,html-keyboard-response,19,89914,0.0-6.0-2.0,AMNUNZ65OSTFO,2022-05-18T15:17:28.877Z,rhyme-task_switching-same_different-phon_sim,,2007.4,rhyme,"<div style=""border: 3px solid #000000; position: fixed;left:14%;top:30%""><img src=""visual/deer.png"" width=""300""></div><div style=""border: 3px solid #000000; position: fixed;left:64%;top:30%""><img src=""visual/beer.png"" width=""300""></div>",arrowup,,TRUE,experiment,visual/deer.png,visual/beer.png,ArrowUp,ortho,,,,,,,,,,,,,,,,,,,,,,,,,,,,
,,,,,html-keyboard-response,20,90915,0.0-6.0-0.1,AMNUNZ65OSTFO,2022-05-18T15:17:28.877Z,rhyme-task_switching-same_different-phon_sim,,null,rhyme,"<div style=""font-size:60px;"">+</div>",null,1000,,,,,,,,,,,,,,,,,,,,,,,,,,,,,,,,,,
,,,,,html-keyboard-response,21,91419,0.0-6.0-1.1,AMNUNZ65OSTFO,2022-05-18T15:17:28.877Z,rhyme-task_switching-same_different-phon_sim,,null,rhyme,"<img src=""square.png"" width=""306"" height=""306"" style=""position: fixed;left:14%;top:30%""><img src=""square.png"" width=""306"" height=""306"" style=""position: fixed;left:64%;top:30%"">",null,,,,,,,,,,,,,,,,,,,,,,,,,,,,,,,,,,,
,,,,,html-keyboard-response,22,92905,0.0-6.0-2.1,AMNUNZ65OSTFO,2022-05-18T15:17:28.877Z,rhyme-task_switching-same_different-phon_sim,,1483.6,rhyme,"<div style=""border: 3px solid #000000; position: fixed;left:14%;top:30%""><img src=""visual/cat.png"" width=""300""></div><div style=""border: 3px solid #000000; position: fixed;left:64%;top:30%""><img src=""visual/hat.png"" width=""300""></div>",arrowup,,TRUE,experiment,visual/cat.png,visual/hat.png,ArrowUp,ortho,,,,,,,,,,,,,,,,,,,,,,,,,,,,
,,,,,html-keyboard-response,23,93407,0.0-6.0-0.2,AMNUNZ65OSTFO,2022-05-18T15:17:28.877Z,rhyme-task_switching-same_different-phon_sim,,null,rhyme,"<div style=""font-size:60px;"">+</div>",null,500,,,,,,,,,,,,,,,,,,,,,,,,,,,,,,,,,,
,,,,,html-keyboard-response,24,93910,0.0-6.0-1.2,AMNUNZ65OSTFO,2022-05-18T15:17:28.877Z,rhyme-task_switching-same_different-phon_sim,,null,rhyme,"<img src=""square.png"" width=""306"" height=""306"" style=""position: fixed;left:14%;top:30%""><img src=""square.png"" width=""306"" height=""306"" style=""position: fixed;left:64%;top:30%"">",null,,,,,,,,,,,,,,,,,,,,,,,,,,,,,,,,,,,
,,,,,html-keyboard-response,25,95349,0.0-6.0-2.2,AMNUNZ65OSTFO,2022-05-18T15:17:28.877Z,rhyme-task_switching-same_different-phon_sim,,1436.3,rhyme,"<div style=""border: 3px solid #000000; position: fixed;left:14%;top:30%""><img src=""visual/shark.png"" width=""300""></div><div style=""border: 3px solid #000000; position: fixed;left:64%;top:30%""><img src=""visual/park.png"" width=""300""></div>",arrowup,,TRUE,experiment,visual/shark.png,visual/park.png,ArrowUp,ortho,,,,,,,,,,,,,,,,,,,,,,,,,,,,
,,,,,html-keyboard-response,26,96100,0.0-6.0-0.3,AMNUNZ65OSTFO,2022-05-18T15:17:28.877Z,rhyme-task_switching-same_different-phon_sim,,null,rhyme,"<div style=""font-size:60px;"">+</div>",null,750,,,,,,,,,,,,,,,,,,,,,,,,,,,,,,,,,,
,,,,,html-keyboard-response,27,96602,0.0-6.0-1.3,AMNUNZ65OSTFO,2022-05-18T15:17:28.877Z,rhyme-task_switching-same_different-phon_sim,,null,rhyme,"<img src=""square.png"" width=""306"" height=""306"" style=""position: fixed;left:14%;top:30%""><img src=""square.png"" width=""306"" height=""306"" style=""position: fixed;left:64%;top:30%"">",null,,,,,,,,,,,,,,,,,,,,,,,,,,,,,,,,,,,
,,,,,html-keyboard-response,28,98068,0.0-6.0-2.3,AMNUNZ65OSTFO,2022-05-18T15:17:28.877Z,rhyme-task_switching-same_different-phon_sim,,1463.8,rhyme,"<div style=""border: 3px solid #000000; position: fixed;left:14%;top:30%""><img src=""visual/key.png"" width=""300""></div><div style=""border: 3px solid #000000; position: fixed;left:64%;top:30%""><img src=""visual/tree.png"" width=""300""></div>",arrowup,,TRUE,experiment,visual/key.png,visual/tree.png,ArrowUp,non-ortho,,,,,,,,,,,,,,,,,,,,,,,,,,,,
,,,,,html-keyboard-response,29,99070,0.0-6.0-0.4,AMNUNZ65OSTFO,2022-05-18T15:17:28.877Z,rhyme-task_switching-same_different-phon_sim,,null,rhyme,"<div style=""font-size:60px;"">+</div>",null,1000,,,,,,,,,,,,,,,,,,,,,,,,,,,,,,,,,,
,,,,,html-keyboard-response,30,99575,0.0-6.0-1.4,AMNUNZ65OSTFO,2022-05-18T15:17:28.877Z,rhyme-task_switching-same_different-phon_sim,,null,rhyme,"<img src=""square.png"" width=""306"" height=""306"" style=""position: fixed;left:14%;top:30%""><img src=""square.png"" width=""306"" height=""306"" style=""position: fixed;left:64%;top:30%"">",null,,,,,,,,,,,,,,,,,,,,,,,,,,,,,,,,,,,
,,,,,html-keyboard-response,31,101302,0.0-6.0-2.4,AMNUNZ65OSTFO,2022-05-18T15:17:28.877Z,rhyme-task_switching-same_different-phon_sim,,1724.5,rhyme,"<div style=""border: 3px solid #000000; position: fixed;left:14%;top:30%""><img src=""visual/screw.png"" width=""300""></div><div style=""border: 3px solid #000000; position: fixed;left:64%;top:30%""><img src=""visual/shoe.png"" width=""300""></div>",arrowup,,TRUE,experiment,visual/screw.png,visual/shoe.png,ArrowUp,non-ortho,,,,,,,,,,,,,,,,,,,,,,,,,,,,
,,,,,html-keyboard-response,32,102305,0.0-6.0-0.5,AMNUNZ65OSTFO,2022-05-18T15:17:28.877Z,rhyme-task_switching-same_different-phon_sim,,null,rhyme,"<div style=""font-size:60px;"">+</div>",null,1000,,,,,,,,,,,,,,,,,,,,,,,,,,,,,,,,,,
,,,,,html-keyboard-response,33,102813,0.0-6.0-1.5,AMNUNZ65OSTFO,2022-05-18T15:17:28.877Z,rhyme-task_switching-same_different-phon_sim,,null,rhyme,"<img src=""square.png"" width=""306"" height=""306"" style=""position: fixed;left:14%;top:30%""><img src=""square.png"" width=""306"" height=""306"" style=""position: fixed;left:64%;top:30%"">",null,,,,,,,,,,,,,,,,,,,,,,,,,,,,,,,,,,,
,,,,,html-keyboard-response,34,104182,0.0-6.0-2.5,AMNUNZ65OSTFO,2022-05-18T15:17:28.877Z,rhyme-task_switching-same_different-phon_sim,,1367,rhyme,"<div style=""border: 3px solid #000000; position: fixed;left:14%;top:30%""><img src=""visual/bone.png"" width=""300""></div><div style=""border: 3px solid #000000; position: fixed;left:64%;top:30%""><img src=""visual/cone.png"" width=""300""></div>",arrowdown,,FALSE,experiment,visual/bone.png,visual/cone.png,ArrowUp,ortho,,,,,,,,,,,,,,,,,,,,,,,,,,,,
,,,,,html-keyboard-response,35,105184,0.0-6.0-0.6,AMNUNZ65OSTFO,2022-05-18T15:17:28.877Z,rhyme-task_switching-same_different-phon_sim,,null,rhyme,"<div style=""font-size:60px;"">+</div>",null,1000,,,,,,,,,,,,,,,,,,,,,,,,,,,,,,,,,,
,,,,,html-keyboard-response,36,105687,0.0-6.0-1.6,AMNUNZ65OSTFO,2022-05-18T15:17:28.877Z,rhyme-task_switching-same_different-phon_sim,,null,rhyme,"<img src=""square.png"" width=""306"" height=""306"" style=""position: fixed;left:14%;top:30%""><img src=""square.png"" width=""306"" height=""306"" style=""position: fixed;left:64%;top:30%"">",null,,,,,,,,,,,,,,,,,,,,,,,,,,,,,,,,,,,
,,,,,html-keyboard-response,37,107982,0.0-6.0-2.6,AMNUNZ65OSTFO,2022-05-18T15:17:28.877Z,rhyme-task_switching-same_different-phon_sim,,2292.3,rhyme,"<div style=""border: 3px solid #000000; position: fixed;left:14%;top:30%""><img src=""visual/key.png"" width=""300""></div><div style=""border: 3px solid #000000; position: fixed;left:64%;top:30%""><img src=""visual/snail.png"" width=""300""></div>",arrowdown,,TRUE,experiment,visual/key.png,visual/snail.png,ArrowDown,NR,,,,,,,,,,,,,,,,,,,,,,,,,,,,
,,,,,html-keyboard-response,38,108483,0.0-6.0-0.7,AMNUNZ65OSTFO,2022-05-18T15:17:28.877Z,rhyme-task_switching-same_different-phon_sim,,null,rhyme,"<div style=""font-size:60px;"">+</div>",null,500,,,,,,,,,,,,,,,,,,,,,,,,,,,,,,,,,,
,,,,,html-keyboard-response,39,108986,0.0-6.0-1.7,AMNUNZ65OSTFO,2022-05-18T15:17:28.877Z,rhyme-task_switching-same_different-phon_sim,,null,rhyme,"<img src=""square.png"" width=""306"" height=""306"" style=""position: fixed;left:14%;top:30%""><img src=""square.png"" width=""306"" height=""306"" style=""position: fixed;left:64%;top:30%"">",null,,,,,,,,,,,,,,,,,,,,,,,,,,,,,,,,,,,
,,,,,html-keyboard-response,40,111131,0.0-6.0-2.7,AMNUNZ65OSTFO,2022-05-18T15:17:28.877Z,rhyme-task_switching-same_different-phon_sim,,2143.8,rhyme,"<div style=""border: 3px solid #000000; position: fixed;left:14%;top:30%""><img src=""visual/nail.png"" width=""300""></div><div style=""border: 3px solid #000000; position: fixed;left:64%;top:30%""><img src=""visual/whale.png"" width=""300""></div>",arrowdown,,FALSE,experiment,visual/nail.png,visual/whale.png,ArrowUp,non-orthoh,,,,,,,,,,,,,,,,,,,,,,,,,,,,
,,,,,html-keyboard-response,41,111890,0.0-6.0-0.8,AMNUNZ65OSTFO,2022-05-18T15:17:28.877Z,rhyme-task_switching-same_different-phon_sim,,null,rhyme,"<div style=""font-size:60px;"">+</div>",null,750,,,,,,,,,,,,,,,,,,,,,,,,,,,,,,,,,,
,,,,,html-keyboard-response,42,112391,0.0-6.0-1.8,AMNUNZ65OSTFO,2022-05-18T15:17:28.877Z,rhyme-task_switching-same_different-phon_sim,,null,rhyme,"<img src=""square.png"" width=""306"" height=""306"" style=""position: fixed;left:14%;top:30%""><img src=""square.png"" width=""306"" height=""306"" style=""position: fixed;left:64%;top:30%"">",null,,,,,,,,,,,,,,,,,,,,,,,,,,,,,,,,,,,
,,,,,html-keyboard-response,43,114610,0.0-6.0-2.8,AMNUNZ65OSTFO,2022-05-18T15:17:28.877Z,rhyme-task_switching-same_different-phon_sim,,2216.2,rhyme,"<div style=""border: 3px solid #000000; position: fixed;left:14%;top:30%""><img src=""visual/well.png"" width=""300""></div><div style=""border: 3px solid #000000; position: fixed;left:64%;top:30%""><img src=""visual/bell.png"" width=""300""></div>",arrowup,,TRUE,experiment,visual/well.png,visual/bell.png,ArrowUp,ortho,,,,,,,,,,,,,,,,,,,,,,,,,,,,
,,,,,html-keyboard-response,44,114862,0.0-6.0-0.9,AMNUNZ65OSTFO,2022-05-18T15:17:28.877Z,rhyme-task_switching-same_different-phon_sim,,null,rhyme,"<div style=""font-size:60px;"">+</div>",null,250,,,,,,,,,,,,,,,,,,,,,,,,,,,,,,,,,,
,,,,,html-keyboard-response,45,115365,0.0-6.0-1.9,AMNUNZ65OSTFO,2022-05-18T15:17:28.877Z,rhyme-task_switching-same_different-phon_sim,,null,rhyme,"<img src=""square.png"" width=""306"" height=""306"" style=""position: fixed;left:14%;top:30%""><img src=""square.png"" width=""306"" height=""306"" style=""position: fixed;left:64%;top:30%"">",null,,,,,,,,,,,,,,,,,,,,,,,,,,,,,,,,,,,
,,,,,html-keyboard-response,46,117181,0.0-6.0-2.9,AMNUNZ65OSTFO,2022-05-18T15:17:28.877Z,rhyme-task_switching-same_different-phon_sim,,1813.2,rhyme,"<div style=""border: 3px solid #000000; position: fixed;left:14%;top:30%""><img src=""visual/bear.png"" width=""300""></div><div style=""border: 3px solid #000000; position: fixed;left:64%;top:30%""><img src=""visual/hair.png"" width=""300""></div>",arrowdown,,FALSE,experiment,visual/bear.png,visual/hair.png,ArrowUp,non-ortho,,,,,,,,,,,,,,,,,,,,,,,,,,,,
,,,,,html-keyboard-response,47,117433,0.0-6.0-0.10,AMNUNZ65OSTFO,2022-05-18T15:17:28.877Z,rhyme-task_switching-same_different-phon_sim,,null,rhyme,"<div style=""font-size:60px;"">+</div>",null,250,,,,,,,,,,,,,,,,,,,,,,,,,,,,,,,,,,
,,,,,html-keyboard-response,48,117935,0.0-6.0-1.10,AMNUNZ65OSTFO,2022-05-18T15:17:28.877Z,rhyme-task_switching-same_different-phon_sim,,null,rhyme,"<img src=""square.png"" width=""306"" height=""306"" style=""position: fixed;left:14%;top:30%""><img src=""square.png"" width=""306"" height=""306"" style=""position: fixed;left:64%;top:30%"">",null,,,,,,,,,,,,,,,,,,,,,,,,,,,,,,,,,,,
,,,,,html-keyboard-response,49,120070,0.0-6.0-2.10,AMNUNZ65OSTFO,2022-05-18T15:17:28.877Z,rhyme-task_switching-same_different-phon_sim,,2132.4,rhyme,"<div style=""border: 3px solid #000000; position: fixed;left:14%;top:30%""><img src=""visual/dart.png"" width=""300""></div><div style=""border: 3px solid #000000; position: fixed;left:64%;top:30%""><img src=""visual/tie.png"" width=""300""></div>",arrowdown,,TRUE,experiment,visual/dart.png,visual/tie.png,ArrowDown,NR,,,,,,,,,,,,,,,,,,,,,,,,,,,,
,,,,,html-keyboard-response,50,120572,0.0-6.0-0.11,AMNUNZ65OSTFO,2022-05-18T15:17:28.877Z,rhyme-task_switching-same_different-phon_sim,,null,rhyme,"<div style=""font-size:60px;"">+</div>",null,500,,,,,,,,,,,,,,,,,,,,,,,,,,,,,,,,,,
,,,,,html-keyboard-response,51,121075,0.0-6.0-1.11,AMNUNZ65OSTFO,2022-05-18T15:17:28.877Z,rhyme-task_switching-same_different-phon_sim,,null,rhyme,"<img src=""square.png"" width=""306"" height=""306"" style=""position: fixed;left:14%;top:30%""><img src=""square.png"" width=""306"" height=""306"" style=""position: fixed;left:64%;top:30%"">",null,,,,,,,,,,,,,,,,,,,,,,,,,,,,,,,,,,,
,,,,,html-keyboard-response,52,122833,0.0-6.0-2.11,AMNUNZ65OSTFO,2022-05-18T15:17:28.877Z,rhyme-task_switching-same_different-phon_sim,,1757.1,rhyme,"<div style=""border: 3px solid #000000; position: fixed;left:14%;top:30%""><img src=""visual/plane.png"" width=""300""></div><div style=""border: 3px solid #000000; position: fixed;left:64%;top:30%""><img src=""visual/chain.png"" width=""300""></div>",arrowup,,TRUE,experiment,visual/plane.png,visual/chain.png,ArrowUp,non-ortho,,,,,,,,,,,,,,,,,,,,,,,,,,,,
,,,,,html-keyboard-response,53,123085,0.0-6.0-0.12,AMNUNZ65OSTFO,2022-05-18T15:17:28.877Z,rhyme-task_switching-same_different-phon_sim,,null,rhyme,"<div style=""font-size:60px;"">+</div>",null,250,,,,,,,,,,,,,,,,,,,,,,,,,,,,,,,,,,
,,,,,html-keyboard-response,54,123589,0.0-6.0-1.12,AMNUNZ65OSTFO,2022-05-18T15:17:28.877Z,rhyme-task_switching-same_different-phon_sim,,null,rhyme,"<img src=""square.png"" width=""306"" height=""306"" style=""position: fixed;left:14%;top:30%""><img src=""square.png"" width=""306"" height=""306"" style=""position: fixed;left:64%;top:30%"">",null,,,,,,,,,,,,,,,,,,,,,,,,,,,,,,,,,,,
,,,,,html-keyboard-response,55,125489,0.0-6.0-2.12,AMNUNZ65OSTFO,2022-05-18T15:17:28.877Z,rhyme-task_switching-same_different-phon_sim,,1895.5,rhyme,"<div style=""border: 3px solid #000000; position: fixed;left:14%;top:30%""><img src=""visual/tie.png"" width=""300""></div><div style=""border: 3px solid #000000; position: fixed;left:64%;top:30%""><img src=""visual/fly.png"" width=""300""></div>",arrowup,,TRUE,experiment,visual/tie.png,visual/fly.png,ArrowUp,non-ortho,,,,,,,,,,,,,,,,,,,,,,,,,,,,
,,,,,html-keyboard-response,56,126242,0.0-6.0-0.13,AMNUNZ65OSTFO,2022-05-18T15:17:28.877Z,rhyme-task_switching-same_different-phon_sim,,null,rhyme,"<div style=""font-size:60px;"">+</div>",null,750,,,,,,,,,,,,,,,,,,,,,,,,,,,,,,,,,,
,,,,,html-keyboard-response,57,126745,0.0-6.0-1.13,AMNUNZ65OSTFO,2022-05-18T15:17:28.877Z,rhyme-task_switching-same_different-phon_sim,,null,rhyme,"<img src=""square.png"" width=""306"" height=""306"" style=""position: fixed;left:14%;top:30%""><img src=""square.png"" width=""306"" height=""306"" style=""position: fixed;left:64%;top:30%"">",null,,,,,,,,,,,,,,,,,,,,,,,,,,,,,,,,,,,
,,,,,html-keyboard-response,58,128490,0.0-6.0-2.13,AMNUNZ65OSTFO,2022-05-18T15:17:28.877Z,rhyme-task_switching-same_different-phon_sim,,1741.9,rhyme,"<div style=""border: 3px solid #000000; position: fixed;left:14%;top:30%""><img src=""visual/dart.png"" width=""300""></div><div style=""border: 3px solid #000000; position: fixed;left:64%;top:30%""><img src=""visual/heart.png"" width=""300""></div>",arrowup,,TRUE,experiment,visual/dart.png,visual/heart.png,ArrowUp,non-ortho,,,,,,,,,,,,,,,,,,,,,,,,,,,,
,,,,,html-keyboard-response,59,128741,0.0-6.0-0.14,AMNUNZ65OSTFO,2022-05-18T15:17:28.877Z,rhyme-task_switching-same_different-phon_sim,,null,rhyme,"<div style=""font-size:60px;"">+</div>",null,250,,,,,,,,,,,,,,,,,,,,,,,,,,,,,,,,,,
,,,,,html-keyboard-response,60,129244,0.0-6.0-1.14,AMNUNZ65OSTFO,2022-05-18T15:17:28.877Z,rhyme-task_switching-same_different-phon_sim,,null,rhyme,"<img src=""square.png"" width=""306"" height=""306"" style=""position: fixed;left:14%;top:30%""><img src=""square.png"" width=""306"" height=""306"" style=""position: fixed;left:64%;top:30%"">",null,,,,,,,,,,,,,,,,,,,,,,,,,,,,,,,,,,,
,,,,,html-keyboard-response,61,131075,0.0-6.0-2.14,AMNUNZ65OSTFO,2022-05-18T15:17:28.877Z,rhyme-task_switching-same_different-phon_sim,,1829.3,rhyme,"<div style=""border: 3px solid #000000; position: fixed;left:14%;top:30%""><img src=""visual/brain.png"" width=""300""></div><div style=""border: 3px solid #000000; position: fixed;left:64%;top:30%""><img src=""visual/clock.png"" width=""300""></div>",arrowdown,,TRUE,experiment,visual/brain.png,visual/clock.png,ArrowDown,NR,,,,,,,,,,,,,,,,,,,,,,,,,,,,
,,,,,html-keyboard-response,62,131328,0.0-6.0-0.15,AMNUNZ65OSTFO,2022-05-18T15:17:28.877Z,rhyme-task_switching-same_different-phon_sim,,null,rhyme,"<div style=""font-size:60px;"">+</div>",null,250,,,,,,,,,,,,,,,,,,,,,,,,,,,,,,,,,,
,,,,,html-keyboard-response,63,131830,0.0-6.0-1.15,AMNUNZ65OSTFO,2022-05-18T15:17:28.877Z,rhyme-task_switching-same_different-phon_sim,,null,rhyme,"<img src=""square.png"" width=""306"" height=""306"" style=""position: fixed;left:14%;top:30%""><img src=""square.png"" width=""306"" height=""306"" style=""position: fixed;left:64%;top:30%"">",null,,,,,,,,,,,,,,,,,,,,,,,,,,,,,,,,,,,
,,,,,html-keyboard-response,64,133861,0.0-6.0-2.15,AMNUNZ65OSTFO,2022-05-18T15:17:28.877Z,rhyme-task_switching-same_different-phon_sim,,2028.2,rhyme,"<div style=""border: 3px solid #000000; position: fixed;left:14%;top:30%""><img src=""visual/drawer.png"" width=""300""></div><div style=""border: 3px solid #000000; position: fixed;left:64%;top:30%""><img src=""visual/chair.png"" width=""300""></div>",arrowdown,,TRUE,experiment,visual/drawer.png,visual/chair.png,ArrowDown,NR,,,,,,,,,,,,,,,,,,,,,,,,,,,,
,,,,,html-keyboard-response,65,134113,0.0-6.0-0.16,AMNUNZ65OSTFO,2022-05-18T15:17:28.877Z,rhyme-task_switching-same_different-phon_sim,,null,rhyme,"<div style=""font-size:60px;"">+</div>",null,250,,,,,,,,,,,,,,,,,,,,,,,,,,,,,,,,,,
,,,,,html-keyboard-response,66,134628,0.0-6.0-1.16,AMNUNZ65OSTFO,2022-05-18T15:17:28.877Z,rhyme-task_switching-same_different-phon_sim,,null,rhyme,"<img src=""square.png"" width=""306"" height=""306"" style=""position: fixed;left:14%;top:30%""><img src=""square.png"" width=""306"" height=""306"" style=""position: fixed;left:64%;top:30%"">",null,,,,,,,,,,,,,,,,,,,,,,,,,,,,,,,,,,,
,,,,,html-keyboard-response,67,136251,0.0-6.0-2.16,AMNUNZ65OSTFO,2022-05-18T15:17:28.877Z,rhyme-task_switching-same_different-phon_sim,,1621.1,rhyme,"<div style=""border: 3px solid #000000; position: fixed;left:14%;top:30%""><img src=""visual/shark.png"" width=""300""></div><div style=""border: 3px solid #000000; position: fixed;left:64%;top:30%""><img src=""visual/moon.png"" width=""300""></div>",arrowdown,,TRUE,experiment,visual/shark.png,visual/moon.png,ArrowDown,NR,,,,,,,,,,,,,,,,,,,,,,,,,,,,
,,,,,html-keyboard-response,68,136502,0.0-6.0-0.17,AMNUNZ65OSTFO,2022-05-18T15:17:28.877Z,rhyme-task_switching-same_different-phon_sim,,null,rhyme,"<div style=""font-size:60px;"">+</div>",null,250,,,,,,,,,,,,,,,,,,,,,,,,,,,,,,,,,,
,,,,,html-keyboard-response,69,137005,0.0-6.0-1.17,AMNUNZ65OSTFO,2022-05-18T15:17:28.877Z,rhyme-task_switching-same_different-phon_sim,,null,rhyme,"<img src=""square.png"" width=""306"" height=""306"" style=""position: fixed;left:14%;top:30%""><img src=""square.png"" width=""306"" height=""306"" style=""position: fixed;left:64%;top:30%"">",null,,,,,,,,,,,,,,,,,,,,,,,,,,,,,,,,,,,
,,,,,html-keyboard-response,70,139079,0.0-6.0-2.17,AMNUNZ65OSTFO,2022-05-18T15:17:28.877Z,rhyme-task_switching-same_different-phon_sim,,2070.5,rhyme,"<div style=""border: 3px solid #000000; position: fixed;left:14%;top:30%""><img src=""visual/cab.png"" width=""300""></div><div style=""border: 3px solid #000000; position: fixed;left:64%;top:30%""><img src=""visual/crab.png"" width=""300""></div>",arrowup,,TRUE,experiment,visual/cab.png,visual/crab.png,ArrowUp,ortho,,,,,,,,,,,,,,,,,,,,,,,,,,,,
,,,,,html-keyboard-response,71,139581,0.0-6.0-0.18,AMNUNZ65OSTFO,2022-05-18T15:17:28.877Z,rhyme-task_switching-same_different-phon_sim,,null,rhyme,"<div style=""font-size:60px;"">+</div>",null,500,,,,,,,,,,,,,,,,,,,,,,,,,,,,,,,,,,
,,,,,html-keyboard-response,72,140083,0.0-6.0-1.18,AMNUNZ65OSTFO,2022-05-18T15:17:28.877Z,rhyme-task_switching-same_different-phon_sim,,null,rhyme,"<img src=""square.png"" width=""306"" height=""306"" style=""position: fixed;left:14%;top:30%""><img src=""square.png"" width=""306"" height=""306"" style=""position: fixed;left:64%;top:30%"">",null,,,,,,,,,,,,,,,,,,,,,,,,,,,,,,,,,,,
,,,,,html-keyboard-response,73,142191,0.0-6.0-2.18,AMNUNZ65OSTFO,2022-05-18T15:17:28.877Z,rhyme-task_switching-same_different-phon_sim,,2106.4,rhyme,"<div style=""border: 3px solid #000000; position: fixed;left:14%;top:30%""><img src=""visual/train.png"" width=""300""></div><div style=""border: 3px solid #000000; position: fixed;left:64%;top:30%""><img src=""visual/crane.png"" width=""300""></div>",arrowdown,,FALSE,experiment,visual/train.png,visual/crane.png,ArrowUp,non-ortho,,,,,,,,,,,,,,,,,,,,,,,,,,,,
,,,,,html-keyboard-response,74,142443,0.0-6.0-0.19,AMNUNZ65OSTFO,2022-05-18T15:17:28.877Z,rhyme-task_switching-same_different-phon_sim,,null,rhyme,"<div style=""font-size:60px;"">+</div>",null,250,,,,,,,,,,,,,,,,,,,,,,,,,,,,,,,,,,
,,,,,html-keyboard-response,75,142948,0.0-6.0-1.19,AMNUNZ65OSTFO,2022-05-18T15:17:28.877Z,rhyme-task_switching-same_different-phon_sim,,null,rhyme,"<img src=""square.png"" width=""306"" height=""306"" style=""position: fixed;left:14%;top:30%""><img src=""square.png"" width=""306"" height=""306"" style=""position: fixed;left:64%;top:30%"">",null,,,,,,,,,,,,,,,,,,,,,,,,,,,,,,,,,,,
,,,,,html-keyboard-response,76,145027,0.0-6.0-2.19,AMNUNZ65OSTFO,2022-05-18T15:17:28.877Z,rhyme-task_switching-same_different-phon_sim,,2077.1,rhyme,"<div style=""border: 3px solid #000000; position: fixed;left:14%;top:30%""><img src=""visual/bear.png"" width=""300""></div><div style=""border: 3px solid #000000; position: fixed;left:64%;top:30%""><img src=""visual/square_rhyme.png"" width=""300""></div>",arrowup,,TRUE,experiment,visual/bear.png,visual/square_rhyme.png,ArrowUp,non-ortho,,,,,,,,,,,,,,,,,,,,,,,,,,,,
,,,,,html-keyboard-response,77,146029,0.0-6.0-0.20,AMNUNZ65OSTFO,2022-05-18T15:17:28.877Z,rhyme-task_switching-same_different-phon_sim,,null,rhyme,"<div style=""font-size:60px;"">+</div>",null,1000,,,,,,,,,,,,,,,,,,,,,,,,,,,,,,,,,,
,,,,,html-keyboard-response,78,146534,0.0-6.0-1.20,AMNUNZ65OSTFO,2022-05-18T15:17:28.877Z,rhyme-task_switching-same_different-phon_sim,,null,rhyme,"<img src=""square.png"" width=""306"" height=""306"" style=""position: fixed;left:14%;top:30%""><img src=""square.png"" width=""306"" height=""306"" style=""position: fixed;left:64%;top:30%"">",null,,,,,,,,,,,,,,,,,,,,,,,,,,,,,,,,,,,
,,,,,html-keyboard-response,79,148197,0.0-6.0-2.20,AMNUNZ65OSTFO,2022-05-18T15:17:28.877Z,rhyme-task_switching-same_different-phon_sim,,1660.1,rhyme,"<div style=""border: 3px solid #000000; position: fixed;left:14%;top:30%""><img src=""visual/tree.png"" width=""300""></div><div style=""border: 3px solid #000000; position: fixed;left:64%;top:30%""><img src=""visual/door.png"" width=""300""></div>",arrowdown,,TRUE,experiment,visual/tree.png,visual/door.png,ArrowDown,NR,,,,,,,,,,,,,,,,,,,,,,,,,,,,
,,,,,html-keyboard-response,80,148698,0.0-6.0-0.21,AMNUNZ65OSTFO,2022-05-18T15:17:28.877Z,rhyme-task_switching-same_different-phon_sim,,null,rhyme,"<div style=""font-size:60px;"">+</div>",null,500,,,,,,,,,,,,,,,,,,,,,,,,,,,,,,,,,,
,,,,,html-keyboard-response,81,149200,0.0-6.0-1.21,AMNUNZ65OSTFO,2022-05-18T15:17:28.877Z,rhyme-task_switching-same_different-phon_sim,,null,rhyme,"<img src=""square.png"" width=""306"" height=""306"" style=""position: fixed;left:14%;top:30%""><img src=""square.png"" width=""306"" height=""306"" style=""position: fixed;left:64%;top:30%"">",null,,,,,,,,,,,,,,,,,,,,,,,,,,,,,,,,,,,
,,,,,html-keyboard-response,82,151127,0.0-6.0-2.21,AMNUNZ65OSTFO,2022-05-18T15:17:28.877Z,rhyme-task_switching-same_different-phon_sim,,1925.4,rhyme,"<div style=""border: 3px solid #000000; position: fixed;left:14%;top:30%""><img src=""visual/king.png"" width=""300""></div><div style=""border: 3px solid #000000; position: fixed;left:64%;top:30%""><img src=""visual/cab.png"" width=""300""></div>",arrowdown,,TRUE,experiment,visual/king.png,visual/cab.png,ArrowDown,NR,,,,,,,,,,,,,,,,,,,,,,,,,,,,
,,,,,html-keyboard-response,83,151628,0.0-6.0-0.22,AMNUNZ65OSTFO,2022-05-18T15:17:28.877Z,rhyme-task_switching-same_different-phon_sim,,null,rhyme,"<div style=""font-size:60px;"">+</div>",null,500,,,,,,,,,,,,,,,,,,,,,,,,,,,,,,,,,,
,,,,,html-keyboard-response,84,152130,0.0-6.0-1.22,AMNUNZ65OSTFO,2022-05-18T15:17:28.877Z,rhyme-task_switching-same_different-phon_sim,,null,rhyme,"<img src=""square.png"" width=""306"" height=""306"" style=""position: fixed;left:14%;top:30%""><img src=""square.png"" width=""306"" height=""306"" style=""position: fixed;left:64%;top:30%"">",null,,,,,,,,,,,,,,,,,,,,,,,,,,,,,,,,,,,
,,,,,html-keyboard-response,85,154020,0.0-6.0-2.22,AMNUNZ65OSTFO,2022-05-18T15:17:28.877Z,rhyme-task_switching-same_different-phon_sim,,1888.1,rhyme,"<div style=""border: 3px solid #000000; position: fixed;left:14%;top:30%""><img src=""visual/drawer.png"" width=""300""></div><div style=""border: 3px solid #000000; position: fixed;left:64%;top:30%""><img src=""visual/door.png"" width=""300""></div>",arrowup,,TRUE,experiment,visual/drawer.png,visual/door.png,ArrowUp,non-ortho,,,,,,,,,,,,,,,,,,,,,,,,,,,,
,,,,,html-keyboard-response,86,155022,0.0-6.0-0.23,AMNUNZ65OSTFO,2022-05-18T15:17:28.877Z,rhyme-task_switching-same_different-phon_sim,,null,rhyme,"<div style=""font-size:60px;"">+</div>",null,1000,,,,,,,,,,,,,,,,,,,,,,,,,,,,,,,,,,
,,,,,html-keyboard-response,87,155525,0.0-6.0-1.23,AMNUNZ65OSTFO,2022-05-18T15:17:28.877Z,rhyme-task_switching-same_different-phon_sim,,null,rhyme,"<img src=""square.png"" width=""306"" height=""306"" style=""position: fixed;left:14%;top:30%""><img src=""square.png"" width=""306"" height=""306"" style=""position: fixed;left:64%;top:30%"">",null,,,,,,,,,,,,,,,,,,,,,,,,,,,,,,,,,,,
,,,,,html-keyboard-response,88,157089,0.0-6.0-2.23,AMNUNZ65OSTFO,2022-05-18T15:17:28.877Z,rhyme-task_switching-same_different-phon_sim,,1561.6,rhyme,"<div style=""border: 3px solid #000000; position: fixed;left:14%;top:30%""><img src=""visual/rake.png"" width=""300""></div><div style=""border: 3px solid #000000; position: fixed;left:64%;top:30%""><img src=""visual/park.png"" width=""300""></div>",arrowdown,,TRUE,experiment,visual/rake.png,visual/park.png,ArrowDown,NR,,,,,,,,,,,,,,,,,,,,,,,,,,,,
,,,,,html-keyboard-response,89,158091,0.0-6.0-0.24,AMNUNZ65OSTFO,2022-05-18T15:17:28.877Z,rhyme-task_switching-same_different-phon_sim,,null,rhyme,"<div style=""font-size:60px;"">+</div>",null,1000,,,,,,,,,,,,,,,,,,,,,,,,,,,,,,,,,,
,,,,,html-keyboard-response,90,158596,0.0-6.0-1.24,AMNUNZ65OSTFO,2022-05-18T15:17:28.877Z,rhyme-task_switching-same_different-phon_sim,,null,rhyme,"<img src=""square.png"" width=""306"" height=""306"" style=""position: fixed;left:14%;top:30%""><img src=""square.png"" width=""306"" height=""306"" style=""position: fixed;left:64%;top:30%"">",null,,,,,,,,,,,,,,,,,,,,,,,,,,,,,,,,,,,
,,,,,html-keyboard-response,91,160043,0.0-6.0-2.24,AMNUNZ65OSTFO,2022-05-18T15:17:28.877Z,rhyme-task_switching-same_different-phon_sim,,1443.8,rhyme,"<div style=""border: 3px solid #000000; position: fixed;left:14%;top:30%""><img src=""visual/snail.png"" width=""300""></div><div style=""border: 3px solid #000000; position: fixed;left:64%;top:30%""><img src=""visual/whale.png"" width=""300""></div>",arrowup,,TRUE,experiment,visual/snail.png,visual/whale.png,ArrowUp,non-ortho,,,,,,,,,,,,,,,,,,,,,,,,,,,,
,,,,,html-keyboard-response,92,160545,0.0-6.0-0.25,AMNUNZ65OSTFO,2022-05-18T15:17:28.877Z,rhyme-task_switching-same_different-phon_sim,,null,rhyme,"<div style=""font-size:60px;"">+</div>",null,500,,,,,,,,,,,,,,,,,,,,,,,,,,,,,,,,,,
,,,,,html-keyboard-response,93,161047,0.0-6.0-1.25,AMNUNZ65OSTFO,2022-05-18T15:17:28.877Z,rhyme-task_switching-same_different-phon_sim,,null,rhyme,"<img src=""square.png"" width=""306"" height=""306"" style=""position: fixed;left:14%;top:30%""><img src=""square.png"" width=""306"" height=""306"" style=""position: fixed;left:64%;top:30%"">",null,,,,,,,,,,,,,,,,,,,,,,,,,,,,,,,,,,,
,,,,,html-keyboard-response,94,162620,0.0-6.0-2.25,AMNUNZ65OSTFO,2022-05-18T15:17:28.877Z,rhyme-task_switching-same_different-phon_sim,,1571.1,rhyme,"<div style=""border: 3px solid #000000; position: fixed;left:14%;top:30%""><img src=""visual/socks.png"" width=""300""></div><div style=""border: 3px solid #000000; position: fixed;left:64%;top:30%""><img src=""visual/fox.png"" width=""300""></div>",arrowup,,TRUE,experiment,visual/socks.png,visual/fox.png,ArrowUp,non-ortho,,,,,,,,,,,,,,,,,,,,,,,,,,,,
,,,,,html-keyboard-response,95,163624,0.0-6.0-0.26,AMNUNZ65OSTFO,2022-05-18T15:17:28.877Z,rhyme-task_switching-same_different-phon_sim,,null,rhyme,"<div style=""font-size:60px;"">+</div>",null,1000,,,,,,,,,,,,,,,,,,,,,,,,,,,,,,,,,,
,,,,,html-keyboard-response,96,164128,0.0-6.0-1.26,AMNUNZ65OSTFO,2022-05-18T15:17:28.877Z,rhyme-task_switching-same_different-phon_sim,,null,rhyme,"<img src=""square.png"" width=""306"" height=""306"" style=""position: fixed;left:14%;top:30%""><img src=""square.png"" width=""306"" height=""306"" style=""position: fixed;left:64%;top:30%"">",null,,,,,,,,,,,,,,,,,,,,,,,,,,,,,,,,,,,
,,,,,html-keyboard-response,97,165614,0.0-6.0-2.26,AMNUNZ65OSTFO,2022-05-18T15:17:28.877Z,rhyme-task_switching-same_different-phon_sim,,1482.9,rhyme,"<div style=""border: 3px solid #000000; position: fixed;left:14%;top:30%""><img src=""visual/box.png"" width=""300""></div><div style=""border: 3px solid #000000; position: fixed;left:64%;top:30%""><img src=""visual/fox.png"" width=""300""></div>",arrowup,,TRUE,experiment,visual/box.png,visual/fox.png,ArrowUp,ortho,,,,,,,,,,,,,,,,,,,,,,,,,,,,
,,,,,html-keyboard-response,98,166115,0.0-6.0-0.27,AMNUNZ65OSTFO,2022-05-18T15:17:28.877Z,rhyme-task_switching-same_different-phon_sim,,null,rhyme,"<div style=""font-size:60px;"">+</div>",null,500,,,,,,,,,,,,,,,,,,,,,,,,,,,,,,,,,,
,,,,,html-keyboard-response,99,166618,0.0-6.0-1.27,AMNUNZ65OSTFO,2022-05-18T15:17:28.877Z,rhyme-task_switching-same_different-phon_sim,,null,rhyme,"<img src=""square.png"" width=""306"" height=""306"" style=""position: fixed;left:14%;top:30%""><img src=""square.png"" width=""306"" height=""306"" style=""position: fixed;left:64%;top:30%"">",null,,,,,,,,,,,,,,,,,,,,,,,,,,,,,,,,,,,
,,,,,html-keyboard-response,100,168789,0.0-6.0-2.27,AMNUNZ65OSTFO,2022-05-18T15:17:28.877Z,rhyme-task_switching-same_different-phon_sim,,2168.5,rhyme,"<div style=""border: 3px solid #000000; position: fixed;left:14%;top:30%""><img src=""visual/bed.png"" width=""300""></div><div style=""border: 3px solid #000000; position: fixed;left:64%;top:30%""><img src=""visual/bread.png"" width=""300""></div>",arrowdown,,FALSE,experiment,visual/bed.png,visual/bread.png,ArrowUp,non-ortho,,,,,,,,,,,,,,,,,,,,,,,,,,,,
,,,,,html-keyboard-response,101,169054,0.0-6.0-0.28,AMNUNZ65OSTFO,2022-05-18T15:17:28.877Z,rhyme-task_switching-same_different-phon_sim,,null,rhyme,"<div style=""font-size:60px;"">+</div>",null,250,,,,,,,,,,,,,,,,,,,,,,,,,,,,,,,,,,
,,,,,html-keyboard-response,102,169556,0.0-6.0-1.28,AMNUNZ65OSTFO,2022-05-18T15:17:28.877Z,rhyme-task_switching-same_different-phon_sim,,null,rhyme,"<img src=""square.png"" width=""306"" height=""306"" style=""position: fixed;left:14%;top:30%""><img src=""square.png"" width=""306"" height=""306"" style=""position: fixed;left:64%;top:30%"">",null,,,,,,,,,,,,,,,,,,,,,,,,,,,,,,,,,,,
,,,,,html-keyboard-response,103,171676,0.0-6.0-2.28,AMNUNZ65OSTFO,2022-05-18T15:17:28.877Z,rhyme-task_switching-same_different-phon_sim,,2116.5,rhyme,"<div style=""border: 3px solid #000000; position: fixed;left:14%;top:30%""><img src=""visual/pope.png"" width=""300""></div><div style=""border: 3px solid #000000; position: fixed;left:64%;top:30%""><img src=""visual/soap.png"" width=""300""></div>",arrowup,,TRUE,experiment,visual/pope.png,visual/soap.png,ArrowUp,non-ortho,,,,,,,,,,,,,,,,,,,,,,,,,,,,
,,,,,html-keyboard-response,104,171929,0.0-6.0-0.29,AMNUNZ65OSTFO,2022-05-18T15:17:28.877Z,rhyme-task_switching-same_different-phon_sim,,null,rhyme,"<div style=""font-size:60px;"">+</div>",null,250,,,,,,,,,,,,,,,,,,,,,,,,,,,,,,,,,,
,,,,,html-keyboard-response,105,172432,0.0-6.0-1.29,AMNUNZ65OSTFO,2022-05-18T15:17:28.877Z,rhyme-task_switching-same_different-phon_sim,,null,rhyme,"<img src=""square.png"" width=""306"" height=""306"" style=""position: fixed;left:14%;top:30%""><img src=""square.png"" width=""306"" height=""306"" style=""position: fixed;left:64%;top:30%"">",null,,,,,,,,,,,,,,,,,,,,,,,,,,,,,,,,,,,
,,,,,html-keyboard-response,106,174510,0.0-6.0-2.29,AMNUNZ65OSTFO,2022-05-18T15:17:28.877Z,rhyme-task_switching-same_different-phon_sim,,2076.5,rhyme,"<div style=""border: 3px solid #000000; position: fixed;left:14%;top:30%""><img src=""visual/chair.png"" width=""300""></div><div style=""border: 3px solid #000000; position: fixed;left:64%;top:30%""><img src=""visual/pear.png"" width=""300""></div>",arrowdown,,FALSE,experiment,visual/chair.png,visual/pear.png,ArrowUp,non-ortho,,,,,,,,,,,,,,,,,,,,,,,,,,,,
,,,,,html-keyboard-response,107,174763,0.0-6.0-0.30,AMNUNZ65OSTFO,2022-05-18T15:17:28.877Z,rhyme-task_switching-same_different-phon_sim,,null,rhyme,"<div style=""font-size:60px;"">+</div>",null,250,,,,,,,,,,,,,,,,,,,,,,,,,,,,,,,,,,
,,,,,html-keyboard-response,108,175269,0.0-6.0-1.30,AMNUNZ65OSTFO,2022-05-18T15:17:28.877Z,rhyme-task_switching-same_different-phon_sim,,null,rhyme,"<img src=""square.png"" width=""306"" height=""306"" style=""position: fixed;left:14%;top:30%""><img src=""square.png"" width=""306"" height=""306"" style=""position: fixed;left:64%;top:30%"">",null,,,,,,,,,,,,,,,,,,,,,,,,,,,,,,,,,,,
,,,,,html-keyboard-response,109,177323,0.0-6.0-2.30,AMNUNZ65OSTFO,2022-05-18T15:17:28.877Z,rhyme-task_switching-same_different-phon_sim,,2052.4,rhyme,"<div style=""border: 3px solid #000000; position: fixed;left:14%;top:30%""><img src=""visual/soap.png"" width=""300""></div><div style=""border: 3px solid #000000; position: fixed;left:64%;top:30%""><img src=""visual/rope.png"" width=""300""></div>",arrowup,,TRUE,experiment,visual/soap.png,visual/rope.png,ArrowUp,non-ortho,,,,,,,,,,,,,,,,,,,,,,,,,,,,
,,,,,html-keyboard-response,110,177825,0.0-6.0-0.31,AMNUNZ65OSTFO,2022-05-18T15:17:28.877Z,rhyme-task_switching-same_different-phon_sim,,null,rhyme,"<div style=""font-size:60px;"">+</div>",null,500,,,,,,,,,,,,,,,,,,,,,,,,,,,,,,,,,,
,,,,,html-keyboard-response,111,178330,0.0-6.0-1.31,AMNUNZ65OSTFO,2022-05-18T15:17:28.877Z,rhyme-task_switching-same_different-phon_sim,,null,rhyme,"<img src=""square.png"" width=""306"" height=""306"" style=""position: fixed;left:14%;top:30%""><img src=""square.png"" width=""306"" height=""306"" style=""position: fixed;left:64%;top:30%"">",null,,,,,,,,,,,,,,,,,,,,,,,,,,,,,,,,,,,
,,,,,html-keyboard-response,112,180033,0.0-6.0-2.31,AMNUNZ65OSTFO,2022-05-18T15:17:28.877Z,rhyme-task_switching-same_different-phon_sim,,1697.7,rhyme,"<div style=""border: 3px solid #000000; position: fixed;left:14%;top:30%""><img src=""visual/jar.png"" width=""300""></div><div style=""border: 3px solid #000000; position: fixed;left:64%;top:30%""><img src=""visual/whale.png"" width=""300""></div>",arrowdown,,TRUE,experiment,visual/jar.png,visual/whale.png,ArrowDown,NR,,,,,,,,,,,,,,,,,,,,,,,,,,,,
,,,,,html-keyboard-response,113,181035,0.0-6.0-0.32,AMNUNZ65OSTFO,2022-05-18T15:17:28.877Z,rhyme-task_switching-same_different-phon_sim,,null,rhyme,"<div style=""font-size:60px;"">+</div>",null,1000,,,,,,,,,,,,,,,,,,,,,,,,,,,,,,,,,,
,,,,,html-keyboard-response,114,181552,0.0-6.0-1.32,AMNUNZ65OSTFO,2022-05-18T15:17:28.877Z,rhyme-task_switching-same_different-phon_sim,,null,rhyme,"<img src=""square.png"" width=""306"" height=""306"" style=""position: fixed;left:14%;top:30%""><img src=""square.png"" width=""306"" height=""306"" style=""position: fixed;left:64%;top:30%"">",null,,,,,,,,,,,,,,,,,,,,,,,,,,,,,,,,,,,
,,,,,html-keyboard-response,115,183397,0.0-6.0-2.32,AMNUNZ65OSTFO,2022-05-18T15:17:28.877Z,rhyme-task_switching-same_different-phon_sim,,1842,rhyme,"<div style=""border: 3px solid #000000; position: fixed;left:14%;top:30%""><img src=""visual/egg.png"" width=""300""></div><div style=""border: 3px solid #000000; position: fixed;left:64%;top:30%""><img src=""visual/ring.png"" width=""300""></div>",arrowdown,,TRUE,experiment,visual/egg.png,visual/ring.png,ArrowDown,NR,,,,,,,,,,,,,,,,,,,,,,,,,,,,
,,,,,html-keyboard-response,116,184149,0.0-6.0-0.33,AMNUNZ65OSTFO,2022-05-18T15:17:28.877Z,rhyme-task_switching-same_different-phon_sim,,null,rhyme,"<div style=""font-size:60px;"">+</div>",null,750,,,,,,,,,,,,,,,,,,,,,,,,,,,,,,,,,,
,,,,,html-keyboard-response,117,184651,0.0-6.0-1.33,AMNUNZ65OSTFO,2022-05-18T15:17:28.877Z,rhyme-task_switching-same_different-phon_sim,,null,rhyme,"<img src=""square.png"" width=""306"" height=""306"" style=""position: fixed;left:14%;top:30%""><img src=""square.png"" width=""306"" height=""306"" style=""position: fixed;left:64%;top:30%"">",null,,,,,,,,,,,,,,,,,,,,,,,,,,,,,,,,,,,
,,,,,html-keyboard-response,118,186444,0.0-6.0-2.33,AMNUNZ65OSTFO,2022-05-18T15:17:28.877Z,rhyme-task_switching-same_different-phon_sim,,1791.7,rhyme,"<div style=""border: 3px solid #000000; position: fixed;left:14%;top:30%""><img src=""visual/plane.png"" width=""300""></div><div style=""border: 3px solid #000000; position: fixed;left:64%;top:30%""><img src=""visual/train.png"" width=""300""></div>",arrowup,,TRUE,experiment,visual/plane.png,visual/train.png,ArrowUp,non-ortho,,,,,,,,,,,,,,,,,,,,,,,,,,,,
,,,,,html-keyboard-response,119,187446,0.0-6.0-0.34,AMNUNZ65OSTFO,2022-05-18T15:17:28.877Z,rhyme-task_switching-same_different-phon_sim,,null,rhyme,"<div style=""font-size:60px;"">+</div>",null,1000,,,,,,,,,,,,,,,,,,,,,,,,,,,,,,,,,,
,,,,,html-keyboard-response,120,187953,0.0-6.0-1.34,AMNUNZ65OSTFO,2022-05-18T15:17:28.877Z,rhyme-task_switching-same_different-phon_sim,,null,rhyme,"<img src=""square.png"" width=""306"" height=""306"" style=""position: fixed;left:14%;top:30%""><img src=""square.png"" width=""306"" height=""306"" style=""position: fixed;left:64%;top:30%"">",null,,,,,,,,,,,,,,,,,,,,,,,,,,,,,,,,,,,
,,,,,html-keyboard-response,121,189518,0.0-6.0-2.34,AMNUNZ65OSTFO,2022-05-18T15:17:28.877Z,rhyme-task_switching-same_different-phon_sim,,1562.7,rhyme,"<div style=""border: 3px solid #000000; position: fixed;left:14%;top:30%""><img src=""visual/train.png"" width=""300""></div><div style=""border: 3px solid #000000; position: fixed;left:64%;top:30%""><img src=""visual/screw.png"" width=""300""></div>",arrowdown,,TRUE,experiment,visual/train.png,visual/screw.png,ArrowDown,NR,,,,,,,,,,,,,,,,,,,,,,,,,,,,
,,,,,html-keyboard-response,122,189770,0.0-6.0-0.35,AMNUNZ65OSTFO,2022-05-18T15:17:28.877Z,rhyme-task_switching-same_different-phon_sim,,null,rhyme,"<div style=""font-size:60px;"">+</div>",null,250,,,,,,,,,,,,,,,,,,,,,,,,,,,,,,,,,,
,,,,,html-keyboard-response,123,190312,0.0-6.0-1.35,AMNUNZ65OSTFO,2022-05-18T15:17:28.877Z,rhyme-task_switching-same_different-phon_sim,,null,rhyme,"<img src=""square.png"" width=""306"" height=""306"" style=""position: fixed;left:14%;top:30%""><img src=""square.png"" width=""306"" height=""306"" style=""position: fixed;left:64%;top:30%"">",null,,,,,,,,,,,,,,,,,,,,,,,,,,,,,,,,,,,
,,,,,html-keyboard-response,124,191928,0.0-6.0-2.35,AMNUNZ65OSTFO,2022-05-18T15:17:28.877Z,rhyme-task_switching-same_different-phon_sim,,1613.5,rhyme,"<div style=""border: 3px solid #000000; position: fixed;left:14%;top:30%""><img src=""visual/nose.png"" width=""300""></div><div style=""border: 3px solid #000000; position: fixed;left:64%;top:30%""><img src=""visual/bell.png"" width=""300""></div>",arrowdown,,TRUE,experiment,visual/nose.png,visual/bell.png,ArrowDown,NR,,,,,,,,,,,,,,,,,,,,,,,,,,,,
,,,,,html-keyboard-response,125,192680,0.0-6.0-0.36,AMNUNZ65OSTFO,2022-05-18T15:17:28.877Z,rhyme-task_switching-same_different-phon_sim,,null,rhyme,"<div style=""font-size:60px;"">+</div>",null,750,,,,,,,,,,,,,,,,,,,,,,,,,,,,,,,,,,
,,,,,html-keyboard-response,126,193185,0.0-6.0-1.36,AMNUNZ65OSTFO,2022-05-18T15:17:28.877Z,rhyme-task_switching-same_different-phon_sim,,null,rhyme,"<img src=""square.png"" width=""306"" height=""306"" style=""position: fixed;left:14%;top:30%""><img src=""square.png"" width=""306"" height=""306"" style=""position: fixed;left:64%;top:30%"">",null,,,,,,,,,,,,,,,,,,,,,,,,,,,,,,,,,,,
,,,,,html-keyboard-response,127,194700,0.0-6.0-2.36,AMNUNZ65OSTFO,2022-05-18T15:17:28.877Z,rhyme-task_switching-same_different-phon_sim,,1512.2,rhyme,"<div style=""border: 3px solid #000000; position: fixed;left:14%;top:30%""><img src=""visual/fly.png"" width=""300""></div><div style=""border: 3px solid #000000; position: fixed;left:64%;top:30%""><img src=""visual/plane.png"" width=""300""></div>",arrowdown,,TRUE,experiment,visual/fly.png,visual/plane.png,ArrowDown,NR,,,,,,,,,,,,,,,,,,,,,,,,,,,,
,,,,,html-keyboard-response,128,195201,0.0-6.0-0.37,AMNUNZ65OSTFO,2022-05-18T15:17:28.877Z,rhyme-task_switching-same_different-phon_sim,,null,rhyme,"<div style=""font-size:60px;"">+</div>",null,500,,,,,,,,,,,,,,,,,,,,,,,,,,,,,,,,,,
,,,,,html-keyboard-response,129,195706,0.0-6.0-1.37,AMNUNZ65OSTFO,2022-05-18T15:17:28.877Z,rhyme-task_switching-same_different-phon_sim,,null,rhyme,"<img src=""square.png"" width=""306"" height=""306"" style=""position: fixed;left:14%;top:30%""><img src=""square.png"" width=""306"" height=""306"" style=""position: fixed;left:64%;top:30%"">",null,,,,,,,,,,,,,,,,,,,,,,,,,,,,,,,,,,,
,,,,,html-keyboard-response,130,197838,0.0-6.0-2.37,AMNUNZ65OSTFO,2022-05-18T15:17:28.877Z,rhyme-task_switching-same_different-phon_sim,,2129.1,rhyme,"<div style=""border: 3px solid #000000; position: fixed;left:14%;top:30%""><img src=""visual/rose.png"" width=""300""></div><div style=""border: 3px solid #000000; position: fixed;left:64%;top:30%""><img src=""visual/nose.png"" width=""300""></div>",arrowup,,TRUE,experiment,visual/rose.png,visual/nose.png,ArrowUp,ortho,,,,,,,,,,,,,,,,,,,,,,,,,,,,
,,,,,html-keyboard-response,131,198590,0.0-6.0-0.38,AMNUNZ65OSTFO,2022-05-18T15:17:28.877Z,rhyme-task_switching-same_different-phon_sim,,null,rhyme,"<div style=""font-size:60px;"">+</div>",null,750,,,,,,,,,,,,,,,,,,,,,,,,,,,,,,,,,,
,,,,,html-keyboard-response,132,199092,0.0-6.0-1.38,AMNUNZ65OSTFO,2022-05-18T15:17:28.877Z,rhyme-task_switching-same_different-phon_sim,,null,rhyme,"<img src=""square.png"" width=""306"" height=""306"" style=""position: fixed;left:14%;top:30%""><img src=""square.png"" width=""306"" height=""306"" style=""position: fixed;left:64%;top:30%"">",null,,,,,,,,,,,,,,,,,,,,,,,,,,,,,,,,,,,
,,,,,html-keyboard-response,133,200927,0.0-6.0-2.38,AMNUNZ65OSTFO,2022-05-18T15:17:28.877Z,rhyme-task_switching-same_different-phon_sim,,1833.2,rhyme,"<div style=""border: 3px solid #000000; position: fixed;left:14%;top:30%""><img src=""visual/bear.png"" width=""300""></div><div style=""border: 3px solid #000000; position: fixed;left:64%;top:30%""><img src=""visual/crane.png"" width=""300""></div>",arrowdown,,TRUE,experiment,visual/bear.png,visual/crane.png,ArrowDown,NR,,,,,,,,,,,,,,,,,,,,,,,,,,,,
,,,,,html-keyboard-response,134,201179,0.0-6.0-0.39,AMNUNZ65OSTFO,2022-05-18T15:17:28.877Z,rhyme-task_switching-same_different-phon_sim,,null,rhyme,"<div style=""font-size:60px;"">+</div>",null,250,,,,,,,,,,,,,,,,,,,,,,,,,,,,,,,,,,
,,,,,html-keyboard-response,135,201699,0.0-6.0-1.39,AMNUNZ65OSTFO,2022-05-18T15:17:28.877Z,rhyme-task_switching-same_different-phon_sim,,null,rhyme,"<img src=""square.png"" width=""306"" height=""306"" style=""position: fixed;left:14%;top:30%""><img src=""square.png"" width=""306"" height=""306"" style=""position: fixed;left:64%;top:30%"">",null,,,,,,,,,,,,,,,,,,,,,,,,,,,,,,,,,,,
,,,,,html-keyboard-response,136,203138,0.0-6.0-2.39,AMNUNZ65OSTFO,2022-05-18T15:17:28.877Z,rhyme-task_switching-same_different-phon_sim,,1436.7,rhyme,"<div style=""border: 3px solid #000000; position: fixed;left:14%;top:30%""><img src=""visual/spoon.png"" width=""300""></div><div style=""border: 3px solid #000000; position: fixed;left:64%;top:30%""><img src=""visual/crab.png"" width=""300""></div>",arrowdown,,TRUE,experiment,visual/spoon.png,visual/crab.png,ArrowDown,NR,,,,,,,,,,,,,,,,,,,,,,,,,,,,
,,,,,html-keyboard-response,137,204140,0.0-6.0-0.40,AMNUNZ65OSTFO,2022-05-18T15:17:28.877Z,rhyme-task_switching-same_different-phon_sim,,null,rhyme,"<div style=""font-size:60px;"">+</div>",null,1000,,,,,,,,,,,,,,,,,,,,,,,,,,,,,,,,,,
,,,,,html-keyboard-response,138,204642,0.0-6.0-1.40,AMNUNZ65OSTFO,2022-05-18T15:17:28.877Z,rhyme-task_switching-same_different-phon_sim,,null,rhyme,"<img src=""square.png"" width=""306"" height=""306"" style=""position: fixed;left:14%;top:30%""><img src=""square.png"" width=""306"" height=""306"" style=""position: fixed;left:64%;top:30%"">",null,,,,,,,,,,,,,,,,,,,,,,,,,,,,,,,,,,,
,,,,,html-keyboard-response,139,205928,0.0-6.0-2.40,AMNUNZ65OSTFO,2022-05-18T15:17:28.877Z,rhyme-task_switching-same_different-phon_sim,,1284.2,rhyme,"<div style=""border: 3px solid #000000; position: fixed;left:14%;top:30%""><img src=""visual/star.png"" width=""300""></div><div style=""border: 3px solid #000000; position: fixed;left:64%;top:30%""><img src=""visual/jar.png"" width=""300""></div>",arrowup,,TRUE,experiment,visual/star.png,visual/jar.png,ArrowUp,ortho,,,,,,,,,,,,,,,,,,,,,,,,,,,,
,,,,,html-keyboard-response,140,206930,0.0-6.0-0.41,AMNUNZ65OSTFO,2022-05-18T15:17:28.877Z,rhyme-task_switching-same_different-phon_sim,,null,rhyme,"<div style=""font-size:60px;"">+</div>",null,1000,,,,,,,,,,,,,,,,,,,,,,,,,,,,,,,,,,
,,,,,html-keyboard-response,141,207433,0.0-6.0-1.41,AMNUNZ65OSTFO,2022-05-18T15:17:28.877Z,rhyme-task_switching-same_different-phon_sim,,null,rhyme,"<img src=""square.png"" width=""306"" height=""306"" style=""position: fixed;left:14%;top:30%""><img src=""square.png"" width=""306"" height=""306"" style=""position: fixed;left:64%;top:30%"">",null,,,,,,,,,,,,,,,,,,,,,,,,,,,,,,,,,,,
,,,,,html-keyboard-response,142,209071,0.0-6.0-2.41,AMNUNZ65OSTFO,2022-05-18T15:17:28.877Z,rhyme-task_switching-same_different-phon_sim,,1636,rhyme,"<div style=""border: 3px solid #000000; position: fixed;left:14%;top:30%""><img src=""visual/egg.png"" width=""300""></div><div style=""border: 3px solid #000000; position: fixed;left:64%;top:30%""><img src=""visual/leg.png"" width=""300""></div>",arrowdown,,FALSE,experiment,visual/egg.png,visual/leg.png,ArrowUp,ortho,,,,,,,,,,,,,,,,,,,,,,,,,,,,
,,,,,html-keyboard-response,143,209323,0.0-6.0-0.42,AMNUNZ65OSTFO,2022-05-18T15:17:28.877Z,rhyme-task_switching-same_different-phon_sim,,null,rhyme,"<div style=""font-size:60px;"">+</div>",null,250,,,,,,,,,,,,,,,,,,,,,,,,,,,,,,,,,,
,,,,,html-keyboard-response,144,209827,0.0-6.0-1.42,AMNUNZ65OSTFO,2022-05-18T15:17:28.877Z,rhyme-task_switching-same_different-phon_sim,,null,rhyme,"<img src=""square.png"" width=""306"" height=""306"" style=""position: fixed;left:14%;top:30%""><img src=""square.png"" width=""306"" height=""306"" style=""position: fixed;left:64%;top:30%"">",null,,,,,,,,,,,,,,,,,,,,,,,,,,,,,,,,,,,
,,,,,html-keyboard-response,145,211209,0.0-6.0-2.42,AMNUNZ65OSTFO,2022-05-18T15:17:28.877Z,rhyme-task_switching-same_different-phon_sim,,1379.3,rhyme,"<div style=""border: 3px solid #000000; position: fixed;left:14%;top:30%""><img src=""visual/cat.png"" width=""300""></div><div style=""border: 3px solid #000000; position: fixed;left:64%;top:30%""><img src=""visual/sock.png"" width=""300""></div>",arrowdown,,TRUE,experiment,visual/cat.png,visual/sock.png,ArrowDown,NR,,,,,,,,,,,,,,,,,,,,,,,,,,,,
,,,,,html-keyboard-response,146,211461,0.0-6.0-0.43,AMNUNZ65OSTFO,2022-05-18T15:17:28.877Z,rhyme-task_switching-same_different-phon_sim,,null,rhyme,"<div style=""font-size:60px;"">+</div>",null,250,,,,,,,,,,,,,,,,,,,,,,,,,,,,,,,,,,
,,,,,html-keyboard-response,147,211962,0.0-6.0-1.43,AMNUNZ65OSTFO,2022-05-18T15:17:28.877Z,rhyme-task_switching-same_different-phon_sim,,null,rhyme,"<img src=""square.png"" width=""306"" height=""306"" style=""position: fixed;left:14%;top:30%""><img src=""square.png"" width=""306"" height=""306"" style=""position: fixed;left:64%;top:30%"">",null,,,,,,,,,,,,,,,,,,,,,,,,,,,,,,,,,,,
,,,,,html-keyboard-response,148,213631,0.0-6.0-2.43,AMNUNZ65OSTFO,2022-05-18T15:17:28.877Z,rhyme-task_switching-same_different-phon_sim,,1666.9,rhyme,"<div style=""border: 3px solid #000000; position: fixed;left:14%;top:30%""><img src=""visual/king.png"" width=""300""></div><div style=""border: 3px solid #000000; position: fixed;left:64%;top:30%""><img src=""visual/ring.png"" width=""300""></div>",arrowup,,TRUE,experiment,visual/king.png,visual/ring.png,ArrowUp,ortho,,,,,,,,,,,,,,,,,,,,,,,,,,,,
,,,,,html-keyboard-response,149,213883,0.0-6.0-0.44,AMNUNZ65OSTFO,2022-05-18T15:17:28.877Z,rhyme-task_switching-same_different-phon_sim,,null,rhyme,"<div style=""font-size:60px;"">+</div>",null,250,,,,,,,,,,,,,,,,,,,,,,,,,,,,,,,,,,
,,,,,html-keyboard-response,150,214386,0.0-6.0-1.44,AMNUNZ65OSTFO,2022-05-18T15:17:28.877Z,rhyme-task_switching-same_different-phon_sim,,null,rhyme,"<img src=""square.png"" width=""306"" height=""306"" style=""position: fixed;left:14%;top:30%""><img src=""square.png"" width=""306"" height=""306"" style=""position: fixed;left:64%;top:30%"">",null,,,,,,,,,,,,,,,,,,,,,,,,,,,,,,,,,,,
,,,,,html-keyboard-response,151,216896,0.0-6.0-2.44,AMNUNZ65OSTFO,2022-05-18T15:17:28.877Z,rhyme-task_switching-same_different-phon_sim,,2507.4,rhyme,"<div style=""border: 3px solid #000000; position: fixed;left:14%;top:30%""><img src=""visual/chain.png"" width=""300""></div><div style=""border: 3px solid #000000; position: fixed;left:64%;top:30%""><img src=""visual/brain.png"" width=""300""></div>",arrowup,,TRUE,experiment,visual/chain.png,visual/brain.png,ArrowUp,ortho,,,,,,,,,,,,,,,,,,,,,,,,,,,,
,,,,,html-keyboard-response,152,217148,0.0-6.0-0.45,AMNUNZ65OSTFO,2022-05-18T15:17:28.877Z,rhyme-task_switching-same_different-phon_sim,,null,rhyme,"<div style=""font-size:60px;"">+</div>",null,250,,,,,,,,,,,,,,,,,,,,,,,,,,,,,,,,,,
,,,,,html-keyboard-response,153,217654,0.0-6.0-1.45,AMNUNZ65OSTFO,2022-05-18T15:17:28.877Z,rhyme-task_switching-same_different-phon_sim,,null,rhyme,"<img src=""square.png"" width=""306"" height=""306"" style=""position: fixed;left:14%;top:30%""><img src=""square.png"" width=""306"" height=""306"" style=""position: fixed;left:64%;top:30%"">",null,,,,,,,,,,,,,,,,,,,,,,,,,,,,,,,,,,,
,,,,,html-keyboard-response,154,219708,0.0-6.0-2.45,AMNUNZ65OSTFO,2022-05-18T15:17:28.877Z,rhyme-task_switching-same_different-phon_sim,,2051.9,rhyme,"<div style=""border: 3px solid #000000; position: fixed;left:14%;top:30%""><img src=""visual/soap.png"" width=""300""></div><div style=""border: 3px solid #000000; position: fixed;left:64%;top:30%""><img src=""visual/shoe.png"" width=""300""></div>",arrowup,,FALSE,experiment,visual/soap.png,visual/shoe.png,ArrowDown,NR,,,,,,,,,,,,,,,,,,,,,,,,,,,,
,,,,,html-keyboard-response,155,220461,0.0-6.0-0.46,AMNUNZ65OSTFO,2022-05-18T15:17:28.877Z,rhyme-task_switching-same_different-phon_sim,,null,rhyme,"<div style=""font-size:60px;"">+</div>",null,750,,,,,,,,,,,,,,,,,,,,,,,,,,,,,,,,,,
,,,,,html-keyboard-response,156,220963,0.0-6.0-1.46,AMNUNZ65OSTFO,2022-05-18T15:17:28.877Z,rhyme-task_switching-same_different-phon_sim,,null,rhyme,"<img src=""square.png"" width=""306"" height=""306"" style=""position: fixed;left:14%;top:30%""><img src=""square.png"" width=""306"" height=""306"" style=""position: fixed;left:64%;top:30%"">",null,,,,,,,,,,,,,,,,,,,,,,,,,,,,,,,,,,,
,,,,,html-keyboard-response,157,222704,0.0-6.0-2.46,AMNUNZ65OSTFO,2022-05-18T15:17:28.877Z,rhyme-task_switching-same_different-phon_sim,,1737.9,rhyme,"<div style=""border: 3px solid #000000; position: fixed;left:14%;top:30%""><img src=""visual/fan.png"" width=""300""></div><div style=""border: 3px solid #000000; position: fixed;left:64%;top:30%""><img src=""visual/man.png"" width=""300""></div>",arrowdown,,FALSE,experiment,visual/fan.png,visual/man.png,ArrowUp,ortho,,,,,,,,,,,,,,,,,,,,,,,,,,,,
,,,,,html-keyboard-response,158,223219,0.0-6.0-0.47,AMNUNZ65OSTFO,2022-05-18T15:17:28.877Z,rhyme-task_switching-same_different-phon_sim,,null,rhyme,"<div style=""font-size:60px;"">+</div>",null,500,,,,,,,,,,,,,,,,,,,,,,,,,,,,,,,,,,
,,,,,html-keyboard-response,159,223724,0.0-6.0-1.47,AMNUNZ65OSTFO,2022-05-18T15:17:28.877Z,rhyme-task_switching-same_different-phon_sim,,null,rhyme,"<img src=""square.png"" width=""306"" height=""306"" style=""position: fixed;left:14%;top:30%""><img src=""square.png"" width=""306"" height=""306"" style=""position: fixed;left:64%;top:30%"">",null,,,,,,,,,,,,,,,,,,,,,,,,,,,,,,,,,,,
,,,,,html-keyboard-response,160,225940,0.0-6.0-2.47,AMNUNZ65OSTFO,2022-05-18T15:17:28.877Z,rhyme-task_switching-same_different-phon_sim,,2213.9,rhyme,"<div style=""border: 3px solid #000000; position: fixed;left:14%;top:30%""><img src=""visual/bin.png"" width=""300""></div><div style=""border: 3px solid #000000; position: fixed;left:64%;top:30%""><img src=""visual/chin.png"" width=""300""></div>",arrowdown,,FALSE,experiment,visual/bin.png,visual/chin.png,ArrowUp,ortho,,,,,,,,,,,,,,,,,,,,,,,,,,,,
,,,,,html-keyboard-response,161,226692,0.0-6.0-0.48,AMNUNZ65OSTFO,2022-05-18T15:17:28.877Z,rhyme-task_switching-same_different-phon_sim,,null,rhyme,"<div style=""font-size:60px;"">+</div>",null,750,,,,,,,,,,,,,,,,,,,,,,,,,,,,,,,,,,
,,,,,html-keyboard-response,162,227194,0.0-6.0-1.48,AMNUNZ65OSTFO,2022-05-18T15:17:28.877Z,rhyme-task_switching-same_different-phon_sim,,null,rhyme,"<img src=""square.png"" width=""306"" height=""306"" style=""position: fixed;left:14%;top:30%""><img src=""square.png"" width=""306"" height=""306"" style=""position: fixed;left:64%;top:30%"">",null,,,,,,,,,,,,,,,,,,,,,,,,,,,,,,,,,,,
,,,,,html-keyboard-response,163,229040,0.0-6.0-2.48,AMNUNZ65OSTFO,2022-05-18T15:17:28.877Z,rhyme-task_switching-same_different-phon_sim,,1843.9,rhyme,"<div style=""border: 3px solid #000000; position: fixed;left:14%;top:30%""><img src=""visual/saw.png"" width=""300""></div><div style=""border: 3px solid #000000; position: fixed;left:64%;top:30%""><img src=""visual/claw.png"" width=""300""></div>",arrowdown,,FALSE,experiment,visual/saw.png,visual/claw.png,ArrowUp,ortho,,,,,,,,,,,,,,,,,,,,,,,,,,,,
,,,,,html-keyboard-response,164,229291,0.0-6.0-0.49,AMNUNZ65OSTFO,2022-05-18T15:17:28.877Z,rhyme-task_switching-same_different-phon_sim,,null,rhyme,"<div style=""font-size:60px;"">+</div>",null,250,,,,,,,,,,,,,,,,,,,,,,,,,,,,,,,,,,
,,,,,html-keyboard-response,165,229808,0.0-6.0-1.49,AMNUNZ65OSTFO,2022-05-18T15:17:28.877Z,rhyme-task_switching-same_different-phon_sim,,null,rhyme,"<img src=""square.png"" width=""306"" height=""306"" style=""position: fixed;left:14%;top:30%""><img src=""square.png"" width=""306"" height=""306"" style=""position: fixed;left:64%;top:30%"">",null,,,,,,,,,,,,,,,,,,,,,,,,,,,,,,,,,,,
,,,,,html-keyboard-response,166,231635,0.0-6.0-2.49,AMNUNZ65OSTFO,2022-05-18T15:17:28.877Z,rhyme-task_switching-same_different-phon_sim,,1825.7,rhyme,"<div style=""border: 3px solid #000000; position: fixed;left:14%;top:30%""><img src=""visual/claw.png"" width=""300""></div><div style=""border: 3px solid #000000; position: fixed;left:64%;top:30%""><img src=""visual/beer.png"" width=""300""></div>",arrowdown,,TRUE,experiment,visual/claw.png,visual/beer.png,ArrowDown,NR,,,,,,,,,,,,,,,,,,,,,,,,,,,,
,,,,,html-keyboard-response,167,232387,0.0-6.0-0.50,AMNUNZ65OSTFO,2022-05-18T15:17:28.877Z,rhyme-task_switching-same_different-phon_sim,,null,rhyme,"<div style=""font-size:60px;"">+</div>",null,750,,,,,,,,,,,,,,,,,,,,,,,,,,,,,,,,,,
,,,,,html-keyboard-response,168,232889,0.0-6.0-1.50,AMNUNZ65OSTFO,2022-05-18T15:17:28.877Z,rhyme-task_switching-same_different-phon_sim,,null,rhyme,"<img src=""square.png"" width=""306"" height=""306"" style=""position: fixed;left:14%;top:30%""><img src=""square.png"" width=""306"" height=""306"" style=""position: fixed;left:64%;top:30%"">",null,,,,,,,,,,,,,,,,,,,,,,,,,,,,,,,,,,,
,,,,,html-keyboard-response,169,234678,0.0-6.0-2.50,AMNUNZ65OSTFO,2022-05-18T15:17:28.877Z,rhyme-task_switching-same_different-phon_sim,,1786.9,rhyme,"<div style=""border: 3px solid #000000; position: fixed;left:14%;top:30%""><img src=""visual/wheel.png"" width=""300""></div><div style=""border: 3px solid #000000; position: fixed;left:64%;top:30%""><img src=""visual/seal.png"" width=""300""></div>",arrowdown,,FALSE,experiment,visual/wheel.png,visual/seal.png,ArrowUp,non-ortho,,,,,,,,,,,,,,,,,,,,,,,,,,,,
,,,,,html-keyboard-response,170,234929,0.0-6.0-0.51,AMNUNZ65OSTFO,2022-05-18T15:17:28.877Z,rhyme-task_switching-same_different-phon_sim,,null,rhyme,"<div style=""font-size:60px;"">+</div>",null,250,,,,,,,,,,,,,,,,,,,,,,,,,,,,,,,,,,
,,,,,html-keyboard-response,171,235432,0.0-6.0-1.51,AMNUNZ65OSTFO,2022-05-18T15:17:28.877Z,rhyme-task_switching-same_different-phon_sim,,null,rhyme,"<img src=""square.png"" width=""306"" height=""306"" style=""position: fixed;left:14%;top:30%""><img src=""square.png"" width=""306"" height=""306"" style=""position: fixed;left:64%;top:30%"">",null,,,,,,,,,,,,,,,,,,,,,,,,,,,,,,,,,,,
,,,,,html-keyboard-response,172,237860,0.0-6.0-2.51,AMNUNZ65OSTFO,2022-05-18T15:17:28.877Z,rhyme-task_switching-same_different-phon_sim,,2426.1,rhyme,"<div style=""border: 3px solid #000000; position: fixed;left:14%;top:30%""><img src=""visual/sock.png"" width=""300""></div><div style=""border: 3px solid #000000; position: fixed;left:64%;top:30%""><img src=""visual/clock.png"" width=""300""></div>",arrowup,,TRUE,experiment,visual/sock.png,visual/clock.png,ArrowUp,ortho,,,,,,,,,,,,,,,,,,,,,,,,,,,,
,,,,,html-keyboard-response,173,238363,0.0-6.0-0.52,AMNUNZ65OSTFO,2022-05-18T15:17:28.877Z,rhyme-task_switching-same_different-phon_sim,,null,rhyme,"<div style=""font-size:60px;"">+</div>",null,500,,,,,,,,,,,,,,,,,,,,,,,,,,,,,,,,,,
,,,,,html-keyboard-response,174,238871,0.0-6.0-1.52,AMNUNZ65OSTFO,2022-05-18T15:17:28.877Z,rhyme-task_switching-same_different-phon_sim,,null,rhyme,"<img src=""square.png"" width=""306"" height=""306"" style=""position: fixed;left:14%;top:30%""><img src=""square.png"" width=""306"" height=""306"" style=""position: fixed;left:64%;top:30%"">",null,,,,,,,,,,,,,,,,,,,,,,,,,,,,,,,,,,,
,,,,,html-keyboard-response,175,240657,0.0-6.0-2.52,AMNUNZ65OSTFO,2022-05-18T15:17:28.877Z,rhyme-task_switching-same_different-phon_sim,,1784.1,rhyme,"<div style=""border: 3px solid #000000; position: fixed;left:14%;top:30%""><img src=""visual/wave.png"" width=""300""></div><div style=""border: 3px solid #000000; position: fixed;left:64%;top:30%""><img src=""visual/cave.png"" width=""300""></div>",arrowdown,,FALSE,experiment,visual/wave.png,visual/cave.png,ArrowUp,ortho,,,,,,,,,,,,,,,,,,,,,,,,,,,,
,,,,,html-keyboard-response,176,240910,0.0-6.0-0.53,AMNUNZ65OSTFO,2022-05-18T15:17:28.877Z,rhyme-task_switching-same_different-phon_sim,,null,rhyme,"<div style=""font-size:60px;"">+</div>",null,250,,,,,,,,,,,,,,,,,,,,,,,,,,,,,,,,,,
,,,,,html-keyboard-response,177,241412,0.0-6.0-1.53,AMNUNZ65OSTFO,2022-05-18T15:17:28.877Z,rhyme-task_switching-same_different-phon_sim,,null,rhyme,"<img src=""square.png"" width=""306"" height=""306"" style=""position: fixed;left:14%;top:30%""><img src=""square.png"" width=""306"" height=""306"" style=""position: fixed;left:64%;top:30%"">",null,,,,,,,,,,,,,,,,,,,,,,,,,,,,,,,,,,,
,,,,,html-keyboard-response,178,244102,0.0-6.0-2.53,AMNUNZ65OSTFO,2022-05-18T15:17:28.877Z,rhyme-task_switching-same_different-phon_sim,,2687.6,rhyme,"<div style=""border: 3px solid #000000; position: fixed;left:14%;top:30%""><img src=""visual/well.png"" width=""300""></div><div style=""border: 3px solid #000000; position: fixed;left:64%;top:30%""><img src=""visual/rose.png"" width=""300""></div>",arrowdown,,TRUE,experiment,visual/well.png,visual/rose.png,ArrowDown,NR,,,,,,,,,,,,,,,,,,,,,,,,,,,,
,,,,,html-keyboard-response,179,244353,0.0-6.0-0.54,AMNUNZ65OSTFO,2022-05-18T15:17:28.877Z,rhyme-task_switching-same_different-phon_sim,,null,rhyme,"<div style=""font-size:60px;"">+</div>",null,250,,,,,,,,,,,,,,,,,,,,,,,,,,,,,,,,,,
,,,,,html-keyboard-response,180,244859,0.0-6.0-1.54,AMNUNZ65OSTFO,2022-05-18T15:17:28.877Z,rhyme-task_switching-same_different-phon_sim,,null,rhyme,"<img src=""square.png"" width=""306"" height=""306"" style=""position: fixed;left:14%;top:30%""><img src=""square.png"" width=""306"" height=""306"" style=""position: fixed;left:64%;top:30%"">",null,,,,,,,,,,,,,,,,,,,,,,,,,,,,,,,,,,,
,,,,,html-keyboard-response,181,247340,0.0-6.0-2.54,AMNUNZ65OSTFO,2022-05-18T15:17:28.877Z,rhyme-task_switching-same_different-phon_sim,,2479.4,rhyme,"<div style=""border: 3px solid #000000; position: fixed;left:14%;top:30%""><img src=""visual/drum.png"" width=""300""></div><div style=""border: 3px solid #000000; position: fixed;left:64%;top:30%""><img src=""visual/thumb.png"" width=""300""></div>",arrowup,,TRUE,experiment,visual/drum.png,visual/thumb.png,ArrowUp,non-ortho,,,,,,,,,,,,,,,,,,,,,,,,,,,,
,,,,,html-keyboard-response,182,247592,0.0-6.0-0.55,AMNUNZ65OSTFO,2022-05-18T15:17:28.877Z,rhyme-task_switching-same_different-phon_sim,,null,rhyme,"<div style=""font-size:60px;"">+</div>",null,250,,,,,,,,,,,,,,,,,,,,,,,,,,,,,,,,,,
,,,,,html-keyboard-response,183,248094,0.0-6.0-1.55,AMNUNZ65OSTFO,2022-05-18T15:17:28.877Z,rhyme-task_switching-same_different-phon_sim,,null,rhyme,"<img src=""square.png"" width=""306"" height=""306"" style=""position: fixed;left:14%;top:30%""><img src=""square.png"" width=""306"" height=""306"" style=""position: fixed;left:64%;top:30%"">",null,,,,,,,,,,,,,,,,,,,,,,,,,,,,,,,,,,,
,,,,,html-keyboard-response,184,249770,0.0-6.0-2.55,AMNUNZ65OSTFO,2022-05-18T15:17:28.877Z,rhyme-task_switching-same_different-phon_sim,,1673.6,rhyme,"<div style=""border: 3px solid #000000; position: fixed;left:14%;top:30%""><img src=""visual/spoon.png"" width=""300""></div><div style=""border: 3px solid #000000; position: fixed;left:64%;top:30%""><img src=""visual/moon.png"" width=""300""></div>",arrowup,,TRUE,experiment,visual/spoon.png,visual/moon.png,ArrowUp,ortho,,,,,,,,,,,,,,,,,,,,,,,,,,,,
,,,,,html-keyboard-response,185,250550,0.0-6.0-0.56,AMNUNZ65OSTFO,2022-05-18T15:17:28.877Z,rhyme-task_switching-same_different-phon_sim,,null,rhyme,"<div style=""font-size:60px;"">+</div>",null,750,,,,,,,,,,,,,,,,,,,,,,,,,,,,,,,,,,
,,,,,html-keyboard-response,186,251052,0.0-6.0-1.56,AMNUNZ65OSTFO,2022-05-18T15:17:28.877Z,rhyme-task_switching-same_different-phon_sim,,null,rhyme,"<img src=""square.png"" width=""306"" height=""306"" style=""position: fixed;left:14%;top:30%""><img src=""square.png"" width=""306"" height=""306"" style=""position: fixed;left:64%;top:30%"">",null,,,,,,,,,,,,,,,,,,,,,,,,,,,,,,,,,,,
,,,,,html-keyboard-response,187,252881,0.0-6.0-2.56,AMNUNZ65OSTFO,2022-05-18T15:17:28.877Z,rhyme-task_switching-same_different-phon_sim,,1827.1,rhyme,"<div style=""border: 3px solid #000000; position: fixed;left:14%;top:30%""><img src=""visual/pear.png"" width=""300""></div><div style=""border: 3px solid #000000; position: fixed;left:64%;top:30%""><img src=""visual/rope.png"" width=""300""></div>",arrowdown,,TRUE,experiment,visual/pear.png,visual/rope.png,ArrowDown,NR,,,,,,,,,,,,,,,,,,,,,,,,,,,,
,,,,,html-keyboard-response,188,253385,0.0-6.0-0.57,AMNUNZ65OSTFO,2022-05-18T15:17:28.877Z,rhyme-task_switching-same_different-phon_sim,,null,rhyme,"<div style=""font-size:60px;"">+</div>",null,500,,,,,,,,,,,,,,,,,,,,,,,,,,,,,,,,,,
,,,,,html-keyboard-response,189,253886,0.0-6.0-1.57,AMNUNZ65OSTFO,2022-05-18T15:17:28.877Z,rhyme-task_switching-same_different-phon_sim,,null,rhyme,"<img src=""square.png"" width=""306"" height=""306"" style=""position: fixed;left:14%;top:30%""><img src=""square.png"" width=""306"" height=""306"" style=""position: fixed;left:64%;top:30%"">",null,,,,,,,,,,,,,,,,,,,,,,,,,,,,,,,,,,,
,,,,,html-keyboard-response,190,255346,0.0-6.0-2.57,AMNUNZ65OSTFO,2022-05-18T15:17:28.877Z,rhyme-task_switching-same_different-phon_sim,,1457.7,rhyme,"<div style=""border: 3px solid #000000; position: fixed;left:14%;top:30%""><img src=""visual/eye.png"" width=""300""></div><div style=""border: 3px solid #000000; position: fixed;left:64%;top:30%""><img src=""visual/tie.png"" width=""300""></div>",arrowup,,TRUE,experiment,visual/eye.png,visual/tie.png,ArrowUp,non-ortho,,,,,,,,,,,,,,,,,,,,,,,,,,,,
,,,,,html-keyboard-response,191,255597,0.0-6.0-0.58,AMNUNZ65OSTFO,2022-05-18T15:17:28.877Z,rhyme-task_switching-same_different-phon_sim,,null,rhyme,"<div style=""font-size:60px;"">+</div>",null,250,,,,,,,,,,,,,,,,,,,,,,,,,,,,,,,,,,
,,,,,html-keyboard-response,192,256100,0.0-6.0-1.58,AMNUNZ65OSTFO,2022-05-18T15:17:28.877Z,rhyme-task_switching-same_different-phon_sim,,null,rhyme,"<img src=""square.png"" width=""306"" height=""306"" style=""position: fixed;left:14%;top:30%""><img src=""square.png"" width=""306"" height=""306"" style=""position: fixed;left:64%;top:30%"">",null,,,,,,,,,,,,,,,,,,,,,,,,,,,,,,,,,,,
,,,,,html-keyboard-response,193,258753,0.0-6.0-2.58,AMNUNZ65OSTFO,2022-05-18T15:17:28.877Z,rhyme-task_switching-same_different-phon_sim,,2651.5,rhyme,"<div style=""border: 3px solid #000000; position: fixed;left:14%;top:30%""><img src=""visual/cake.png"" width=""300""></div><div style=""border: 3px solid #000000; position: fixed;left:64%;top:30%""><img src=""visual/rake.png"" width=""300""></div>",arrowdown,,FALSE,experiment,visual/cake.png,visual/rake.png,ArrowUp,ortho,,,,,,,,,,,,,,,,,,,,,,,,,,,,
,,,,,html-keyboard-response,194,259506,0.0-6.0-0.59,AMNUNZ65OSTFO,2022-05-18T15:17:28.877Z,rhyme-task_switching-same_different-phon_sim,,null,rhyme,"<div style=""font-size:60px;"">+</div>",null,750,,,,,,,,,,,,,,,,,,,,,,,,,,,,,,,,,,
,,,,,html-keyboard-response,195,260009,0.0-6.0-1.59,AMNUNZ65OSTFO,2022-05-18T15:17:28.877Z,rhyme-task_switching-same_different-phon_sim,,null,rhyme,"<img src=""square.png"" width=""306"" height=""306"" style=""position: fixed;left:14%;top:30%""><img src=""square.png"" width=""306"" height=""306"" style=""position: fixed;left:64%;top:30%"">",null,,,,,,,,,,,,,,,,,,,,,,,,,,,,,,,,,,,
,,,,,html-keyboard-response,196,261795,0.0-6.0-2.59,AMNUNZ65OSTFO,2022-05-18T15:17:28.877Z,rhyme-task_switching-same_different-phon_sim,,1784.4,rhyme,"<div style=""border: 3px solid #000000; position: fixed;left:14%;top:30%""><img src=""visual/flag.png"" width=""300""></div><div style=""border: 3px solid #000000; position: fixed;left:64%;top:30%""><img src=""visual/bag.png"" width=""300""></div>",arrowup,,TRUE,experiment,visual/flag.png,visual/bag.png,ArrowUp,ortho,,,,,,,,,,,,,,,,,,,,,,,,,,,,
,,,,,survey-multi-choice,197,265771,0.0-7.0,AMNUNZ65OSTFO,2022-05-18T15:17:28.877Z,rhyme-task_switching-same_different-phon_sim,,3973.3,rhyme,,"{""Q0"":""No""}",,,,,,,,[0],No,,,,,,,,,,,,,,,,,,,,,,,,,,
,,,,,survey-text,198,293438,0.0-8.0,AMNUNZ65OSTFO,2022-05-18T15:17:28.877Z,rhyme-task_switching-same_different-phon_sim,,27663.8,rhyme,,"{""Q0"":""I said the pictures in my head before choosing.""}",,,,,,,,,,I said the pictures in my head before choosing.,,,,,,,,,,,,,,,,,,,,,,,,,
,,,,,instructions,199,294781,0.0-9.0,AMNUNZ65OSTFO,2022-05-18T15:17:28.877Z,rhyme-task_switching-same_different-phon_sim,"[{""page_index"":0,""viewing_time"":1342.0999999642372}]",1342.5,rhyme,,,,,,,,,,,,,,,,,,,,,,,,,,,,,,,,,,,,,
,,,,,instructions,200,335259,0.0-10.0,AMNUNZ65OSTFO,2022-05-18T15:17:28.877Z,rhyme-task_switching-same_different-phon_sim,"[{""page_index"":0,""viewing_time"":40476.40000003576}]",40477.3,task_switching,,,,,,,,,,,,,,,,,,,,,,,,,,,,,,,,,,,,,
,,,,,instructions,201,343217,0.0-11.0,AMNUNZ65OSTFO,2022-05-18T15:17:28.877Z,rhyme-task_switching-same_different-phon_sim,"[{""page_index"":0,""viewing_time"":7955.600000023842}]",7956.1,task_switching,,,,,,,,,,,,,,,,,,,,,,,,,,,,,,,,,,,,,
,,,,,survey-text,202,346868,0.0-12.0,AMNUNZ65OSTFO,2022-05-18T15:17:28.877Z,rhyme-task_switching-same_different-phon_sim,,3645.9,task_switching,73,"{""subtraction_ans"":""70""}",,TRUE,training,,,,,,,,subtraction,70,subtract,,,,,,,,,,,,,,,,,,,,,,
,,,,,html-keyboard-response,203,347871,0.0-13.0,AMNUNZ65OSTFO,2022-05-18T15:17:28.877Z,rhyme-task_switching-same_different-phon_sim,,null,task_switching,"<div style=""color:darkgreen; font-size:60px"">Well done!</div>",null,,,training,,,,,,,,subtraction,,,,,,,,,,,,,,,,,,,,,,,,
,,,,,survey-text,204,350801,0.0-14.0,AMNUNZ65OSTFO,2022-05-18T15:17:28.877Z,rhyme-task_switching-same_different-phon_sim,,2926.3,task_switching,70,"{""subtraction_ans"":""67""}",,TRUE,training,,,,,,,,subtraction,67,subtract,,,,,,,,,,,,,,,,,,,,,,
,,,,,html-keyboard-response,205,351804,0.0-15.0,AMNUNZ65OSTFO,2022-05-18T15:17:28.877Z,rhyme-task_switching-same_different-phon_sim,,null,task_switching,"<div style=""color:darkgreen; font-size:60px"">Well done!</div>",null,,,training,,,,,,,,subtraction,,,,,,,,,,,,,,,,,,,,,,,,
,,,,,survey-text,206,354549,0.0-16.0,AMNUNZ65OSTFO,2022-05-18T15:17:28.877Z,rhyme-task_switching-same_different-phon_sim,,2741.4,task_switching,77,"{""subtraction_ans"":""74""}",,TRUE,training,,,,,,,,subtraction,74,subtract,,,,,,,,,,,,,,,,,,,,,,
,,,,,html-keyboard-response,207,355551,0.0-17.0,AMNUNZ65OSTFO,2022-05-18T15:17:28.877Z,rhyme-task_switching-same_different-phon_sim,,null,task_switching,"<div style=""color:darkgreen; font-size:60px"">Well done!</div>",null,,,training,,,,,,,,subtraction,,,,,,,,,,,,,,,,,,,,,,,,
,,,,,survey-text,208,358089,0.0-18.0,AMNUNZ65OSTFO,2022-05-18T15:17:28.877Z,rhyme-task_switching-same_different-phon_sim,,2534.3,task_switching,92,"{""subtraction_ans"":""89""}",,TRUE,training,,,,,,,,subtraction,89,subtract,,,,,,,,,,,,,,,,,,,,,,
,,,,,html-keyboard-response,209,359094,0.0-19.0,AMNUNZ65OSTFO,2022-05-18T15:17:28.877Z,rhyme-task_switching-same_different-phon_sim,,null,task_switching,"<div style=""color:darkgreen; font-size:60px"">Well done!</div>",null,,,training,,,,,,,,subtraction,,,,,,,,,,,,,,,,,,,,,,,,
,,,,,survey-text,210,361644,0.0-20.0,AMNUNZ65OSTFO,2022-05-18T15:17:28.877Z,rhyme-task_switching-same_different-phon_sim,,2533.2,task_switching,72,"{""subtraction_ans"":""69""}",,TRUE,training,,,,,,,,subtraction,69,subtract,,,,,,,,,,,,,,,,,,,,,,
,,,,,html-keyboard-response,211,362646,0.0-21.0,AMNUNZ65OSTFO,2022-05-18T15:17:28.877Z,rhyme-task_switching-same_different-phon_sim,,null,task_switching,"<div style=""color:darkgreen; font-size:60px"">Well done!</div>",null,,,training,,,,,,,,subtraction,,,,,,,,,,,,,,,,,,,,,,,,
,,,,,survey-text,212,364727,0.0-22.0,AMNUNZ65OSTFO,2022-05-18T15:17:28.877Z,rhyme-task_switching-same_different-phon_sim,,2077.8,task_switching,47,"{""subtraction_ans"":""44""}",,TRUE,training,,,,,,,,subtraction,44,subtract,,,,,,,,,,,,,,,,,,,,,,
,,,,,html-keyboard-response,213,365729,0.0-23.0,AMNUNZ65OSTFO,2022-05-18T15:17:28.877Z,rhyme-task_switching-same_different-phon_sim,,null,task_switching,"<div style=""color:darkgreen; font-size:60px"">Well done!</div>",null,,,training,,,,,,,,subtraction,,,,,,,,,,,,,,,,,,,,,,,,
,,,,,survey-text,214,368357,0.0-24.0,AMNUNZ65OSTFO,2022-05-18T15:17:28.877Z,rhyme-task_switching-same_different-phon_sim,,2624.6,task_switching,58,"{""subtraction_ans"":""55""}",,TRUE,training,,,,,,,,subtraction,55,subtract,,,,,,,,,,,,,,,,,,,,,,
,,,,,html-keyboard-response,215,369361,0.0-25.0,AMNUNZ65OSTFO,2022-05-18T15:17:28.877Z,rhyme-task_switching-same_different-phon_sim,,null,task_switching,"<div style=""color:darkgreen; font-size:60px"">Well done!</div>",null,,,training,,,,,,,,subtraction,,,,,,,,,,,,,,,,,,,,,,,,
,,,,,survey-text,216,372835,0.0-26.0,AMNUNZ65OSTFO,2022-05-18T15:17:28.877Z,rhyme-task_switching-same_different-phon_sim,,3471.1,task_switching,81,"{""subtraction_ans"":""78""}",,TRUE,training,,,,,,,,subtraction,78,subtract,,,,,,,,,,,,,,,,,,,,,,
,,,,,html-keyboard-response,217,373836,0.0-27.0,AMNUNZ65OSTFO,2022-05-18T15:17:28.877Z,rhyme-task_switching-same_different-phon_sim,,null,task_switching,"<div style=""color:darkgreen; font-size:60px"">Well done!</div>",null,,,training,,,,,,,,subtraction,,,,,,,,,,,,,,,,,,,,,,,,
,,,,,survey-text,218,376772,0.0-28.0,AMNUNZ65OSTFO,2022-05-18T15:17:28.877Z,rhyme-task_switching-same_different-phon_sim,,2933.1,task_switching,20,"{""subtraction_ans"":""17""}",,TRUE,training,,,,,,,,subtraction,17,subtract,,,,,,,,,,,,,,,,,,,,,,
,,,,,html-keyboard-response,219,377774,0.0-29.0,AMNUNZ65OSTFO,2022-05-18T15:17:28.877Z,rhyme-task_switching-same_different-phon_sim,,null,task_switching,"<div style=""color:darkgreen; font-size:60px"">Well done!</div>",null,,,training,,,,,,,,subtraction,,,,,,,,,,,,,,,,,,,,,,,,
,,,,,survey-text,220,379794,0.0-30.0,AMNUNZ65OSTFO,2022-05-18T15:17:28.877Z,rhyme-task_switching-same_different-phon_sim,,2016.7,task_switching,15,"{""subtraction_ans"":""12""}",,TRUE,training,,,,,,,,subtraction,12,subtract,,,,,,,,,,,,,,,,,,,,,,
,,,,,html-keyboard-response,221,380796,0.0-31.0,AMNUNZ65OSTFO,2022-05-18T15:17:28.877Z,rhyme-task_switching-same_different-phon_sim,,null,task_switching,"<div style=""color:darkgreen; font-size:60px"">Well done!</div>",null,,,training,,,,,,,,subtraction,,,,,,,,,,,,,,,,,,,,,,,,
,,,,,instructions,222,382615,0.0-32.0,AMNUNZ65OSTFO,2022-05-18T15:17:28.877Z,rhyme-task_switching-same_different-phon_sim,"[{""page_index"":0,""viewing_time"":1817.5}]",1817.9,task_switching,,,,,,,,,,,,,,,,,,,,,,,,,,,,,,,,,,,,,
,,,,,survey-text,223,385840,0.0-33.0,AMNUNZ65OSTFO,2022-05-18T15:17:28.877Z,rhyme-task_switching-same_different-phon_sim,,3222.3,task_switching,31,"{""subtraction_ans"":""28""}",,TRUE,experiment,,,,,,,,subtraction,28,subtract,,,,,,,,,,,,,,,,,,,,,,
,,,,,survey-text,224,389447,0.0-34.0,AMNUNZ65OSTFO,2022-05-18T15:17:28.877Z,rhyme-task_switching-same_different-phon_sim,,3603.3,task_switching,60,"{""subtraction_ans"":""57""}",,TRUE,experiment,,,,,,,,subtraction,57,subtract,,,,,,,,,,,,,,,,,,,,,,
,,,,,survey-text,225,391672,0.0-35.0,AMNUNZ65OSTFO,2022-05-18T15:17:28.877Z,rhyme-task_switching-same_different-phon_sim,,2217,task_switching,33,"{""subtraction_ans"":""30""}",,TRUE,experiment,,,,,,,,subtraction,30,subtract,,,,,,,,,,,,,,,,,,,,,,
,,,,,survey-text,226,393933,0.0-36.0,AMNUNZ65OSTFO,2022-05-18T15:17:28.877Z,rhyme-task_switching-same_different-phon_sim,,2256.7,task_switching,23,"{""subtraction_ans"":""20""}",,TRUE,experiment,,,,,,,,subtraction,20,subtract,,,,,,,,,,,,,,,,,,,,,,
,,,,,survey-text,227,395906,0.0-37.0,AMNUNZ65OSTFO,2022-05-18T15:17:28.877Z,rhyme-task_switching-same_different-phon_sim,,1970.4,task_switching,72,"{""subtraction_ans"":""69""}",,TRUE,experiment,,,,,,,,subtraction,69,subtract,,,,,,,,,,,,,,,,,,,,,,
,,,,,survey-text,228,397704,0.0-38.0,AMNUNZ65OSTFO,2022-05-18T15:17:28.877Z,rhyme-task_switching-same_different-phon_sim,,1794.9,task_switching,24,"{""subtraction_ans"":""21""}",,TRUE,experiment,,,,,,,,subtraction,21,subtract,,,,,,,,,,,,,,,,,,,,,,
,,,,,survey-text,229,399181,0.0-39.0,AMNUNZ65OSTFO,2022-05-18T15:17:28.877Z,rhyme-task_switching-same_different-phon_sim,,1473.6,task_switching,47,"{""subtraction_ans"":""44""}",,TRUE,experiment,,,,,,,,subtraction,44,subtract,,,,,,,,,,,,,,,,,,,,,,
,,,,,survey-text,230,401598,0.0-40.0,AMNUNZ65OSTFO,2022-05-18T15:17:28.877Z,rhyme-task_switching-same_different-phon_sim,,2414,task_switching,65,"{""subtraction_ans"":""62""}",,TRUE,experiment,,,,,,,,subtraction,62,subtract,,,,,,,,,,,,,,,,,,,,,,
,,,,,survey-text,231,403577,0.0-41.0,AMNUNZ65OSTFO,2022-05-18T15:17:28.877Z,rhyme-task_switching-same_different-phon_sim,,1974.7,task_switching,73,"{""subtraction_ans"":""70""}",,TRUE,experiment,,,,,,,,subtraction,70,subtract,,,,,,,,,,,,,,,,,,,,,,
,,,,,survey-text,232,406302,0.0-42.0,AMNUNZ65OSTFO,2022-05-18T15:17:28.877Z,rhyme-task_switching-same_different-phon_sim,,2720.8,task_switching,89,"{""subtraction_ans"":""86""}",,TRUE,experiment,,,,,,,,subtraction,86,subtract,,,,,,,,,,,,,,,,,,,,,,
,,,,,survey-text,233,408266,0.0-43.0,AMNUNZ65OSTFO,2022-05-18T15:17:28.877Z,rhyme-task_switching-same_different-phon_sim,,1960.8,task_switching,30,"{""subtraction_ans"":""27""}",,TRUE,experiment,,,,,,,,subtraction,27,subtract,,,,,,,,,,,,,,,,,,,,,,
,,,,,survey-text,234,409728,0.0-44.0,AMNUNZ65OSTFO,2022-05-18T15:17:28.877Z,rhyme-task_switching-same_different-phon_sim,,1457.3,task_switching,16,"{""subtraction_ans"":""13""}",,TRUE,experiment,,,,,,,,subtraction,13,subtract,,,,,,,,,,,,,,,,,,,,,,
,,,,,survey-text,235,411308,0.0-45.0,AMNUNZ65OSTFO,2022-05-18T15:17:28.877Z,rhyme-task_switching-same_different-phon_sim,,1575.6,task_switching,48,"{""subtraction_ans"":""45""}",,TRUE,experiment,,,,,,,,subtraction,45,subtract,,,,,,,,,,,,,,,,,,,,,,
,,,,,survey-text,236,413577,0.0-46.0,AMNUNZ65OSTFO,2022-05-18T15:17:28.877Z,rhyme-task_switching-same_different-phon_sim,,2265.6,task_switching,91,"{""subtraction_ans"":""88""}",,TRUE,experiment,,,,,,,,subtraction,88,subtract,,,,,,,,,,,,,,,,,,,,,,
,,,,,survey-text,237,415525,0.0-47.0,AMNUNZ65OSTFO,2022-05-18T15:17:28.877Z,rhyme-task_switching-same_different-phon_sim,,1942.9,task_switching,54,"{""subtraction_ans"":""51""}",,TRUE,experiment,,,,,,,,subtraction,51,subtract,,,,,,,,,,,,,,,,,,,,,,
,,,,,survey-text,238,417679,0.0-48.0,AMNUNZ65OSTFO,2022-05-18T15:17:28.877Z,rhyme-task_switching-same_different-phon_sim,,2149.1,task_switching,19,"{""subtraction_ans"":""16""}",,TRUE,experiment,,,,,,,,subtraction,16,subtract,,,,,,,,,,,,,,,,,,,,,,
,,,,,survey-text,239,420047,0.0-49.0,AMNUNZ65OSTFO,2022-05-18T15:17:28.877Z,rhyme-task_switching-same_different-phon_sim,,2363.3,task_switching,39,"{""subtraction_ans"":""36""}",,TRUE,experiment,,,,,,,,subtraction,36,subtract,,,,,,,,,,,,,,,,,,,,,,
,,,,,survey-text,240,424484,0.0-50.0,AMNUNZ65OSTFO,2022-05-18T15:17:28.877Z,rhyme-task_switching-same_different-phon_sim,,4433.8,task_switching,99,"{""subtraction_ans"":""96""}",,TRUE,experiment,,,,,,,,subtraction,96,subtract,,,,,,,,,,,,,,,,,,,,,,
,,,,,survey-text,241,426372,0.0-51.0,AMNUNZ65OSTFO,2022-05-18T15:17:28.877Z,rhyme-task_switching-same_different-phon_sim,,1884.4,task_switching,32,"{""subtraction_ans"":""29""}",,TRUE,experiment,,,,,,,,subtraction,29,subtract,,,,,,,,,,,,,,,,,,,,,,
,,,,,survey-text,242,428139,0.0-52.0,AMNUNZ65OSTFO,2022-05-18T15:17:28.877Z,rhyme-task_switching-same_different-phon_sim,,1763.2,task_switching,29,"{""subtraction_ans"":""26""}",,TRUE,experiment,,,,,,,,subtraction,26,subtract,,,,,,,,,,,,,,,,,,,,,,
,,,,,survey-text,243,430146,0.0-53.0,AMNUNZ65OSTFO,2022-05-18T15:17:28.877Z,rhyme-task_switching-same_different-phon_sim,,2003.9,task_switching,70,"{""subtraction_ans"":""67""}",,TRUE,experiment,,,,,,,,subtraction,67,subtract,,,,,,,,,,,,,,,,,,,,,,
,,,,,survey-text,244,431678,0.0-54.0,AMNUNZ65OSTFO,2022-05-18T15:17:28.877Z,rhyme-task_switching-same_different-phon_sim,,1528,task_switching,38,"{""subtraction_ans"":""35""}",,TRUE,experiment,,,,,,,,subtraction,35,subtract,,,,,,,,,,,,,,,,,,,,,,
,,,,,survey-text,245,434817,0.0-55.0,AMNUNZ65OSTFO,2022-05-18T15:17:28.877Z,rhyme-task_switching-same_different-phon_sim,,3135.9,task_switching,46,"{""subtraction_ans"":""43""}",,TRUE,experiment,,,,,,,,subtraction,43,subtract,,,,,,,,,,,,,,,,,,,,,,
,,,,,survey-text,246,436483,0.0-56.0,AMNUNZ65OSTFO,2022-05-18T15:17:28.877Z,rhyme-task_switching-same_different-phon_sim,,1662.2,task_switching,26,"{""subtraction_ans"":""23""}",,TRUE,experiment,,,,,,,,subtraction,23,subtract,,,,,,,,,,,,,,,,,,,,,,
,,,,,survey-text,247,438866,0.0-57.0,AMNUNZ65OSTFO,2022-05-18T15:17:28.877Z,rhyme-task_switching-same_different-phon_sim,,2378.7,task_switching,87,"{""subtraction_ans"":""84""}",,TRUE,experiment,,,,,,,,subtraction,84,subtract,,,,,,,,,,,,,,,,,,,,,,
,,,,,survey-text,248,440928,0.0-58.0,AMNUNZ65OSTFO,2022-05-18T15:17:28.877Z,rhyme-task_switching-same_different-phon_sim,,2058.3,task_switching,82,"{""subtraction_ans"":""79""}",,TRUE,experiment,,,,,,,,subtraction,79,subtract,,,,,,,,,,,,,,,,,,,,,,
,,,,,survey-text,249,442723,0.0-59.0,AMNUNZ65OSTFO,2022-05-18T15:17:28.877Z,rhyme-task_switching-same_different-phon_sim,,1791.4,task_switching,13,"{""subtraction_ans"":""10""}",,TRUE,experiment,,,,,,,,subtraction,10,subtract,,,,,,,,,,,,,,,,,,,,,,
,,,,,survey-text,250,444850,0.0-60.0,AMNUNZ65OSTFO,2022-05-18T15:17:28.877Z,rhyme-task_switching-same_different-phon_sim,,2121.9,task_switching,66,"{""subtraction_ans"":""63""}",,TRUE,experiment,,,,,,,,subtraction,63,subtract,,,,,,,,,,,,,,,,,,,,,,
,,,,,survey-text,251,447215,0.0-61.0,AMNUNZ65OSTFO,2022-05-18T15:17:28.877Z,rhyme-task_switching-same_different-phon_sim,,2360.5,task_switching,21,"{""subtraction_ans"":""18""}",,TRUE,experiment,,,,,,,,subtraction,18,subtract,,,,,,,,,,,,,,,,,,,,,,
,,,,,survey-text,252,449748,0.0-62.0,AMNUNZ65OSTFO,2022-05-18T15:17:28.877Z,rhyme-task_switching-same_different-phon_sim,,2529.3,task_switching,57,"{""subtraction_ans"":""54""}",,TRUE,experiment,,,,,,,,subtraction,54,subtract,,,,,,,,,,,,,,,,,,,,,,
,,,,,instructions,253,453890,0.0-63.0,AMNUNZ65OSTFO,2022-05-18T15:17:28.877Z,rhyme-task_switching-same_different-phon_sim,"[{""page_index"":0,""viewing_time"":4139.699999988079}]",4140.4,task_switching,,,,,,,,,,,,,,,,,,,,,,,,,,,,,,,,,,,,,
,,,,,survey-text,254,455681,0.0-64.0,AMNUNZ65OSTFO,2022-05-18T15:17:28.877Z,rhyme-task_switching-same_different-phon_sim,,1788.1,task_switching,12,"{""addition_ans"":""15""}",,TRUE,training,,,,,,,,addition,15,add,,,,,,,,,,,,,,,,,,,,,,
,,,,,html-keyboard-response,255,456682,0.0-65.0,AMNUNZ65OSTFO,2022-05-18T15:17:28.877Z,rhyme-task_switching-same_different-phon_sim,,null,task_switching,"<div style=""color:darkgreen; font-size:60px"">Well done!</div>",null,,,training,,,,,,,,addition,,,,,,,,,,,,,,,,,,,,,,,,
,,,,,survey-text,256,458894,0.0-66.0,AMNUNZ65OSTFO,2022-05-18T15:17:28.877Z,rhyme-task_switching-same_different-phon_sim,,2209.1,task_switching,56,"{""addition_ans"":""59""}",,TRUE,training,,,,,,,,addition,59,add,,,,,,,,,,,,,,,,,,,,,,
,,,,,html-keyboard-response,257,459897,0.0-67.0,AMNUNZ65OSTFO,2022-05-18T15:17:28.877Z,rhyme-task_switching-same_different-phon_sim,,null,task_switching,"<div style=""color:darkgreen; font-size:60px"">Well done!</div>",null,,,training,,,,,,,,addition,,,,,,,,,,,,,,,,,,,,,,,,
,,,,,survey-text,258,461549,0.0-68.0,AMNUNZ65OSTFO,2022-05-18T15:17:28.877Z,rhyme-task_switching-same_different-phon_sim,,1649.8,task_switching,87,"{""addition_ans"":""90""}",,TRUE,training,,,,,,,,addition,90,add,,,,,,,,,,,,,,,,,,,,,,
,,,,,html-keyboard-response,259,462556,0.0-69.0,AMNUNZ65OSTFO,2022-05-18T15:17:28.877Z,rhyme-task_switching-same_different-phon_sim,,null,task_switching,"<div style=""color:darkgreen; font-size:60px"">Well done!</div>",null,,,training,,,,,,,,addition,,,,,,,,,,,,,,,,,,,,,,,,
,,,,,survey-text,260,464513,0.0-70.0,AMNUNZ65OSTFO,2022-05-18T15:17:28.877Z,rhyme-task_switching-same_different-phon_sim,,1953.8,task_switching,42,"{""addition_ans"":""45""}",,TRUE,training,,,,,,,,addition,45,add,,,,,,,,,,,,,,,,,,,,,,
,,,,,html-keyboard-response,261,465516,0.0-71.0,AMNUNZ65OSTFO,2022-05-18T15:17:28.877Z,rhyme-task_switching-same_different-phon_sim,,null,task_switching,"<div style=""color:darkgreen; font-size:60px"">Well done!</div>",null,,,training,,,,,,,,addition,,,,,,,,,,,,,,,,,,,,,,,,
,,,,,survey-text,262,467999,0.0-72.0,AMNUNZ65OSTFO,2022-05-18T15:17:28.877Z,rhyme-task_switching-same_different-phon_sim,,2479.8,task_switching,69,"{""addition_ans"":""72""}",,TRUE,training,,,,,,,,addition,72,add,,,,,,,,,,,,,,,,,,,,,,
,,,,,html-keyboard-response,263,469001,0.0-73.0,AMNUNZ65OSTFO,2022-05-18T15:17:28.877Z,rhyme-task_switching-same_different-phon_sim,,null,task_switching,"<div style=""color:darkgreen; font-size:60px"">Well done!</div>",null,,,training,,,,,,,,addition,,,,,,,,,,,,,,,,,,,,,,,,
,,,,,survey-text,264,470968,0.0-74.0,AMNUNZ65OSTFO,2022-05-18T15:17:28.877Z,rhyme-task_switching-same_different-phon_sim,,1963.4,task_switching,54,"{""addition_ans"":""57""}",,TRUE,training,,,,,,,,addition,57,add,,,,,,,,,,,,,,,,,,,,,,
,,,,,html-keyboard-response,265,471970,0.0-75.0,AMNUNZ65OSTFO,2022-05-18T15:17:28.877Z,rhyme-task_switching-same_different-phon_sim,,null,task_switching,"<div style=""color:darkgreen; font-size:60px"">Well done!</div>",null,,,training,,,,,,,,addition,,,,,,,,,,,,,,,,,,,,,,,,
,,,,,survey-text,266,474490,0.0-76.0,AMNUNZ65OSTFO,2022-05-18T15:17:28.877Z,rhyme-task_switching-same_different-phon_sim,,2518.3,task_switching,36,"{""addition_ans"":""39""}",,TRUE,training,,,,,,,,addition,39,add,,,,,,,,,,,,,,,,,,,,,,
,,,,,html-keyboard-response,267,475494,0.0-77.0,AMNUNZ65OSTFO,2022-05-18T15:17:28.877Z,rhyme-task_switching-same_different-phon_sim,,null,task_switching,"<div style=""color:darkgreen; font-size:60px"">Well done!</div>",null,,,training,,,,,,,,addition,,,,,,,,,,,,,,,,,,,,,,,,
,,,,,survey-text,268,477317,0.0-78.0,AMNUNZ65OSTFO,2022-05-18T15:17:28.877Z,rhyme-task_switching-same_different-phon_sim,,1821.1,task_switching,21,"{""addition_ans"":""24""}",,TRUE,training,,,,,,,,addition,24,add,,,,,,,,,,,,,,,,,,,,,,
,,,,,html-keyboard-response,269,478321,0.0-79.0,AMNUNZ65OSTFO,2022-05-18T15:17:28.877Z,rhyme-task_switching-same_different-phon_sim,,null,task_switching,"<div style=""color:darkgreen; font-size:60px"">Well done!</div>",null,,,training,,,,,,,,addition,,,,,,,,,,,,,,,,,,,,,,,,
,,,,,survey-text,270,480050,0.0-80.0,AMNUNZ65OSTFO,2022-05-18T15:17:28.877Z,rhyme-task_switching-same_different-phon_sim,,1726.9,task_switching,40,"{""addition_ans"":""43""}",,TRUE,training,,,,,,,,addition,43,add,,,,,,,,,,,,,,,,,,,,,,
,,,,,html-keyboard-response,271,481052,0.0-81.0,AMNUNZ65OSTFO,2022-05-18T15:17:28.877Z,rhyme-task_switching-same_different-phon_sim,,null,task_switching,"<div style=""color:darkgreen; font-size:60px"">Well done!</div>",null,,,training,,,,,,,,addition,,,,,,,,,,,,,,,,,,,,,,,,
,,,,,survey-text,272,483013,0.0-82.0,AMNUNZ65OSTFO,2022-05-18T15:17:28.877Z,rhyme-task_switching-same_different-phon_sim,,1958.7,task_switching,26,"{""addition_ans"":""29""}",,TRUE,training,,,,,,,,addition,29,add,,,,,,,,,,,,,,,,,,,,,,
,,,,,html-keyboard-response,273,484030,0.0-83.0,AMNUNZ65OSTFO,2022-05-18T15:17:28.877Z,rhyme-task_switching-same_different-phon_sim,,null,task_switching,"<div style=""color:darkgreen; font-size:60px"">Well done!</div>",null,,,training,,,,,,,,addition,,,,,,,,,,,,,,,,,,,,,,,,
,,,,,instructions,274,485811,0.0-84.0,AMNUNZ65OSTFO,2022-05-18T15:17:28.877Z,rhyme-task_switching-same_different-phon_sim,"[{""page_index"":0,""viewing_time"":1780.300000011921}]",1780.9,task_switching,,,,,,,,,,,,,,,,,,,,,,,,,,,,,,,,,,,,,
,,,,,survey-text,275,489430,0.0-85.0,AMNUNZ65OSTFO,2022-05-18T15:17:28.877Z,rhyme-task_switching-same_different-phon_sim,,3615.9,task_switching,93,"{""addition_ans"":""96""}",,TRUE,experiment,,,,,,,,addition,96,add,,,,,,,,,,,,,,,,,,,,,,
,,,,,survey-text,276,491605,0.0-86.0,AMNUNZ65OSTFO,2022-05-18T15:17:28.877Z,rhyme-task_switching-same_different-phon_sim,,2170.5,task_switching,68,"{""addition_ans"":""71""}",,TRUE,experiment,,,,,,,,addition,71,add,,,,,,,,,,,,,,,,,,,,,,
,,,,,survey-text,277,493420,0.0-87.0,AMNUNZ65OSTFO,2022-05-18T15:17:28.877Z,rhyme-task_switching-same_different-phon_sim,,1810.6,task_switching,53,"{""addition_ans"":""56""}",,TRUE,experiment,,,,,,,,addition,56,add,,,,,,,,,,,,,,,,,,,,,,
,,,,,survey-text,278,495227,0.0-88.0,AMNUNZ65OSTFO,2022-05-18T15:17:28.877Z,rhyme-task_switching-same_different-phon_sim,,1801.8,task_switching,23,"{""addition_ans"":""26""}",,TRUE,experiment,,,,,,,,addition,26,add,,,,,,,,,,,,,,,,,,,,,,
,,,,,survey-text,279,497047,0.0-89.0,AMNUNZ65OSTFO,2022-05-18T15:17:28.877Z,rhyme-task_switching-same_different-phon_sim,,1815.3,task_switching,62,"{""addition_ans"":""65""}",,TRUE,experiment,,,,,,,,addition,65,add,,,,,,,,,,,,,,,,,,,,,,
,,,,,survey-text,280,498608,0.0-90.0,AMNUNZ65OSTFO,2022-05-18T15:17:28.877Z,rhyme-task_switching-same_different-phon_sim,,1556.2,task_switching,11,"{""addition_ans"":""14""}",,TRUE,experiment,,,,,,,,addition,14,add,,,,,,,,,,,,,,,,,,,,,,
,,,,,survey-text,281,500707,0.0-91.0,AMNUNZ65OSTFO,2022-05-18T15:17:28.877Z,rhyme-task_switching-same_different-phon_sim,,2094.4,task_switching,71,"{""addition_ans"":""74""}",,TRUE,experiment,,,,,,,,addition,74,add,,,,,,,,,,,,,,,,,,,,,,
,,,,,survey-text,282,502773,0.0-92.0,AMNUNZ65OSTFO,2022-05-18T15:17:28.877Z,rhyme-task_switching-same_different-phon_sim,,2062,task_switching,27,"{""addition_ans"":""30""}",,TRUE,experiment,,,,,,,,addition,30,add,,,,,,,,,,,,,,,,,,,,,,
,,,,,survey-text,283,504513,0.0-93.0,AMNUNZ65OSTFO,2022-05-18T15:17:28.877Z,rhyme-task_switching-same_different-phon_sim,,1735.7,task_switching,14,"{""addition_ans"":""17""}",,TRUE,experiment,,,,,,,,addition,17,add,,,,,,,,,,,,,,,,,,,,,,
,,,,,survey-text,284,506175,0.0-94.0,AMNUNZ65OSTFO,2022-05-18T15:17:28.877Z,rhyme-task_switching-same_different-phon_sim,,1658,task_switching,42,"{""addition_ans"":""45""}",,TRUE,experiment,,,,,,,,addition,45,add,,,,,,,,,,,,,,,,,,,,,,
,,,,,survey-text,285,509105,0.0-95.0,AMNUNZ65OSTFO,2022-05-18T15:17:28.877Z,rhyme-task_switching-same_different-phon_sim,,2924.6,task_switching,84,"{""addition_ans"":""87""}",,TRUE,experiment,,,,,,,,addition,87,add,,,,,,,,,,,,,,,,,,,,,,
,,,,,survey-text,286,510702,0.0-96.0,AMNUNZ65OSTFO,2022-05-18T15:17:28.877Z,rhyme-task_switching-same_different-phon_sim,,1593.5,task_switching,19,"{""addition_ans"":""22""}",,TRUE,experiment,,,,,,,,addition,22,add,,,,,,,,,,,,,,,,,,,,,,
,,,,,survey-text,287,513113,0.0-97.0,AMNUNZ65OSTFO,2022-05-18T15:17:28.877Z,rhyme-task_switching-same_different-phon_sim,,2401.2,task_switching,78,"{""addition_ans"":""81""}",,TRUE,experiment,,,,,,,,addition,81,add,,,,,,,,,,,,,,,,,,,,,,
,,,,,survey-text,288,514566,0.0-98.0,AMNUNZ65OSTFO,2022-05-18T15:17:28.877Z,rhyme-task_switching-same_different-phon_sim,,1448.3,task_switching,10,"{""addition_ans"":""13""}",,TRUE,experiment,,,,,,,,addition,13,add,,,,,,,,,,,,,,,,,,,,,,
,,,,,survey-text,289,516442,0.0-99.0,AMNUNZ65OSTFO,2022-05-18T15:17:28.877Z,rhyme-task_switching-same_different-phon_sim,,1872.2,task_switching,49,"{""addition_ans"":""52""}",,TRUE,experiment,,,,,,,,addition,52,add,,,,,,,,,,,,,,,,,,,,,,
,,,,,survey-text,290,518763,0.0-100.0,AMNUNZ65OSTFO,2022-05-18T15:17:28.877Z,rhyme-task_switching-same_different-phon_sim,,2317.1,task_switching,82,"{""addition_ans"":""85""}",,TRUE,experiment,,,,,,,,addition,85,add,,,,,,,,,,,,,,,,,,,,,,
,,,,,survey-text,291,521044,0.0-101.0,AMNUNZ65OSTFO,2022-05-18T15:17:28.877Z,rhyme-task_switching-same_different-phon_sim,,2277,task_switching,80,"{""addition_ans"":""83""}",,TRUE,experiment,,,,,,,,addition,83,add,,,,,,,,,,,,,,,,,,,,,,
,,,,,survey-text,292,522946,0.0-102.0,AMNUNZ65OSTFO,2022-05-18T15:17:28.877Z,rhyme-task_switching-same_different-phon_sim,,1887.3,task_switching,17,"{""addition_ans"":""20""}",,TRUE,experiment,,,,,,,,addition,20,add,,,,,,,,,,,,,,,,,,,,,,
,,,,,survey-text,293,525704,0.0-103.0,AMNUNZ65OSTFO,2022-05-18T15:17:28.877Z,rhyme-task_switching-same_different-phon_sim,,2754.3,task_switching,86,"{""addition_ans"":""89""}",,TRUE,experiment,,,,,,,,addition,89,add,,,,,,,,,,,,,,,,,,,,,,
,,,,,survey-text,294,527347,0.0-104.0,AMNUNZ65OSTFO,2022-05-18T15:17:28.877Z,rhyme-task_switching-same_different-phon_sim,,1638.3,task_switching,64,"{""addition_ans"":""67""}",,TRUE,experiment,,,,,,,,addition,67,add,,,,,,,,,,,,,,,,,,,,,,
,,,,,survey-text,295,530212,0.0-105.0,AMNUNZ65OSTFO,2022-05-18T15:17:28.877Z,rhyme-task_switching-same_different-phon_sim,,2860.8,task_switching,91,"{""addition_ans"":""94""}",,TRUE,experiment,,,,,,,,addition,94,add,,,,,,,,,,,,,,,,,,,,,,
,,,,,survey-text,296,531850,0.0-106.0,AMNUNZ65OSTFO,2022-05-18T15:17:28.877Z,rhyme-task_switching-same_different-phon_sim,,1634.8,task_switching,36,"{""addition_ans"":""39""}",,TRUE,experiment,,,,,,,,addition,39,add,,,,,,,,,,,,,,,,,,,,,,
,,,,,survey-text,297,533398,0.0-107.0,AMNUNZ65OSTFO,2022-05-18T15:17:28.877Z,rhyme-task_switching-same_different-phon_sim,,1543,task_switching,26,"{""addition_ans"":""29""}",,TRUE,experiment,,,,,,,,addition,29,add,,,,,,,,,,,,,,,,,,,,,,
,,,,,survey-text,298,535489,0.0-108.0,AMNUNZ65OSTFO,2022-05-18T15:17:28.877Z,rhyme-task_switching-same_different-phon_sim,,2087.4,task_switching,47,"{""addition_ans"":""50""}",,TRUE,experiment,,,,,,,,addition,50,add,,,,,,,,,,,,,,,,,,,,,,
,,,,,survey-text,299,537426,0.0-109.0,AMNUNZ65OSTFO,2022-05-18T15:17:28.877Z,rhyme-task_switching-same_different-phon_sim,,1932.8,task_switching,20,"{""addition_ans"":""23""}",,TRUE,experiment,,,,,,,,addition,23,add,,,,,,,,,,,,,,,,,,,,,,
,,,,,survey-text,300,539250,0.0-110.0,AMNUNZ65OSTFO,2022-05-18T15:17:28.877Z,rhyme-task_switching-same_different-phon_sim,,1818.7,task_switching,60,"{""addition_ans"":""63""}",,TRUE,experiment,,,,,,,,addition,63,add,,,,,,,,,,,,,,,,,,,,,,
,,,,,survey-text,301,541454,0.0-111.0,AMNUNZ65OSTFO,2022-05-18T15:17:28.877Z,rhyme-task_switching-same_different-phon_sim,,2199.7,task_switching,79,"{""addition_ans"":""82""}",,TRUE,experiment,,,,,,,,addition,82,add,,,,,,,,,,,,,,,,,,,,,,
,,,,,survey-text,302,543984,0.0-112.0,AMNUNZ65OSTFO,2022-05-18T15:17:28.877Z,rhyme-task_switching-same_different-phon_sim,,2522.6,task_switching,56,"{""addition_ans"":""59""}",,TRUE,experiment,,,,,,,,addition,59,add,,,,,,,,,,,,,,,,,,,,,,
,,,,,survey-text,303,545816,0.0-113.0,AMNUNZ65OSTFO,2022-05-18T15:17:28.877Z,rhyme-task_switching-same_different-phon_sim,,1827.2,task_switching,72,"{""addition_ans"":""75""}",,TRUE,experiment,,,,,,,,addition,75,add,,,,,,,,,,,,,,,,,,,,,,
,,,,,survey-text,304,547732,0.0-114.0,AMNUNZ65OSTFO,2022-05-18T15:17:28.877Z,rhyme-task_switching-same_different-phon_sim,,1911,task_switching,43,"{""addition_ans"":""46""}",,TRUE,experiment,,,,,,,,addition,46,add,,,,,,,,,,,,,,,,,,,,,,
