"success","timeout","failed_images","failed_audio","failed_video","trial_type","trial_index","time_elapsed","internal_node_id","worker_id","start_time","experiment_order","view_history","rt","experiment","stimulus","response","judgment_type","stim_1","stim_2","inverted","answer","true_pos","correct","true_neg","false_neg","question_order","talk_out_loud","strategy_free_ans","phase","condition","operation","trial_no","symbol_cue","color_cue","word_1","word_2","word_3","word_4","word_5","original_word_set","response_1","response_2","response_3","response_4","response_5"
"true","false","[]","[]","[]","preload","0","3483","0.0-0.0","AURYD2FH3FUOQ","2022-05-19T01:31:25.801Z","same_different-task_switching-phon_sim-rhyme","","","","","","","","","","","","","","","","","","","","","","","","","","","","","","","","","",""
"","","","","","instructions","1","18954","0.0-1.0","AURYD2FH3FUOQ","2022-05-19T01:31:25.801Z","same_different-task_switching-phon_sim-rhyme","[{""page_index"":0,""viewing_time"":15467.900000000373}]","15468.799999998882","","","","","","","","","","","","","","","","","","","","","","","","","","","","","","","",""
"true","","","","","fullscreen","2","27404","0.0-2.0","AURYD2FH3FUOQ","2022-05-19T01:31:25.801Z","same_different-task_switching-phon_sim-rhyme","","","","","","","","","","","","","","","","","","","","","","","","","","","","","","","","","",""
"","","","","","instructions","3","183427","0.0-3.0","AURYD2FH3FUOQ","2022-05-19T01:31:25.801Z","same_different-task_switching-phon_sim-rhyme","[{""page_index"":0,""viewing_time"":156020.90000000037}]","156021.30000000075","same_different","","","","","","","","","","","","","","","","","","","","","","","","","","","","","","",""
"","","","","","instructions","4","194980","0.0-4.0","AURYD2FH3FUOQ","2022-05-19T01:31:25.801Z","same_different-task_switching-phon_sim-rhyme","[{""page_index"":0,""viewing_time"":11550.5}]","11551.099999999627","","","","","","","","","","","","","","","","","","","","","","","","","","","","","","","",""
"","","","","","html-keyboard-response","5","195733","0.0-5.0-0.0","AURYD2FH3FUOQ","2022-05-19T01:31:25.801Z","same_different-task_switching-phon_sim-rhyme","","null","same_different","<div style=""font-size:60px"">+</div>","null","","","","","","","","","","","","","","","","","","","","","","","","","","","","",""
"","","","","","html-keyboard-response","6","200040","0.0-5.0-1.0","AURYD2FH3FUOQ","2022-05-19T01:31:25.801Z","same_different-task_switching-phon_sim-rhyme","","4299.0999999996275","same_different","[""<img src=\""square.png\"" width=\""100\"" height=\""100\"" style=\""position: fixed;left:39%;top:47%\""><img src=\""square.png\"" width=\""100\"" height=\""100\"" style=\""position: fixed;left:54%;top:47%\""><img src=\""square.png\"" width=\""100\"" height=\""100\"" style=\""position: fixed;left:46.5%;top:32%\""><img src=\""square.png\"" width=\""100\"" height=\""100\"" style=\""position: fixed;left:46.5%;top:61%\""><div style=\""font-size:60px;text-align: center;margin-top:35.2%\"">+</div><div id=\""first\"" style=\""position: fixed;visibility: hidden;left:40%;top:48%\""><img src=\""same_diff_imgs/D09.gif\"" style=\""-webkit-transform: scaleX(-1);transform: scaleX(-1);\""></div><div id=\""delayed\"" style=\""position: fixed;visibility: hidden;left:48%;top:34%\""><img src=\""same_diff_imgs/D11.gif\"" style=\""-webkit-transform: scaleX(-1);transform: scaleX(-1);\""></div>""]","arrowup","categorical_image","same_diff_imgs/D09.gif","same_diff_imgs/D11.gif","yes","same","1","true","","","","","","","","","","","","","","","","","","","","","",""
"","","","","","html-keyboard-response","7","200049","0.0-5.0-2.0","AURYD2FH3FUOQ","2022-05-19T01:31:25.801Z","same_different-task_switching-phon_sim-rhyme","","null",""," ","null","","","","","","","","","","","","","","","","","","","","","","","","","","","","",""
"","","","","","html-keyboard-response","8","200351","0.0-5.0-3.0","AURYD2FH3FUOQ","2022-05-19T01:31:25.801Z","same_different-task_switching-phon_sim-rhyme","","null","same_different"," ","null","","","","","","","","","","","","","","","","","","","","","","","","","","","","",""
"","","","","","html-keyboard-response","9","201102","0.0-5.0-0.1","AURYD2FH3FUOQ","2022-05-19T01:31:25.801Z","same_different-task_switching-phon_sim-rhyme","","null","same_different","<div style=""font-size:60px"">+</div>","null","","","","","","","","","","","","","","","","","","","","","","","","","","","","",""
"","","","","","html-keyboard-response","10","203190","0.0-5.0-1.1","AURYD2FH3FUOQ","2022-05-19T01:31:25.801Z","same_different-task_switching-phon_sim-rhyme","","2086.2999999988824","same_different","[""<img src=\""square.png\"" width=\""100\"" height=\""100\"" style=\""position: fixed;left:39%;top:47%\""><img src=\""square.png\"" width=\""100\"" height=\""100\"" style=\""position: fixed;left:54%;top:47%\""><img src=\""square.png\"" width=\""100\"" height=\""100\"" style=\""position: fixed;left:46.5%;top:32%\""><img src=\""square.png\"" width=\""100\"" height=\""100\"" style=\""position: fixed;left:46.5%;top:61%\""><div style=\""font-size:60px; text-align: center;margin-top:35.2%\"">+</div><div id=\""first\"" style=\""position: fixed;visibility: hidden;left:48%;top:34%\""><img src=\""same_diff_imgs/C04.gif\""></div><div id=\""delayed\"" style=\""position: fixed;visibility: hidden;left:48%;top:62%\""><img src=\""same_diff_imgs/C09.gif\""></div>""]","arrowup","categorical_image","same_diff_imgs/C04.gif","same_diff_imgs/C09.gif","no","same","1","true","","","","","","","","","","","","","","","","","","","","","",""
"","","","","","html-keyboard-response","11","203194","0.0-5.0-2.1","AURYD2FH3FUOQ","2022-05-19T01:31:25.801Z","same_different-task_switching-phon_sim-rhyme","","null",""," ","null","","","","","","","","","","","","","","","","","","","","","","","","","","","","",""
"","","","","","html-keyboard-response","12","203496","0.0-5.0-3.1","AURYD2FH3FUOQ","2022-05-19T01:31:25.801Z","same_different-task_switching-phon_sim-rhyme","","null","same_different"," ","null","","","","","","","","","","","","","","","","","","","","","","","","","","","","",""
"","","","","","html-keyboard-response","13","204247","0.0-5.0-0.2","AURYD2FH3FUOQ","2022-05-19T01:31:25.801Z","same_different-task_switching-phon_sim-rhyme","","null","same_different","<div style=""font-size:60px"">+</div>","null","","","","","","","","","","","","","","","","","","","","","","","","","","","","",""
"","","","","","html-keyboard-response","14","207155","0.0-5.0-1.2","AURYD2FH3FUOQ","2022-05-19T01:31:25.801Z","same_different-task_switching-phon_sim-rhyme","","2905.4000000003725","same_different","[""<img src=\""square.png\"" width=\""100\"" height=\""100\"" style=\""position: fixed;left:39%;top:47%\""><img src=\""square.png\"" width=\""100\"" height=\""100\"" style=\""position: fixed;left:54%;top:47%\""><img src=\""square.png\"" width=\""100\"" height=\""100\"" style=\""position: fixed;left:46.5%;top:32%\""><img src=\""square.png\"" width=\""100\"" height=\""100\"" style=\""position: fixed;left:46.5%;top:61%\""><div style=\""font-size:60px;text-align: center;margin-top:35.2%\"">+</div><div id=\""first\"" style=\""position: fixed;visibility: hidden;left:40%;top:48%\""><img src=\""same_diff_imgs/D09.gif\"" style=\""-webkit-transform: scaleX(-1);transform: scaleX(-1);\""></div><div id=\""delayed\"" style=\""position: fixed;visibility: hidden;left:55%;top:49%\""><img src=\""same_diff_imgs/D07.gif\"" style=\""-webkit-transform: scaleX(-1);transform: scaleX(-1);\""></div>""]","arrowup","categorical_image","same_diff_imgs/D09.gif","same_diff_imgs/D07.gif","yes","same","1","true","","","","","","","","","","","","","","","","","","","","","",""
"","","","","","html-keyboard-response","15","207158","0.0-5.0-2.2","AURYD2FH3FUOQ","2022-05-19T01:31:25.801Z","same_different-task_switching-phon_sim-rhyme","","null",""," ","null","","","","","","","","","","","","","","","","","","","","","","","","","","","","",""
"","","","","","html-keyboard-response","16","207460","0.0-5.0-3.2","AURYD2FH3FUOQ","2022-05-19T01:31:25.801Z","same_different-task_switching-phon_sim-rhyme","","null","same_different"," ","null","","","","","","","","","","","","","","","","","","","","","","","","","","","","",""
"","","","","","html-keyboard-response","17","208211","0.0-5.0-0.3","AURYD2FH3FUOQ","2022-05-19T01:31:25.801Z","same_different-task_switching-phon_sim-rhyme","","null","same_different","<div style=""font-size:60px"">+</div>","null","","","","","","","","","","","","","","","","","","","","","","","","","","","","",""
"","","","","","html-keyboard-response","18","210482","0.0-5.0-1.3","AURYD2FH3FUOQ","2022-05-19T01:31:25.801Z","same_different-task_switching-phon_sim-rhyme","","2268.7000000011176","same_different","[""<img src=\""square.png\"" width=\""100\"" height=\""100\"" style=\""position: fixed;left:39%;top:47%\""><img src=\""square.png\"" width=\""100\"" height=\""100\"" style=\""position: fixed;left:54%;top:47%\""><img src=\""square.png\"" width=\""100\"" height=\""100\"" style=\""position: fixed;left:46.5%;top:32%\""><img src=\""square.png\"" width=\""100\"" height=\""100\"" style=\""position: fixed;left:46.5%;top:61%\""><div style=\""font-size:60px; text-align: center;margin-top:35.2%\"">+</div><div id=\""first\"" style=\""position: fixed;visibility: hidden;left:48%;top:62%\""><img src=\""same_diff_imgs/C09.gif\""></div><div id=\""delayed\"" style=\""position: fixed;visibility: hidden;left:55%;top:49%\""><img src=\""same_diff_imgs/D07.gif\""></div>""]","arrowdown","categorical_image","same_diff_imgs/C09.gif","same_diff_imgs/D07.gif","no","different","","true","1","","","","","","","","","","","","","","","","","","","","",""
"","","","","","html-keyboard-response","19","210484","0.0-5.0-2.3","AURYD2FH3FUOQ","2022-05-19T01:31:25.801Z","same_different-task_switching-phon_sim-rhyme","","null",""," ","null","","","","","","","","","","","","","","","","","","","","","","","","","","","","",""
"","","","","","html-keyboard-response","20","210788","0.0-5.0-3.3","AURYD2FH3FUOQ","2022-05-19T01:31:25.801Z","same_different-task_switching-phon_sim-rhyme","","null","same_different"," ","null","","","","","","","","","","","","","","","","","","","","","","","","","","","","",""
"","","","","","html-keyboard-response","21","211541","0.0-5.0-0.4","AURYD2FH3FUOQ","2022-05-19T01:31:25.801Z","same_different-task_switching-phon_sim-rhyme","","null","same_different","<div style=""font-size:60px"">+</div>","null","","","","","","","","","","","","","","","","","","","","","","","","","","","","",""
"","","","","","html-keyboard-response","22","214330","0.0-5.0-1.4","AURYD2FH3FUOQ","2022-05-19T01:31:25.801Z","same_different-task_switching-phon_sim-rhyme","","2780.800000000745","same_different","[""<img src=\""square.png\"" width=\""100\"" height=\""100\"" style=\""position: fixed;left:39%;top:47%\""><img src=\""square.png\"" width=\""100\"" height=\""100\"" style=\""position: fixed;left:54%;top:47%\""><img src=\""square.png\"" width=\""100\"" height=\""100\"" style=\""position: fixed;left:46.5%;top:32%\""><img src=\""square.png\"" width=\""100\"" height=\""100\"" style=\""position: fixed;left:46.5%;top:61%\""><div style=\""font-size:60px;text-align: center;margin-top:35.2%\"">+</div><div id=\""first\"" style=\""position: fixed;visibility: hidden;left:40%;top:48%\""><img src=\""same_diff_imgs/C09.gif\"" style=\""-webkit-transform: scaleX(-1);transform: scaleX(-1);\""></div><div id=\""delayed\"" style=\""position: fixed;visibility: hidden;left:48%;top:62%\""><img src=\""same_diff_imgs/C14.gif\"" style=\""-webkit-transform: scaleX(-1);transform: scaleX(-1);\""></div>""]","arrowup","categorical_image","same_diff_imgs/C09.gif","same_diff_imgs/C14.gif","yes","same","1","true","","","","","","","","","","","","","","","","","","","","","",""
"","","","","","html-keyboard-response","23","214333","0.0-5.0-2.4","AURYD2FH3FUOQ","2022-05-19T01:31:25.801Z","same_different-task_switching-phon_sim-rhyme","","null",""," ","null","","","","","","","","","","","","","","","","","","","","","","","","","","","","",""
"","","","","","html-keyboard-response","24","214634","0.0-5.0-3.4","AURYD2FH3FUOQ","2022-05-19T01:31:25.801Z","same_different-task_switching-phon_sim-rhyme","","null","same_different"," ","null","","","","","","","","","","","","","","","","","","","","","","","","","","","","",""
"","","","","","html-keyboard-response","25","215386","0.0-5.0-0.5","AURYD2FH3FUOQ","2022-05-19T01:31:25.801Z","same_different-task_switching-phon_sim-rhyme","","null","same_different","<div style=""font-size:60px"">+</div>","null","","","","","","","","","","","","","","","","","","","","","","","","","","","","",""
"","","","","","html-keyboard-response","26","217281","0.0-5.0-1.5","AURYD2FH3FUOQ","2022-05-19T01:31:25.801Z","same_different-task_switching-phon_sim-rhyme","","1891.7999999988824","same_different","[""<img src=\""square.png\"" width=\""100\"" height=\""100\"" style=\""position: fixed;left:39%;top:47%\""><img src=\""square.png\"" width=\""100\"" height=\""100\"" style=\""position: fixed;left:54%;top:47%\""><img src=\""square.png\"" width=\""100\"" height=\""100\"" style=\""position: fixed;left:46.5%;top:32%\""><img src=\""square.png\"" width=\""100\"" height=\""100\"" style=\""position: fixed;left:46.5%;top:61%\""><div style=\""font-size:60px;text-align: center;margin-top:35.2%\"">+</div><div id=\""first\"" style=\""position: fixed;visibility: hidden;left:48%;top:62%\""><img src=\""same_diff_imgs/C09.gif\"" style=\""-webkit-transform: scaleX(-1);transform: scaleX(-1);\""></div><div id=\""delayed\"" style=\""position: fixed;visibility: hidden;left:40%;top:48%\""><img src=\""same_diff_imgs/D07.gif\"" style=\""-webkit-transform: scaleX(-1);transform: scaleX(-1);\""></div>""]","arrowdown","categorical_image","same_diff_imgs/C09.gif","same_diff_imgs/D07.gif","yes","different","","true","1","","","","","","","","","","","","","","","","","","","","",""
"","","","","","html-keyboard-response","27","217284","0.0-5.0-2.5","AURYD2FH3FUOQ","2022-05-19T01:31:25.801Z","same_different-task_switching-phon_sim-rhyme","","null",""," ","null","","","","","","","","","","","","","","","","","","","","","","","","","","","","",""
"","","","","","html-keyboard-response","28","217586","0.0-5.0-3.5","AURYD2FH3FUOQ","2022-05-19T01:31:25.801Z","same_different-task_switching-phon_sim-rhyme","","null","same_different"," ","null","","","","","","","","","","","","","","","","","","","","","","","","","","","","",""
"","","","","","html-keyboard-response","29","218337","0.0-5.0-0.6","AURYD2FH3FUOQ","2022-05-19T01:31:25.801Z","same_different-task_switching-phon_sim-rhyme","","null","same_different","<div style=""font-size:60px"">+</div>","null","","","","","","","","","","","","","","","","","","","","","","","","","","","","",""
"","","","","","html-keyboard-response","30","220234","0.0-5.0-1.6","AURYD2FH3FUOQ","2022-05-19T01:31:25.801Z","same_different-task_switching-phon_sim-rhyme","","1894.0999999996275","same_different","[""<img src=\""square.png\"" width=\""100\"" height=\""100\"" style=\""position: fixed;left:39%;top:47%\""><img src=\""square.png\"" width=\""100\"" height=\""100\"" style=\""position: fixed;left:54%;top:47%\""><img src=\""square.png\"" width=\""100\"" height=\""100\"" style=\""position: fixed;left:46.5%;top:32%\""><img src=\""square.png\"" width=\""100\"" height=\""100\"" style=\""position: fixed;left:46.5%;top:61%\""><div style=\""font-size:60px;text-align: center;margin-top:35.2%\"">+</div><div id=\""first\"" style=\""position: fixed;visibility: hidden;left:48%;top:34%\""><img src=\""same_diff_imgs/D07.gif\"" style=\""-webkit-transform: scaleX(-1);transform: scaleX(-1);\""></div><div id=\""delayed\"" style=\""position: fixed;visibility: hidden;left:55%;top:49%\""><img src=\""same_diff_imgs/D09.gif\"" style=\""-webkit-transform: scaleX(-1);transform: scaleX(-1);\""></div>""]","arrowup","categorical_image","same_diff_imgs/D07.gif","same_diff_imgs/D09.gif","yes","same","1","true","","","","","","","","","","","","","","","","","","","","","",""
"","","","","","html-keyboard-response","31","220236","0.0-5.0-2.6","AURYD2FH3FUOQ","2022-05-19T01:31:25.801Z","same_different-task_switching-phon_sim-rhyme","","null",""," ","null","","","","","","","","","","","","","","","","","","","","","","","","","","","","",""
"","","","","","html-keyboard-response","32","220538","0.0-5.0-3.6","AURYD2FH3FUOQ","2022-05-19T01:31:25.801Z","same_different-task_switching-phon_sim-rhyme","","null","same_different"," ","null","","","","","","","","","","","","","","","","","","","","","","","","","","","","",""
"","","","","","html-keyboard-response","33","221289","0.0-5.0-0.7","AURYD2FH3FUOQ","2022-05-19T01:31:25.801Z","same_different-task_switching-phon_sim-rhyme","","null","same_different","<div style=""font-size:60px"">+</div>","null","","","","","","","","","","","","","","","","","","","","","","","","","","","","",""
"","","","","","html-keyboard-response","34","223811","0.0-5.0-1.7","AURYD2FH3FUOQ","2022-05-19T01:31:25.801Z","same_different-task_switching-phon_sim-rhyme","","2519.4000000003725","same_different","[""<img src=\""square.png\"" width=\""100\"" height=\""100\"" style=\""position: fixed;left:39%;top:47%\""><img src=\""square.png\"" width=\""100\"" height=\""100\"" style=\""position: fixed;left:54%;top:47%\""><img src=\""square.png\"" width=\""100\"" height=\""100\"" style=\""position: fixed;left:46.5%;top:32%\""><img src=\""square.png\"" width=\""100\"" height=\""100\"" style=\""position: fixed;left:46.5%;top:61%\""><div style=\""font-size:60px; text-align: center;margin-top:35.2%\"">+</div><div id=\""first\"" style=\""position: fixed;visibility: hidden;left:40%;top:48%\""><img src=\""same_diff_imgs/C14.gif\""></div><div id=\""delayed\"" style=\""position: fixed;visibility: hidden;left:48%;top:62%\""><img src=\""same_diff_imgs/C09.gif\""></div>""]","arrowup","categorical_image","same_diff_imgs/C14.gif","same_diff_imgs/C09.gif","no","same","1","true","","","","","","","","","","","","","","","","","","","","","",""
"","","","","","html-keyboard-response","35","223818","0.0-5.0-2.7","AURYD2FH3FUOQ","2022-05-19T01:31:25.801Z","same_different-task_switching-phon_sim-rhyme","","null",""," ","null","","","","","","","","","","","","","","","","","","","","","","","","","","","","",""
"","","","","","html-keyboard-response","36","224192","0.0-5.0-3.7","AURYD2FH3FUOQ","2022-05-19T01:31:25.801Z","same_different-task_switching-phon_sim-rhyme","","null","same_different"," ","null","","","","","","","","","","","","","","","","","","","","","","","","","","","","",""
"","","","","","html-keyboard-response","37","224944","0.0-5.0-0.8","AURYD2FH3FUOQ","2022-05-19T01:31:25.801Z","same_different-task_switching-phon_sim-rhyme","","null","same_different","<div style=""font-size:60px"">+</div>","null","","","","","","","","","","","","","","","","","","","","","","","","","","","","",""
"","","","","","html-keyboard-response","38","226938","0.0-5.0-1.8","AURYD2FH3FUOQ","2022-05-19T01:31:25.801Z","same_different-task_switching-phon_sim-rhyme","","1987","same_different","[""<img src=\""square.png\"" width=\""100\"" height=\""100\"" style=\""position: fixed;left:39%;top:47%\""><img src=\""square.png\"" width=\""100\"" height=\""100\"" style=\""position: fixed;left:54%;top:47%\""><img src=\""square.png\"" width=\""100\"" height=\""100\"" style=\""position: fixed;left:46.5%;top:32%\""><img src=\""square.png\"" width=\""100\"" height=\""100\"" style=\""position: fixed;left:46.5%;top:61%\""><div style=\""font-size:60px;text-align: center;margin-top:35.2%\"">+</div><div id=\""first\"" style=\""position: fixed;visibility: hidden;left:40%;top:48%\""><img src=\""same_diff_imgs/D11.gif\"" style=\""-webkit-transform: scaleX(-1);transform: scaleX(-1);\""></div><div id=\""delayed\"" style=\""position: fixed;visibility: hidden;left:48%;top:34%\""><img src=\""same_diff_imgs/D11.gif\"" style=\""-webkit-transform: scaleX(-1);transform: scaleX(-1);\""></div>""]","arrowup","categorical_image","same_diff_imgs/D11.gif","same_diff_imgs/D11.gif","yes","same","1","true","","","","","","","","","","","","","","","","","","","","","",""
"","","","","","html-keyboard-response","39","226941","0.0-5.0-2.8","AURYD2FH3FUOQ","2022-05-19T01:31:25.801Z","same_different-task_switching-phon_sim-rhyme","","null",""," ","null","","","","","","","","","","","","","","","","","","","","","","","","","","","","",""
"","","","","","html-keyboard-response","40","227254","0.0-5.0-3.8","AURYD2FH3FUOQ","2022-05-19T01:31:25.801Z","same_different-task_switching-phon_sim-rhyme","","null","same_different"," ","null","","","","","","","","","","","","","","","","","","","","","","","","","","","","",""
"","","","","","html-keyboard-response","41","228005","0.0-5.0-0.9","AURYD2FH3FUOQ","2022-05-19T01:31:25.801Z","same_different-task_switching-phon_sim-rhyme","","null","same_different","<div style=""font-size:60px"">+</div>","null","","","","","","","","","","","","","","","","","","","","","","","","","","","","",""
"","","","","","html-keyboard-response","42","229907","0.0-5.0-1.9","AURYD2FH3FUOQ","2022-05-19T01:31:25.801Z","same_different-task_switching-phon_sim-rhyme","","1897.199999999255","same_different","[""<img src=\""square.png\"" width=\""100\"" height=\""100\"" style=\""position: fixed;left:39%;top:47%\""><img src=\""square.png\"" width=\""100\"" height=\""100\"" style=\""position: fixed;left:54%;top:47%\""><img src=\""square.png\"" width=\""100\"" height=\""100\"" style=\""position: fixed;left:46.5%;top:32%\""><img src=\""square.png\"" width=\""100\"" height=\""100\"" style=\""position: fixed;left:46.5%;top:61%\""><div style=\""font-size:60px;text-align: center;margin-top:35.2%\"">+</div><div id=\""first\"" style=\""position: fixed;visibility: hidden;left:48%;top:62%\""><img src=\""same_diff_imgs/D11.gif\"" style=\""-webkit-transform: scaleX(-1);transform: scaleX(-1);\""></div><div id=\""delayed\"" style=\""position: fixed;visibility: hidden;left:48%;top:34%\""><img src=\""same_diff_imgs/C14.gif\"" style=\""-webkit-transform: scaleX(-1);transform: scaleX(-1);\""></div>""]","arrowdown","categorical_image","same_diff_imgs/D11.gif","same_diff_imgs/C14.gif","yes","different","","true","1","","","","","","","","","","","","","","","","","","","","",""
"","","","","","html-keyboard-response","43","229909","0.0-5.0-2.9","AURYD2FH3FUOQ","2022-05-19T01:31:25.801Z","same_different-task_switching-phon_sim-rhyme","","null",""," ","null","","","","","","","","","","","","","","","","","","","","","","","","","","","","",""
"","","","","","html-keyboard-response","44","230211","0.0-5.0-3.9","AURYD2FH3FUOQ","2022-05-19T01:31:25.801Z","same_different-task_switching-phon_sim-rhyme","","null","same_different"," ","null","","","","","","","","","","","","","","","","","","","","","","","","","","","","",""
"","","","","","html-keyboard-response","45","230962","0.0-5.0-0.10","AURYD2FH3FUOQ","2022-05-19T01:31:25.801Z","same_different-task_switching-phon_sim-rhyme","","null","same_different","<div style=""font-size:60px"">+</div>","null","","","","","","","","","","","","","","","","","","","","","","","","","","","","",""
"","","","","","html-keyboard-response","46","232907","0.0-5.0-1.10","AURYD2FH3FUOQ","2022-05-19T01:31:25.801Z","same_different-task_switching-phon_sim-rhyme","","1939.300000000745","same_different","[""<img src=\""square.png\"" width=\""100\"" height=\""100\"" style=\""position: fixed;left:39%;top:47%\""><img src=\""square.png\"" width=\""100\"" height=\""100\"" style=\""position: fixed;left:54%;top:47%\""><img src=\""square.png\"" width=\""100\"" height=\""100\"" style=\""position: fixed;left:46.5%;top:32%\""><img src=\""square.png\"" width=\""100\"" height=\""100\"" style=\""position: fixed;left:46.5%;top:61%\""><div style=\""font-size:60px;text-align: center;margin-top:35.2%\"">+</div><div id=\""first\"" style=\""position: fixed;visibility: hidden;left:48%;top:34%\""><img src=\""same_diff_imgs/C14.gif\"" style=\""-webkit-transform: scaleX(-1);transform: scaleX(-1);\""></div><div id=\""delayed\"" style=\""position: fixed;visibility: hidden;left:48%;top:62%\""><img src=\""same_diff_imgs/D11.gif\"" style=\""-webkit-transform: scaleX(-1);transform: scaleX(-1);\""></div>""]","arrowdown","categorical_image","same_diff_imgs/C14.gif","same_diff_imgs/D11.gif","yes","different","","true","1","","","","","","","","","","","","","","","","","","","","",""
"","","","","","html-keyboard-response","47","232909","0.0-5.0-2.10","AURYD2FH3FUOQ","2022-05-19T01:31:25.801Z","same_different-task_switching-phon_sim-rhyme","","null",""," ","null","","","","","","","","","","","","","","","","","","","","","","","","","","","","",""
"","","","","","html-keyboard-response","48","233211","0.0-5.0-3.10","AURYD2FH3FUOQ","2022-05-19T01:31:25.801Z","same_different-task_switching-phon_sim-rhyme","","null","same_different"," ","null","","","","","","","","","","","","","","","","","","","","","","","","","","","","",""
"","","","","","html-keyboard-response","49","233962","0.0-5.0-0.11","AURYD2FH3FUOQ","2022-05-19T01:31:25.801Z","same_different-task_switching-phon_sim-rhyme","","null","same_different","<div style=""font-size:60px"">+</div>","null","","","","","","","","","","","","","","","","","","","","","","","","","","","","",""
"","","","","","html-keyboard-response","50","235904","0.0-5.0-1.11","AURYD2FH3FUOQ","2022-05-19T01:31:25.801Z","same_different-task_switching-phon_sim-rhyme","","1933.8999999985099","same_different","[""<img src=\""square.png\"" width=\""100\"" height=\""100\"" style=\""position: fixed;left:39%;top:47%\""><img src=\""square.png\"" width=\""100\"" height=\""100\"" style=\""position: fixed;left:54%;top:47%\""><img src=\""square.png\"" width=\""100\"" height=\""100\"" style=\""position: fixed;left:46.5%;top:32%\""><img src=\""square.png\"" width=\""100\"" height=\""100\"" style=\""position: fixed;left:46.5%;top:61%\""><div style=\""font-size:60px; text-align: center;margin-top:35.2%\"">+</div><div id=\""first\"" style=\""position: fixed;visibility: hidden;left:55%;top:49%\""><img src=\""same_diff_imgs/D07.gif\""></div><div id=\""delayed\"" style=\""position: fixed;visibility: hidden;left:48%;top:34%\""><img src=\""same_diff_imgs/C09.gif\""></div>""]","arrowdown","categorical_image","same_diff_imgs/D07.gif","same_diff_imgs/C09.gif","no","different","","true","1","","","","","","","","","","","","","","","","","","","","",""
"","","","","","html-keyboard-response","51","235906","0.0-5.0-2.11","AURYD2FH3FUOQ","2022-05-19T01:31:25.801Z","same_different-task_switching-phon_sim-rhyme","","null",""," ","null","","","","","","","","","","","","","","","","","","","","","","","","","","","","",""
"","","","","","html-keyboard-response","52","236215","0.0-5.0-3.11","AURYD2FH3FUOQ","2022-05-19T01:31:25.801Z","same_different-task_switching-phon_sim-rhyme","","null","same_different"," ","null","","","","","","","","","","","","","","","","","","","","","","","","","","","","",""
"","","","","","html-keyboard-response","53","236966","0.0-5.0-0.12","AURYD2FH3FUOQ","2022-05-19T01:31:25.801Z","same_different-task_switching-phon_sim-rhyme","","null","same_different","<div style=""font-size:60px"">+</div>","null","","","","","","","","","","","","","","","","","","","","","","","","","","","","",""
"","","","","","html-keyboard-response","54","238602","0.0-5.0-1.12","AURYD2FH3FUOQ","2022-05-19T01:31:25.801Z","same_different-task_switching-phon_sim-rhyme","","1633.699999999255","same_different","[""<img src=\""square.png\"" width=\""100\"" height=\""100\"" style=\""position: fixed;left:39%;top:47%\""><img src=\""square.png\"" width=\""100\"" height=\""100\"" style=\""position: fixed;left:54%;top:47%\""><img src=\""square.png\"" width=\""100\"" height=\""100\"" style=\""position: fixed;left:46.5%;top:32%\""><img src=\""square.png\"" width=\""100\"" height=\""100\"" style=\""position: fixed;left:46.5%;top:61%\""><div style=\""font-size:60px; text-align: center;margin-top:35.2%\"">+</div><div id=\""first\"" style=\""position: fixed;visibility: hidden;left:55%;top:49%\""><img src=\""same_diff_imgs/D11.gif\""></div><div id=\""delayed\"" style=\""position: fixed;visibility: hidden;left:48%;top:34%\""><img src=\""same_diff_imgs/D11.gif\""></div>""]","arrowup","categorical_image","same_diff_imgs/D11.gif","same_diff_imgs/D11.gif","no","same","1","true","","","","","","","","","","","","","","","","","","","","","",""
"","","","","","html-keyboard-response","55","238604","0.0-5.0-2.12","AURYD2FH3FUOQ","2022-05-19T01:31:25.801Z","same_different-task_switching-phon_sim-rhyme","","null",""," ","null","","","","","","","","","","","","","","","","","","","","","","","","","","","","",""
"","","","","","html-keyboard-response","56","238906","0.0-5.0-3.12","AURYD2FH3FUOQ","2022-05-19T01:31:25.801Z","same_different-task_switching-phon_sim-rhyme","","null","same_different"," ","null","","","","","","","","","","","","","","","","","","","","","","","","","","","","",""
"","","","","","html-keyboard-response","57","239657","0.0-5.0-0.13","AURYD2FH3FUOQ","2022-05-19T01:31:25.801Z","same_different-task_switching-phon_sim-rhyme","","null","same_different","<div style=""font-size:60px"">+</div>","null","","","","","","","","","","","","","","","","","","","","","","","","","","","","",""
"","","","","","html-keyboard-response","58","241494","0.0-5.0-1.13","AURYD2FH3FUOQ","2022-05-19T01:31:25.801Z","same_different-task_switching-phon_sim-rhyme","","1832.5","same_different","[""<img src=\""square.png\"" width=\""100\"" height=\""100\"" style=\""position: fixed;left:39%;top:47%\""><img src=\""square.png\"" width=\""100\"" height=\""100\"" style=\""position: fixed;left:54%;top:47%\""><img src=\""square.png\"" width=\""100\"" height=\""100\"" style=\""position: fixed;left:46.5%;top:32%\""><img src=\""square.png\"" width=\""100\"" height=\""100\"" style=\""position: fixed;left:46.5%;top:61%\""><div style=\""font-size:60px; text-align: center;margin-top:35.2%\"">+</div><div id=\""first\"" style=\""position: fixed;visibility: hidden;left:40%;top:48%\""><img src=\""same_diff_imgs/C14.gif\""></div><div id=\""delayed\"" style=\""position: fixed;visibility: hidden;left:48%;top:34%\""><img src=\""same_diff_imgs/D09.gif\""></div>""]","arrowdown","categorical_image","same_diff_imgs/C14.gif","same_diff_imgs/D09.gif","no","different","","true","1","","","","","","","","","","","","","","","","","","","","",""
"","","","","","html-keyboard-response","59","241500","0.0-5.0-2.13","AURYD2FH3FUOQ","2022-05-19T01:31:25.801Z","same_different-task_switching-phon_sim-rhyme","","null",""," ","null","","","","","","","","","","","","","","","","","","","","","","","","","","","","",""
"","","","","","html-keyboard-response","60","241803","0.0-5.0-3.13","AURYD2FH3FUOQ","2022-05-19T01:31:25.801Z","same_different-task_switching-phon_sim-rhyme","","null","same_different"," ","null","","","","","","","","","","","","","","","","","","","","","","","","","","","","",""
"","","","","","html-keyboard-response","61","242556","0.0-5.0-0.14","AURYD2FH3FUOQ","2022-05-19T01:31:25.801Z","same_different-task_switching-phon_sim-rhyme","","null","same_different","<div style=""font-size:60px"">+</div>","null","","","","","","","","","","","","","","","","","","","","","","","","","","","","",""
"","","","","","html-keyboard-response","62","244900","0.0-5.0-1.14","AURYD2FH3FUOQ","2022-05-19T01:31:25.801Z","same_different-task_switching-phon_sim-rhyme","","2336.5999999996275","same_different","[""<img src=\""square.png\"" width=\""100\"" height=\""100\"" style=\""position: fixed;left:39%;top:47%\""><img src=\""square.png\"" width=\""100\"" height=\""100\"" style=\""position: fixed;left:54%;top:47%\""><img src=\""square.png\"" width=\""100\"" height=\""100\"" style=\""position: fixed;left:46.5%;top:32%\""><img src=\""square.png\"" width=\""100\"" height=\""100\"" style=\""position: fixed;left:46.5%;top:61%\""><div style=\""font-size:60px; text-align: center;margin-top:35.2%\"">+</div><div id=\""first\"" style=\""position: fixed;visibility: hidden;left:55%;top:49%\""><img src=\""same_diff_imgs/D09.gif\""></div><div id=\""delayed\"" style=\""position: fixed;visibility: hidden;left:48%;top:34%\""><img src=\""same_diff_imgs/C09.gif\""></div>""]","arrowdown","categorical_image","same_diff_imgs/D09.gif","same_diff_imgs/C09.gif","no","different","","true","1","","","","","","","","","","","","","","","","","","","","",""
"","","","","","html-keyboard-response","63","244902","0.0-5.0-2.14","AURYD2FH3FUOQ","2022-05-19T01:31:25.801Z","same_different-task_switching-phon_sim-rhyme","","null",""," ","null","","","","","","","","","","","","","","","","","","","","","","","","","","","","",""
"","","","","","html-keyboard-response","64","245209","0.0-5.0-3.14","AURYD2FH3FUOQ","2022-05-19T01:31:25.801Z","same_different-task_switching-phon_sim-rhyme","","null","same_different"," ","null","","","","","","","","","","","","","","","","","","","","","","","","","","","","",""
"","","","","","html-keyboard-response","65","245960","0.0-5.0-0.15","AURYD2FH3FUOQ","2022-05-19T01:31:25.801Z","same_different-task_switching-phon_sim-rhyme","","null","same_different","<div style=""font-size:60px"">+</div>","null","","","","","","","","","","","","","","","","","","","","","","","","","","","","",""
"","","","","","html-keyboard-response","66","247852","0.0-5.0-1.15","AURYD2FH3FUOQ","2022-05-19T01:31:25.801Z","same_different-task_switching-phon_sim-rhyme","","1889","same_different","[""<img src=\""square.png\"" width=\""100\"" height=\""100\"" style=\""position: fixed;left:39%;top:47%\""><img src=\""square.png\"" width=\""100\"" height=\""100\"" style=\""position: fixed;left:54%;top:47%\""><img src=\""square.png\"" width=\""100\"" height=\""100\"" style=\""position: fixed;left:46.5%;top:32%\""><img src=\""square.png\"" width=\""100\"" height=\""100\"" style=\""position: fixed;left:46.5%;top:61%\""><div style=\""font-size:60px; text-align: center;margin-top:35.2%\"">+</div><div id=\""first\"" style=\""position: fixed;visibility: hidden;left:48%;top:34%\""><img src=\""same_diff_imgs/D09.gif\""></div><div id=\""delayed\"" style=\""position: fixed;visibility: hidden;left:55%;top:49%\""><img src=\""same_diff_imgs/D11.gif\""></div>""]","arrowup","categorical_image","same_diff_imgs/D09.gif","same_diff_imgs/D11.gif","no","same","1","true","","","","","","","","","","","","","","","","","","","","","",""
"","","","","","html-keyboard-response","67","247856","0.0-5.0-2.15","AURYD2FH3FUOQ","2022-05-19T01:31:25.801Z","same_different-task_switching-phon_sim-rhyme","","null",""," ","null","","","","","","","","","","","","","","","","","","","","","","","","","","","","",""
"","","","","","html-keyboard-response","68","248190","0.0-5.0-3.15","AURYD2FH3FUOQ","2022-05-19T01:31:25.801Z","same_different-task_switching-phon_sim-rhyme","","null","same_different"," ","null","","","","","","","","","","","","","","","","","","","","","","","","","","","","",""
"","","","","","html-keyboard-response","69","248952","0.0-5.0-0.16","AURYD2FH3FUOQ","2022-05-19T01:31:25.801Z","same_different-task_switching-phon_sim-rhyme","","null","same_different","<div style=""font-size:60px"">+</div>","null","","","","","","","","","","","","","","","","","","","","","","","","","","","","",""
"","","","","","html-keyboard-response","70","250787","0.0-5.0-1.16","AURYD2FH3FUOQ","2022-05-19T01:31:25.801Z","same_different-task_switching-phon_sim-rhyme","","1833.7000000011176","same_different","[""<img src=\""square.png\"" width=\""100\"" height=\""100\"" style=\""position: fixed;left:39%;top:47%\""><img src=\""square.png\"" width=\""100\"" height=\""100\"" style=\""position: fixed;left:54%;top:47%\""><img src=\""square.png\"" width=\""100\"" height=\""100\"" style=\""position: fixed;left:46.5%;top:32%\""><img src=\""square.png\"" width=\""100\"" height=\""100\"" style=\""position: fixed;left:46.5%;top:61%\""><div style=\""font-size:60px; text-align: center;margin-top:35.2%\"">+</div><div id=\""first\"" style=\""position: fixed;visibility: hidden;left:48%;top:34%\""><img src=\""same_diff_imgs/D11.gif\""></div><div id=\""delayed\"" style=\""position: fixed;visibility: hidden;left:48%;top:62%\""><img src=\""same_diff_imgs/D07.gif\""></div>""]","arrowup","categorical_image","same_diff_imgs/D11.gif","same_diff_imgs/D07.gif","no","same","1","true","","","","","","","","","","","","","","","","","","","","","",""
"","","","","","html-keyboard-response","71","250795","0.0-5.0-2.16","AURYD2FH3FUOQ","2022-05-19T01:31:25.801Z","same_different-task_switching-phon_sim-rhyme","","null",""," ","null","","","","","","","","","","","","","","","","","","","","","","","","","","","","",""
"","","","","","html-keyboard-response","72","251129","0.0-5.0-3.16","AURYD2FH3FUOQ","2022-05-19T01:31:25.801Z","same_different-task_switching-phon_sim-rhyme","","null","same_different"," ","null","","","","","","","","","","","","","","","","","","","","","","","","","","","","",""
"","","","","","html-keyboard-response","73","251886","0.0-5.0-0.17","AURYD2FH3FUOQ","2022-05-19T01:31:25.801Z","same_different-task_switching-phon_sim-rhyme","","null","same_different","<div style=""font-size:60px"">+</div>","null","","","","","","","","","","","","","","","","","","","","","","","","","","","","",""
"","","","","","html-keyboard-response","74","255291","0.0-5.0-1.17","AURYD2FH3FUOQ","2022-05-19T01:31:25.801Z","same_different-task_switching-phon_sim-rhyme","","3402.4000000003725","same_different","[""<img src=\""square.png\"" width=\""100\"" height=\""100\"" style=\""position: fixed;left:39%;top:47%\""><img src=\""square.png\"" width=\""100\"" height=\""100\"" style=\""position: fixed;left:54%;top:47%\""><img src=\""square.png\"" width=\""100\"" height=\""100\"" style=\""position: fixed;left:46.5%;top:32%\""><img src=\""square.png\"" width=\""100\"" height=\""100\"" style=\""position: fixed;left:46.5%;top:61%\""><div style=\""font-size:60px;text-align: center;margin-top:35.2%\"">+</div><div id=\""first\"" style=\""position: fixed;visibility: hidden;left:55%;top:49%\""><img src=\""same_diff_imgs/C04.gif\"" style=\""-webkit-transform: scaleX(-1);transform: scaleX(-1);\""></div><div id=\""delayed\"" style=\""position: fixed;visibility: hidden;left:48%;top:34%\""><img src=\""same_diff_imgs/D09.gif\"" style=\""-webkit-transform: scaleX(-1);transform: scaleX(-1);\""></div>""]","arrowdown","categorical_image","same_diff_imgs/C04.gif","same_diff_imgs/D09.gif","yes","different","","true","1","","","","","","","","","","","","","","","","","","","","",""
"","","","","","html-keyboard-response","75","255297","0.0-5.0-2.17","AURYD2FH3FUOQ","2022-05-19T01:31:25.801Z","same_different-task_switching-phon_sim-rhyme","","null",""," ","null","","","","","","","","","","","","","","","","","","","","","","","","","","","","",""
"","","","","","html-keyboard-response","76","255599","0.0-5.0-3.17","AURYD2FH3FUOQ","2022-05-19T01:31:25.801Z","same_different-task_switching-phon_sim-rhyme","","null","same_different"," ","null","","","","","","","","","","","","","","","","","","","","","","","","","","","","",""
"","","","","","html-keyboard-response","77","256350","0.0-5.0-0.18","AURYD2FH3FUOQ","2022-05-19T01:31:25.801Z","same_different-task_switching-phon_sim-rhyme","","null","same_different","<div style=""font-size:60px"">+</div>","null","","","","","","","","","","","","","","","","","","","","","","","","","","","","",""
"","","","","","html-keyboard-response","78","258874","0.0-5.0-1.18","AURYD2FH3FUOQ","2022-05-19T01:31:25.801Z","same_different-task_switching-phon_sim-rhyme","","2508","same_different","[""<img src=\""square.png\"" width=\""100\"" height=\""100\"" style=\""position: fixed;left:39%;top:47%\""><img src=\""square.png\"" width=\""100\"" height=\""100\"" style=\""position: fixed;left:54%;top:47%\""><img src=\""square.png\"" width=\""100\"" height=\""100\"" style=\""position: fixed;left:46.5%;top:32%\""><img src=\""square.png\"" width=\""100\"" height=\""100\"" style=\""position: fixed;left:46.5%;top:61%\""><div style=\""font-size:60px; text-align: center;margin-top:35.2%\"">+</div><div id=\""first\"" style=\""position: fixed;visibility: hidden;left:40%;top:48%\""><img src=\""same_diff_imgs/D07.gif\""></div><div id=\""delayed\"" style=\""position: fixed;visibility: hidden;left:55%;top:49%\""><img src=\""same_diff_imgs/C14.gif\""></div>""]","arrowdown","categorical_image","same_diff_imgs/D07.gif","same_diff_imgs/C14.gif","no","different","","true","1","","","","","","","","","","","","","","","","","","","","",""
"","","","","","html-keyboard-response","79","258881","0.0-5.0-2.18","AURYD2FH3FUOQ","2022-05-19T01:31:25.801Z","same_different-task_switching-phon_sim-rhyme","","null",""," ","null","","","","","","","","","","","","","","","","","","","","","","","","","","","","",""
"","","","","","html-keyboard-response","80","259207","0.0-5.0-3.18","AURYD2FH3FUOQ","2022-05-19T01:31:25.801Z","same_different-task_switching-phon_sim-rhyme","","null","same_different"," ","null","","","","","","","","","","","","","","","","","","","","","","","","","","","","",""
"","","","","","html-keyboard-response","81","259958","0.0-5.0-0.19","AURYD2FH3FUOQ","2022-05-19T01:31:25.801Z","same_different-task_switching-phon_sim-rhyme","","null","same_different","<div style=""font-size:60px"">+</div>","null","","","","","","","","","","","","","","","","","","","","","","","","","","","","",""
"","","","","","html-keyboard-response","82","262667","0.0-5.0-1.19","AURYD2FH3FUOQ","2022-05-19T01:31:25.801Z","same_different-task_switching-phon_sim-rhyme","","2703.4000000003725","same_different","[""<img src=\""square.png\"" width=\""100\"" height=\""100\"" style=\""position: fixed;left:39%;top:47%\""><img src=\""square.png\"" width=\""100\"" height=\""100\"" style=\""position: fixed;left:54%;top:47%\""><img src=\""square.png\"" width=\""100\"" height=\""100\"" style=\""position: fixed;left:46.5%;top:32%\""><img src=\""square.png\"" width=\""100\"" height=\""100\"" style=\""position: fixed;left:46.5%;top:61%\""><div style=\""font-size:60px;text-align: center;margin-top:35.2%\"">+</div><div id=\""first\"" style=\""position: fixed;visibility: hidden;left:48%;top:34%\""><img src=\""same_diff_imgs/D11.gif\"" style=\""-webkit-transform: scaleX(-1);transform: scaleX(-1);\""></div><div id=\""delayed\"" style=\""position: fixed;visibility: hidden;left:40%;top:48%\""><img src=\""same_diff_imgs/D07.gif\"" style=\""-webkit-transform: scaleX(-1);transform: scaleX(-1);\""></div>""]","arrowup","categorical_image","same_diff_imgs/D11.gif","same_diff_imgs/D07.gif","yes","same","1","true","","","","","","","","","","","","","","","","","","","","","",""
"","","","","","html-keyboard-response","83","262670","0.0-5.0-2.19","AURYD2FH3FUOQ","2022-05-19T01:31:25.801Z","same_different-task_switching-phon_sim-rhyme","","null",""," ","null","","","","","","","","","","","","","","","","","","","","","","","","","","","","",""
"","","","","","html-keyboard-response","84","262971","0.0-5.0-3.19","AURYD2FH3FUOQ","2022-05-19T01:31:25.801Z","same_different-task_switching-phon_sim-rhyme","","null","same_different"," ","null","","","","","","","","","","","","","","","","","","","","","","","","","","","","",""
"","","","","","html-keyboard-response","85","263723","0.0-5.0-0.20","AURYD2FH3FUOQ","2022-05-19T01:31:25.801Z","same_different-task_switching-phon_sim-rhyme","","null","same_different","<div style=""font-size:60px"">+</div>","null","","","","","","","","","","","","","","","","","","","","","","","","","","","","",""
"","","","","","html-keyboard-response","86","265689","0.0-5.0-1.20","AURYD2FH3FUOQ","2022-05-19T01:31:25.801Z","same_different-task_switching-phon_sim-rhyme","","1962.300000000745","same_different","[""<img src=\""square.png\"" width=\""100\"" height=\""100\"" style=\""position: fixed;left:39%;top:47%\""><img src=\""square.png\"" width=\""100\"" height=\""100\"" style=\""position: fixed;left:54%;top:47%\""><img src=\""square.png\"" width=\""100\"" height=\""100\"" style=\""position: fixed;left:46.5%;top:32%\""><img src=\""square.png\"" width=\""100\"" height=\""100\"" style=\""position: fixed;left:46.5%;top:61%\""><div style=\""font-size:60px;text-align: center;margin-top:35.2%\"">+</div><div id=\""first\"" style=\""position: fixed;visibility: hidden;left:48%;top:34%\""><img src=\""same_diff_imgs/C04.gif\"" style=\""-webkit-transform: scaleX(-1);transform: scaleX(-1);\""></div><div id=\""delayed\"" style=\""position: fixed;visibility: hidden;left:48%;top:62%\""><img src=\""same_diff_imgs/C09.gif\"" style=\""-webkit-transform: scaleX(-1);transform: scaleX(-1);\""></div>""]","arrowup","categorical_image","same_diff_imgs/C04.gif","same_diff_imgs/C09.gif","yes","same","1","true","","","","","","","","","","","","","","","","","","","","","",""
"","","","","","html-keyboard-response","87","265694","0.0-5.0-2.20","AURYD2FH3FUOQ","2022-05-19T01:31:25.801Z","same_different-task_switching-phon_sim-rhyme","","null",""," ","null","","","","","","","","","","","","","","","","","","","","","","","","","","","","",""
"","","","","","html-keyboard-response","88","265995","0.0-5.0-3.20","AURYD2FH3FUOQ","2022-05-19T01:31:25.801Z","same_different-task_switching-phon_sim-rhyme","","null","same_different"," ","null","","","","","","","","","","","","","","","","","","","","","","","","","","","","",""
"","","","","","html-keyboard-response","89","266747","0.0-5.0-0.21","AURYD2FH3FUOQ","2022-05-19T01:31:25.801Z","same_different-task_switching-phon_sim-rhyme","","null","same_different","<div style=""font-size:60px"">+</div>","null","","","","","","","","","","","","","","","","","","","","","","","","","","","","",""
"","","","","","html-keyboard-response","90","268491","0.0-5.0-1.21","AURYD2FH3FUOQ","2022-05-19T01:31:25.801Z","same_different-task_switching-phon_sim-rhyme","","1736.9000000003725","same_different","[""<img src=\""square.png\"" width=\""100\"" height=\""100\"" style=\""position: fixed;left:39%;top:47%\""><img src=\""square.png\"" width=\""100\"" height=\""100\"" style=\""position: fixed;left:54%;top:47%\""><img src=\""square.png\"" width=\""100\"" height=\""100\"" style=\""position: fixed;left:46.5%;top:32%\""><img src=\""square.png\"" width=\""100\"" height=\""100\"" style=\""position: fixed;left:46.5%;top:61%\""><div style=\""font-size:60px;text-align: center;margin-top:35.2%\"">+</div><div id=\""first\"" style=\""position: fixed;visibility: hidden;left:48%;top:34%\""><img src=\""same_diff_imgs/D11.gif\"" style=\""-webkit-transform: scaleX(-1);transform: scaleX(-1);\""></div><div id=\""delayed\"" style=\""position: fixed;visibility: hidden;left:48%;top:62%\""><img src=\""same_diff_imgs/D09.gif\"" style=\""-webkit-transform: scaleX(-1);transform: scaleX(-1);\""></div>""]","arrowup","categorical_image","same_diff_imgs/D11.gif","same_diff_imgs/D09.gif","yes","same","1","true","","","","","","","","","","","","","","","","","","","","","",""
"","","","","","html-keyboard-response","91","268494","0.0-5.0-2.21","AURYD2FH3FUOQ","2022-05-19T01:31:25.801Z","same_different-task_switching-phon_sim-rhyme","","null",""," ","null","","","","","","","","","","","","","","","","","","","","","","","","","","","","",""
"","","","","","html-keyboard-response","92","268796","0.0-5.0-3.21","AURYD2FH3FUOQ","2022-05-19T01:31:25.801Z","same_different-task_switching-phon_sim-rhyme","","null","same_different"," ","null","","","","","","","","","","","","","","","","","","","","","","","","","","","","",""
"","","","","","html-keyboard-response","93","269549","0.0-5.0-0.22","AURYD2FH3FUOQ","2022-05-19T01:31:25.801Z","same_different-task_switching-phon_sim-rhyme","","null","same_different","<div style=""font-size:60px"">+</div>","null","","","","","","","","","","","","","","","","","","","","","","","","","","","","",""
"","","","","","html-keyboard-response","94","271634","0.0-5.0-1.22","AURYD2FH3FUOQ","2022-05-19T01:31:25.801Z","same_different-task_switching-phon_sim-rhyme","","2080.7000000011176","same_different","[""<img src=\""square.png\"" width=\""100\"" height=\""100\"" style=\""position: fixed;left:39%;top:47%\""><img src=\""square.png\"" width=\""100\"" height=\""100\"" style=\""position: fixed;left:54%;top:47%\""><img src=\""square.png\"" width=\""100\"" height=\""100\"" style=\""position: fixed;left:46.5%;top:32%\""><img src=\""square.png\"" width=\""100\"" height=\""100\"" style=\""position: fixed;left:46.5%;top:61%\""><div style=\""font-size:60px; text-align: center;margin-top:35.2%\"">+</div><div id=\""first\"" style=\""position: fixed;visibility: hidden;left:55%;top:49%\""><img src=\""same_diff_imgs/C09.gif\""></div><div id=\""delayed\"" style=\""position: fixed;visibility: hidden;left:40%;top:48%\""><img src=\""same_diff_imgs/C14.gif\""></div>""]","arrowup","categorical_image","same_diff_imgs/C09.gif","same_diff_imgs/C14.gif","no","same","1","true","","","","","","","","","","","","","","","","","","","","","",""
"","","","","","html-keyboard-response","95","271638","0.0-5.0-2.22","AURYD2FH3FUOQ","2022-05-19T01:31:25.801Z","same_different-task_switching-phon_sim-rhyme","","null",""," ","null","","","","","","","","","","","","","","","","","","","","","","","","","","","","",""
"","","","","","html-keyboard-response","96","271939","0.0-5.0-3.22","AURYD2FH3FUOQ","2022-05-19T01:31:25.801Z","same_different-task_switching-phon_sim-rhyme","","null","same_different"," ","null","","","","","","","","","","","","","","","","","","","","","","","","","","","","",""
"","","","","","html-keyboard-response","97","272691","0.0-5.0-0.23","AURYD2FH3FUOQ","2022-05-19T01:31:25.801Z","same_different-task_switching-phon_sim-rhyme","","null","same_different","<div style=""font-size:60px"">+</div>","null","","","","","","","","","","","","","","","","","","","","","","","","","","","","",""
"","","","","","html-keyboard-response","98","274444","0.0-5.0-1.23","AURYD2FH3FUOQ","2022-05-19T01:31:25.801Z","same_different-task_switching-phon_sim-rhyme","","1751.5","same_different","[""<img src=\""square.png\"" width=\""100\"" height=\""100\"" style=\""position: fixed;left:39%;top:47%\""><img src=\""square.png\"" width=\""100\"" height=\""100\"" style=\""position: fixed;left:54%;top:47%\""><img src=\""square.png\"" width=\""100\"" height=\""100\"" style=\""position: fixed;left:46.5%;top:32%\""><img src=\""square.png\"" width=\""100\"" height=\""100\"" style=\""position: fixed;left:46.5%;top:61%\""><div style=\""font-size:60px; text-align: center;margin-top:35.2%\"">+</div><div id=\""first\"" style=\""position: fixed;visibility: hidden;left:48%;top:62%\""><img src=\""same_diff_imgs/C14.gif\""></div><div id=\""delayed\"" style=\""position: fixed;visibility: hidden;left:48%;top:34%\""><img src=\""same_diff_imgs/D07.gif\""></div>""]","arrowdown","categorical_image","same_diff_imgs/C14.gif","same_diff_imgs/D07.gif","no","different","","true","1","","","","","","","","","","","","","","","","","","","","",""
"","","","","","html-keyboard-response","99","274448","0.0-5.0-2.23","AURYD2FH3FUOQ","2022-05-19T01:31:25.801Z","same_different-task_switching-phon_sim-rhyme","","null",""," ","null","","","","","","","","","","","","","","","","","","","","","","","","","","","","",""
"","","","","","html-keyboard-response","100","274750","0.0-5.0-3.23","AURYD2FH3FUOQ","2022-05-19T01:31:25.801Z","same_different-task_switching-phon_sim-rhyme","","null","same_different"," ","null","","","","","","","","","","","","","","","","","","","","","","","","","","","","",""
"","","","","","html-keyboard-response","101","275502","0.0-5.0-0.24","AURYD2FH3FUOQ","2022-05-19T01:31:25.801Z","same_different-task_switching-phon_sim-rhyme","","null","same_different","<div style=""font-size:60px"">+</div>","null","","","","","","","","","","","","","","","","","","","","","","","","","","","","",""
"","","","","","html-keyboard-response","102","277662","0.0-5.0-1.24","AURYD2FH3FUOQ","2022-05-19T01:31:25.801Z","same_different-task_switching-phon_sim-rhyme","","2156.5999999996275","same_different","[""<img src=\""square.png\"" width=\""100\"" height=\""100\"" style=\""position: fixed;left:39%;top:47%\""><img src=\""square.png\"" width=\""100\"" height=\""100\"" style=\""position: fixed;left:54%;top:47%\""><img src=\""square.png\"" width=\""100\"" height=\""100\"" style=\""position: fixed;left:46.5%;top:32%\""><img src=\""square.png\"" width=\""100\"" height=\""100\"" style=\""position: fixed;left:46.5%;top:61%\""><div style=\""font-size:60px; text-align: center;margin-top:35.2%\"">+</div><div id=\""first\"" style=\""position: fixed;visibility: hidden;left:55%;top:49%\""><img src=\""same_diff_imgs/C04.gif\""></div><div id=\""delayed\"" style=\""position: fixed;visibility: hidden;left:48%;top:34%\""><img src=\""same_diff_imgs/D11.gif\""></div>""]","arrowdown","categorical_image","same_diff_imgs/C04.gif","same_diff_imgs/D11.gif","no","different","","true","1","","","","","","","","","","","","","","","","","","","","",""
"","","","","","html-keyboard-response","103","277667","0.0-5.0-2.24","AURYD2FH3FUOQ","2022-05-19T01:31:25.801Z","same_different-task_switching-phon_sim-rhyme","","null",""," ","null","","","","","","","","","","","","","","","","","","","","","","","","","","","","",""
"","","","","","html-keyboard-response","104","277969","0.0-5.0-3.24","AURYD2FH3FUOQ","2022-05-19T01:31:25.801Z","same_different-task_switching-phon_sim-rhyme","","null","same_different"," ","null","","","","","","","","","","","","","","","","","","","","","","","","","","","","",""
"","","","","","html-keyboard-response","105","278721","0.0-5.0-0.25","AURYD2FH3FUOQ","2022-05-19T01:31:25.801Z","same_different-task_switching-phon_sim-rhyme","","null","same_different","<div style=""font-size:60px"">+</div>","null","","","","","","","","","","","","","","","","","","","","","","","","","","","","",""
"","","","","","html-keyboard-response","106","280642","0.0-5.0-1.25","AURYD2FH3FUOQ","2022-05-19T01:31:25.801Z","same_different-task_switching-phon_sim-rhyme","","1914.4000000003725","same_different","[""<img src=\""square.png\"" width=\""100\"" height=\""100\"" style=\""position: fixed;left:39%;top:47%\""><img src=\""square.png\"" width=\""100\"" height=\""100\"" style=\""position: fixed;left:54%;top:47%\""><img src=\""square.png\"" width=\""100\"" height=\""100\"" style=\""position: fixed;left:46.5%;top:32%\""><img src=\""square.png\"" width=\""100\"" height=\""100\"" style=\""position: fixed;left:46.5%;top:61%\""><div style=\""font-size:60px; text-align: center;margin-top:35.2%\"">+</div><div id=\""first\"" style=\""position: fixed;visibility: hidden;left:48%;top:34%\""><img src=\""same_diff_imgs/D07.gif\""></div><div id=\""delayed\"" style=\""position: fixed;visibility: hidden;left:40%;top:48%\""><img src=\""same_diff_imgs/C04.gif\""></div>""]","arrowdown","categorical_image","same_diff_imgs/D07.gif","same_diff_imgs/C04.gif","no","different","","true","1","","","","","","","","","","","","","","","","","","","","",""
"","","","","","html-keyboard-response","107","280644","0.0-5.0-2.25","AURYD2FH3FUOQ","2022-05-19T01:31:25.801Z","same_different-task_switching-phon_sim-rhyme","","null",""," ","null","","","","","","","","","","","","","","","","","","","","","","","","","","","","",""
"","","","","","html-keyboard-response","108","280952","0.0-5.0-3.25","AURYD2FH3FUOQ","2022-05-19T01:31:25.801Z","same_different-task_switching-phon_sim-rhyme","","null","same_different"," ","null","","","","","","","","","","","","","","","","","","","","","","","","","","","","",""
"","","","","","html-keyboard-response","109","281707","0.0-5.0-0.26","AURYD2FH3FUOQ","2022-05-19T01:31:25.801Z","same_different-task_switching-phon_sim-rhyme","","null","same_different","<div style=""font-size:60px"">+</div>","null","","","","","","","","","","","","","","","","","","","","","","","","","","","","",""
"","","","","","html-keyboard-response","110","283667","0.0-5.0-1.26","AURYD2FH3FUOQ","2022-05-19T01:31:25.801Z","same_different-task_switching-phon_sim-rhyme","","1956.5999999996275","same_different","[""<img src=\""square.png\"" width=\""100\"" height=\""100\"" style=\""position: fixed;left:39%;top:47%\""><img src=\""square.png\"" width=\""100\"" height=\""100\"" style=\""position: fixed;left:54%;top:47%\""><img src=\""square.png\"" width=\""100\"" height=\""100\"" style=\""position: fixed;left:46.5%;top:32%\""><img src=\""square.png\"" width=\""100\"" height=\""100\"" style=\""position: fixed;left:46.5%;top:61%\""><div style=\""font-size:60px;text-align: center;margin-top:35.2%\"">+</div><div id=\""first\"" style=\""position: fixed;visibility: hidden;left:48%;top:34%\""><img src=\""same_diff_imgs/C09.gif\"" style=\""-webkit-transform: scaleX(-1);transform: scaleX(-1);\""></div><div id=\""delayed\"" style=\""position: fixed;visibility: hidden;left:40%;top:48%\""><img src=\""same_diff_imgs/D09.gif\"" style=\""-webkit-transform: scaleX(-1);transform: scaleX(-1);\""></div>""]","arrowdown","categorical_image","same_diff_imgs/C09.gif","same_diff_imgs/D09.gif","yes","different","","true","1","","","","","","","","","","","","","","","","","","","","",""
"","","","","","html-keyboard-response","111","283669","0.0-5.0-2.26","AURYD2FH3FUOQ","2022-05-19T01:31:25.801Z","same_different-task_switching-phon_sim-rhyme","","null",""," ","null","","","","","","","","","","","","","","","","","","","","","","","","","","","","",""
"","","","","","html-keyboard-response","112","283970","0.0-5.0-3.26","AURYD2FH3FUOQ","2022-05-19T01:31:25.801Z","same_different-task_switching-phon_sim-rhyme","","null","same_different"," ","null","","","","","","","","","","","","","","","","","","","","","","","","","","","","",""
"","","","","","html-keyboard-response","113","284723","0.0-5.0-0.27","AURYD2FH3FUOQ","2022-05-19T01:31:25.801Z","same_different-task_switching-phon_sim-rhyme","","null","same_different","<div style=""font-size:60px"">+</div>","null","","","","","","","","","","","","","","","","","","","","","","","","","","","","",""
"","","","","","html-keyboard-response","114","286955","0.0-5.0-1.27","AURYD2FH3FUOQ","2022-05-19T01:31:25.801Z","same_different-task_switching-phon_sim-rhyme","","2226","same_different","[""<img src=\""square.png\"" width=\""100\"" height=\""100\"" style=\""position: fixed;left:39%;top:47%\""><img src=\""square.png\"" width=\""100\"" height=\""100\"" style=\""position: fixed;left:54%;top:47%\""><img src=\""square.png\"" width=\""100\"" height=\""100\"" style=\""position: fixed;left:46.5%;top:32%\""><img src=\""square.png\"" width=\""100\"" height=\""100\"" style=\""position: fixed;left:46.5%;top:61%\""><div style=\""font-size:60px; text-align: center;margin-top:35.2%\"">+</div><div id=\""first\"" style=\""position: fixed;visibility: hidden;left:55%;top:49%\""><img src=\""same_diff_imgs/C04.gif\""></div><div id=\""delayed\"" style=\""position: fixed;visibility: hidden;left:48%;top:62%\""><img src=\""same_diff_imgs/C04.gif\""></div>""]","arrowup","categorical_image","same_diff_imgs/C04.gif","same_diff_imgs/C04.gif","no","same","1","true","","","","","","","","","","","","","","","","","","","","","",""
"","","","","","html-keyboard-response","115","286957","0.0-5.0-2.27","AURYD2FH3FUOQ","2022-05-19T01:31:25.801Z","same_different-task_switching-phon_sim-rhyme","","null",""," ","null","","","","","","","","","","","","","","","","","","","","","","","","","","","","",""
"","","","","","html-keyboard-response","116","287258","0.0-5.0-3.27","AURYD2FH3FUOQ","2022-05-19T01:31:25.801Z","same_different-task_switching-phon_sim-rhyme","","null","same_different"," ","null","","","","","","","","","","","","","","","","","","","","","","","","","","","","",""
"","","","","","html-keyboard-response","117","288010","0.0-5.0-0.28","AURYD2FH3FUOQ","2022-05-19T01:31:25.801Z","same_different-task_switching-phon_sim-rhyme","","null","same_different","<div style=""font-size:60px"">+</div>","null","","","","","","","","","","","","","","","","","","","","","","","","","","","","",""
"","","","","","html-keyboard-response","118","289725","0.0-5.0-1.28","AURYD2FH3FUOQ","2022-05-19T01:31:25.801Z","same_different-task_switching-phon_sim-rhyme","","1708.0999999996275","same_different","[""<img src=\""square.png\"" width=\""100\"" height=\""100\"" style=\""position: fixed;left:39%;top:47%\""><img src=\""square.png\"" width=\""100\"" height=\""100\"" style=\""position: fixed;left:54%;top:47%\""><img src=\""square.png\"" width=\""100\"" height=\""100\"" style=\""position: fixed;left:46.5%;top:32%\""><img src=\""square.png\"" width=\""100\"" height=\""100\"" style=\""position: fixed;left:46.5%;top:61%\""><div style=\""font-size:60px;text-align: center;margin-top:35.2%\"">+</div><div id=\""first\"" style=\""position: fixed;visibility: hidden;left:48%;top:62%\""><img src=\""same_diff_imgs/C04.gif\"" style=\""-webkit-transform: scaleX(-1);transform: scaleX(-1);\""></div><div id=\""delayed\"" style=\""position: fixed;visibility: hidden;left:40%;top:48%\""><img src=\""same_diff_imgs/D07.gif\"" style=\""-webkit-transform: scaleX(-1);transform: scaleX(-1);\""></div>""]","arrowdown","categorical_image","same_diff_imgs/C04.gif","same_diff_imgs/D07.gif","yes","different","","true","1","","","","","","","","","","","","","","","","","","","","",""
"","","","","","html-keyboard-response","119","289735","0.0-5.0-2.28","AURYD2FH3FUOQ","2022-05-19T01:31:25.801Z","same_different-task_switching-phon_sim-rhyme","","null",""," ","null","","","","","","","","","","","","","","","","","","","","","","","","","","","","",""
"","","","","","html-keyboard-response","120","290037","0.0-5.0-3.28","AURYD2FH3FUOQ","2022-05-19T01:31:25.801Z","same_different-task_switching-phon_sim-rhyme","","null","same_different"," ","null","","","","","","","","","","","","","","","","","","","","","","","","","","","","",""
"","","","","","html-keyboard-response","121","290789","0.0-5.0-0.29","AURYD2FH3FUOQ","2022-05-19T01:31:25.801Z","same_different-task_switching-phon_sim-rhyme","","null","same_different","<div style=""font-size:60px"">+</div>","null","","","","","","","","","","","","","","","","","","","","","","","","","","","","",""
"","","","","","html-keyboard-response","122","292645","0.0-5.0-1.29","AURYD2FH3FUOQ","2022-05-19T01:31:25.801Z","same_different-task_switching-phon_sim-rhyme","","1851.5999999996275","same_different","[""<img src=\""square.png\"" width=\""100\"" height=\""100\"" style=\""position: fixed;left:39%;top:47%\""><img src=\""square.png\"" width=\""100\"" height=\""100\"" style=\""position: fixed;left:54%;top:47%\""><img src=\""square.png\"" width=\""100\"" height=\""100\"" style=\""position: fixed;left:46.5%;top:32%\""><img src=\""square.png\"" width=\""100\"" height=\""100\"" style=\""position: fixed;left:46.5%;top:61%\""><div style=\""font-size:60px;text-align: center;margin-top:35.2%\"">+</div><div id=\""first\"" style=\""position: fixed;visibility: hidden;left:48%;top:62%\""><img src=\""same_diff_imgs/C14.gif\"" style=\""-webkit-transform: scaleX(-1);transform: scaleX(-1);\""></div><div id=\""delayed\"" style=\""position: fixed;visibility: hidden;left:48%;top:34%\""><img src=\""same_diff_imgs/D09.gif\"" style=\""-webkit-transform: scaleX(-1);transform: scaleX(-1);\""></div>""]","arrowdown","categorical_image","same_diff_imgs/C14.gif","same_diff_imgs/D09.gif","yes","different","","true","1","","","","","","","","","","","","","","","","","","","","",""
"","","","","","html-keyboard-response","123","292649","0.0-5.0-2.29","AURYD2FH3FUOQ","2022-05-19T01:31:25.801Z","same_different-task_switching-phon_sim-rhyme","","null",""," ","null","","","","","","","","","","","","","","","","","","","","","","","","","","","","",""
"","","","","","html-keyboard-response","124","292952","0.0-5.0-3.29","AURYD2FH3FUOQ","2022-05-19T01:31:25.801Z","same_different-task_switching-phon_sim-rhyme","","null","same_different"," ","null","","","","","","","","","","","","","","","","","","","","","","","","","","","","",""
"","","","","","html-keyboard-response","125","293705","0.0-5.0-0.30","AURYD2FH3FUOQ","2022-05-19T01:31:25.801Z","same_different-task_switching-phon_sim-rhyme","","null","same_different","<div style=""font-size:60px"">+</div>","null","","","","","","","","","","","","","","","","","","","","","","","","","","","","",""
"","","","","","html-keyboard-response","126","295517","0.0-5.0-1.30","AURYD2FH3FUOQ","2022-05-19T01:31:25.801Z","same_different-task_switching-phon_sim-rhyme","","1808.5999999996275","same_different","[""<img src=\""square.png\"" width=\""100\"" height=\""100\"" style=\""position: fixed;left:39%;top:47%\""><img src=\""square.png\"" width=\""100\"" height=\""100\"" style=\""position: fixed;left:54%;top:47%\""><img src=\""square.png\"" width=\""100\"" height=\""100\"" style=\""position: fixed;left:46.5%;top:32%\""><img src=\""square.png\"" width=\""100\"" height=\""100\"" style=\""position: fixed;left:46.5%;top:61%\""><div style=\""font-size:60px; text-align: center;margin-top:35.2%\"">+</div><div id=\""first\"" style=\""position: fixed;visibility: hidden;left:55%;top:49%\""><img src=\""same_diff_imgs/C04.gif\""></div><div id=\""delayed\"" style=\""position: fixed;visibility: hidden;left:40%;top:48%\""><img src=\""same_diff_imgs/D09.gif\""></div>""]","arrowdown","categorical_image","same_diff_imgs/C04.gif","same_diff_imgs/D09.gif","no","different","","true","1","","","","","","","","","","","","","","","","","","","","",""
"","","","","","html-keyboard-response","127","295519","0.0-5.0-2.30","AURYD2FH3FUOQ","2022-05-19T01:31:25.801Z","same_different-task_switching-phon_sim-rhyme","","null",""," ","null","","","","","","","","","","","","","","","","","","","","","","","","","","","","",""
"","","","","","html-keyboard-response","128","295821","0.0-5.0-3.30","AURYD2FH3FUOQ","2022-05-19T01:31:25.801Z","same_different-task_switching-phon_sim-rhyme","","null","same_different"," ","null","","","","","","","","","","","","","","","","","","","","","","","","","","","","",""
"","","","","","html-keyboard-response","129","296573","0.0-5.0-0.31","AURYD2FH3FUOQ","2022-05-19T01:31:25.801Z","same_different-task_switching-phon_sim-rhyme","","null","same_different","<div style=""font-size:60px"">+</div>","null","","","","","","","","","","","","","","","","","","","","","","","","","","","","",""
"","","","","","html-keyboard-response","130","298381","0.0-5.0-1.31","AURYD2FH3FUOQ","2022-05-19T01:31:25.801Z","same_different-task_switching-phon_sim-rhyme","","1802.5","same_different","[""<img src=\""square.png\"" width=\""100\"" height=\""100\"" style=\""position: fixed;left:39%;top:47%\""><img src=\""square.png\"" width=\""100\"" height=\""100\"" style=\""position: fixed;left:54%;top:47%\""><img src=\""square.png\"" width=\""100\"" height=\""100\"" style=\""position: fixed;left:46.5%;top:32%\""><img src=\""square.png\"" width=\""100\"" height=\""100\"" style=\""position: fixed;left:46.5%;top:61%\""><div style=\""font-size:60px;text-align: center;margin-top:35.2%\"">+</div><div id=\""first\"" style=\""position: fixed;visibility: hidden;left:40%;top:48%\""><img src=\""same_diff_imgs/D07.gif\"" style=\""-webkit-transform: scaleX(-1);transform: scaleX(-1);\""></div><div id=\""delayed\"" style=\""position: fixed;visibility: hidden;left:48%;top:34%\""><img src=\""same_diff_imgs/C14.gif\"" style=\""-webkit-transform: scaleX(-1);transform: scaleX(-1);\""></div>""]","arrowdown","categorical_image","same_diff_imgs/D07.gif","same_diff_imgs/C14.gif","yes","different","","true","1","","","","","","","","","","","","","","","","","","","","",""
"","","","","","html-keyboard-response","131","298386","0.0-5.0-2.31","AURYD2FH3FUOQ","2022-05-19T01:31:25.801Z","same_different-task_switching-phon_sim-rhyme","","null",""," ","null","","","","","","","","","","","","","","","","","","","","","","","","","","","","",""
"","","","","","html-keyboard-response","132","298687","0.0-5.0-3.31","AURYD2FH3FUOQ","2022-05-19T01:31:25.801Z","same_different-task_switching-phon_sim-rhyme","","null","same_different"," ","null","","","","","","","","","","","","","","","","","","","","","","","","","","","","",""
"","","","","","html-keyboard-response","133","299439","0.0-5.0-0.32","AURYD2FH3FUOQ","2022-05-19T01:31:25.801Z","same_different-task_switching-phon_sim-rhyme","","null","same_different","<div style=""font-size:60px"">+</div>","null","","","","","","","","","","","","","","","","","","","","","","","","","","","","",""
"","","","","","html-keyboard-response","134","301498","0.0-5.0-1.32","AURYD2FH3FUOQ","2022-05-19T01:31:25.801Z","same_different-task_switching-phon_sim-rhyme","","2057.7999999988824","same_different","[""<img src=\""square.png\"" width=\""100\"" height=\""100\"" style=\""position: fixed;left:39%;top:47%\""><img src=\""square.png\"" width=\""100\"" height=\""100\"" style=\""position: fixed;left:54%;top:47%\""><img src=\""square.png\"" width=\""100\"" height=\""100\"" style=\""position: fixed;left:46.5%;top:32%\""><img src=\""square.png\"" width=\""100\"" height=\""100\"" style=\""position: fixed;left:46.5%;top:61%\""><div style=\""font-size:60px; text-align: center;margin-top:35.2%\"">+</div><div id=\""first\"" style=\""position: fixed;visibility: hidden;left:48%;top:62%\""><img src=\""same_diff_imgs/D07.gif\""></div><div id=\""delayed\"" style=\""position: fixed;visibility: hidden;left:40%;top:48%\""><img src=\""same_diff_imgs/D09.gif\""></div>""]","arrowup","categorical_image","same_diff_imgs/D07.gif","same_diff_imgs/D09.gif","no","same","1","true","","","","","","","","","","","","","","","","","","","","","",""
"","","","","","html-keyboard-response","135","301500","0.0-5.0-2.32","AURYD2FH3FUOQ","2022-05-19T01:31:25.801Z","same_different-task_switching-phon_sim-rhyme","","null",""," ","null","","","","","","","","","","","","","","","","","","","","","","","","","","","","",""
"","","","","","html-keyboard-response","136","301802","0.0-5.0-3.32","AURYD2FH3FUOQ","2022-05-19T01:31:25.801Z","same_different-task_switching-phon_sim-rhyme","","null","same_different"," ","null","","","","","","","","","","","","","","","","","","","","","","","","","","","","",""
"","","","","","html-keyboard-response","137","302555","0.0-5.0-0.33","AURYD2FH3FUOQ","2022-05-19T01:31:25.801Z","same_different-task_switching-phon_sim-rhyme","","null","same_different","<div style=""font-size:60px"">+</div>","null","","","","","","","","","","","","","","","","","","","","","","","","","","","","",""
"","","","","","html-keyboard-response","138","305200","0.0-5.0-1.33","AURYD2FH3FUOQ","2022-05-19T01:31:25.801Z","same_different-task_switching-phon_sim-rhyme","","2637.199999999255","same_different","[""<img src=\""square.png\"" width=\""100\"" height=\""100\"" style=\""position: fixed;left:39%;top:47%\""><img src=\""square.png\"" width=\""100\"" height=\""100\"" style=\""position: fixed;left:54%;top:47%\""><img src=\""square.png\"" width=\""100\"" height=\""100\"" style=\""position: fixed;left:46.5%;top:32%\""><img src=\""square.png\"" width=\""100\"" height=\""100\"" style=\""position: fixed;left:46.5%;top:61%\""><div style=\""font-size:60px; text-align: center;margin-top:35.2%\"">+</div><div id=\""first\"" style=\""position: fixed;visibility: hidden;left:48%;top:62%\""><img src=\""same_diff_imgs/D11.gif\""></div><div id=\""delayed\"" style=\""position: fixed;visibility: hidden;left:40%;top:48%\""><img src=\""same_diff_imgs/C14.gif\""></div>""]","arrowdown","categorical_image","same_diff_imgs/D11.gif","same_diff_imgs/C14.gif","no","different","","true","1","","","","","","","","","","","","","","","","","","","","",""
"","","","","","html-keyboard-response","139","305222","0.0-5.0-2.33","AURYD2FH3FUOQ","2022-05-19T01:31:25.801Z","same_different-task_switching-phon_sim-rhyme","","null",""," ","null","","","","","","","","","","","","","","","","","","","","","","","","","","","","",""
"","","","","","html-keyboard-response","140","305524","0.0-5.0-3.33","AURYD2FH3FUOQ","2022-05-19T01:31:25.801Z","same_different-task_switching-phon_sim-rhyme","","null","same_different"," ","null","","","","","","","","","","","","","","","","","","","","","","","","","","","","",""
"","","","","","html-keyboard-response","141","306277","0.0-5.0-0.34","AURYD2FH3FUOQ","2022-05-19T01:31:25.801Z","same_different-task_switching-phon_sim-rhyme","","null","same_different","<div style=""font-size:60px"">+</div>","null","","","","","","","","","","","","","","","","","","","","","","","","","","","","",""
"","","","","","html-keyboard-response","142","308413","0.0-5.0-1.34","AURYD2FH3FUOQ","2022-05-19T01:31:25.801Z","same_different-task_switching-phon_sim-rhyme","","2133.7000000011176","same_different","[""<img src=\""square.png\"" width=\""100\"" height=\""100\"" style=\""position: fixed;left:39%;top:47%\""><img src=\""square.png\"" width=\""100\"" height=\""100\"" style=\""position: fixed;left:54%;top:47%\""><img src=\""square.png\"" width=\""100\"" height=\""100\"" style=\""position: fixed;left:46.5%;top:32%\""><img src=\""square.png\"" width=\""100\"" height=\""100\"" style=\""position: fixed;left:46.5%;top:61%\""><div style=\""font-size:60px;text-align: center;margin-top:35.2%\"">+</div><div id=\""first\"" style=\""position: fixed;visibility: hidden;left:48%;top:34%\""><img src=\""same_diff_imgs/C14.gif\"" style=\""-webkit-transform: scaleX(-1);transform: scaleX(-1);\""></div><div id=\""delayed\"" style=\""position: fixed;visibility: hidden;left:40%;top:48%\""><img src=\""same_diff_imgs/D07.gif\"" style=\""-webkit-transform: scaleX(-1);transform: scaleX(-1);\""></div>""]","arrowdown","categorical_image","same_diff_imgs/C14.gif","same_diff_imgs/D07.gif","yes","different","","true","1","","","","","","","","","","","","","","","","","","","","",""
"","","","","","html-keyboard-response","143","308416","0.0-5.0-2.34","AURYD2FH3FUOQ","2022-05-19T01:31:25.801Z","same_different-task_switching-phon_sim-rhyme","","null",""," ","null","","","","","","","","","","","","","","","","","","","","","","","","","","","","",""
"","","","","","html-keyboard-response","144","308719","0.0-5.0-3.34","AURYD2FH3FUOQ","2022-05-19T01:31:25.801Z","same_different-task_switching-phon_sim-rhyme","","null","same_different"," ","null","","","","","","","","","","","","","","","","","","","","","","","","","","","","",""
"","","","","","html-keyboard-response","145","309471","0.0-5.0-0.35","AURYD2FH3FUOQ","2022-05-19T01:31:25.801Z","same_different-task_switching-phon_sim-rhyme","","null","same_different","<div style=""font-size:60px"">+</div>","null","","","","","","","","","","","","","","","","","","","","","","","","","","","","",""
"","","","","","html-keyboard-response","146","311124","0.0-5.0-1.35","AURYD2FH3FUOQ","2022-05-19T01:31:25.801Z","same_different-task_switching-phon_sim-rhyme","","1651.9000000003725","same_different","[""<img src=\""square.png\"" width=\""100\"" height=\""100\"" style=\""position: fixed;left:39%;top:47%\""><img src=\""square.png\"" width=\""100\"" height=\""100\"" style=\""position: fixed;left:54%;top:47%\""><img src=\""square.png\"" width=\""100\"" height=\""100\"" style=\""position: fixed;left:46.5%;top:32%\""><img src=\""square.png\"" width=\""100\"" height=\""100\"" style=\""position: fixed;left:46.5%;top:61%\""><div style=\""font-size:60px;text-align: center;margin-top:35.2%\"">+</div><div id=\""first\"" style=\""position: fixed;visibility: hidden;left:55%;top:49%\""><img src=\""same_diff_imgs/D07.gif\"" style=\""-webkit-transform: scaleX(-1);transform: scaleX(-1);\""></div><div id=\""delayed\"" style=\""position: fixed;visibility: hidden;left:40%;top:48%\""><img src=\""same_diff_imgs/D11.gif\"" style=\""-webkit-transform: scaleX(-1);transform: scaleX(-1);\""></div>""]","arrowup","categorical_image","same_diff_imgs/D07.gif","same_diff_imgs/D11.gif","yes","same","1","true","","","","","","","","","","","","","","","","","","","","","",""
"","","","","","html-keyboard-response","147","311127","0.0-5.0-2.35","AURYD2FH3FUOQ","2022-05-19T01:31:25.801Z","same_different-task_switching-phon_sim-rhyme","","null",""," ","null","","","","","","","","","","","","","","","","","","","","","","","","","","","","",""
"","","","","","html-keyboard-response","148","311429","0.0-5.0-3.35","AURYD2FH3FUOQ","2022-05-19T01:31:25.801Z","same_different-task_switching-phon_sim-rhyme","","null","same_different"," ","null","","","","","","","","","","","","","","","","","","","","","","","","","","","","",""
"","","","","","html-keyboard-response","149","312185","0.0-5.0-0.36","AURYD2FH3FUOQ","2022-05-19T01:31:25.801Z","same_different-task_switching-phon_sim-rhyme","","null","same_different","<div style=""font-size:60px"">+</div>","null","","","","","","","","","","","","","","","","","","","","","","","","","","","","",""
"","","","","","html-keyboard-response","150","313989","0.0-5.0-1.36","AURYD2FH3FUOQ","2022-05-19T01:31:25.801Z","same_different-task_switching-phon_sim-rhyme","","1800.5","same_different","[""<img src=\""square.png\"" width=\""100\"" height=\""100\"" style=\""position: fixed;left:39%;top:47%\""><img src=\""square.png\"" width=\""100\"" height=\""100\"" style=\""position: fixed;left:54%;top:47%\""><img src=\""square.png\"" width=\""100\"" height=\""100\"" style=\""position: fixed;left:46.5%;top:32%\""><img src=\""square.png\"" width=\""100\"" height=\""100\"" style=\""position: fixed;left:46.5%;top:61%\""><div style=\""font-size:60px; text-align: center;margin-top:35.2%\"">+</div><div id=\""first\"" style=\""position: fixed;visibility: hidden;left:55%;top:49%\""><img src=\""same_diff_imgs/D09.gif\""></div><div id=\""delayed\"" style=\""position: fixed;visibility: hidden;left:48%;top:34%\""><img src=\""same_diff_imgs/D07.gif\""></div>""]","arrowup","categorical_image","same_diff_imgs/D09.gif","same_diff_imgs/D07.gif","no","same","1","true","","","","","","","","","","","","","","","","","","","","","",""
"","","","","","html-keyboard-response","151","313990","0.0-5.0-2.36","AURYD2FH3FUOQ","2022-05-19T01:31:25.801Z","same_different-task_switching-phon_sim-rhyme","","null",""," ","null","","","","","","","","","","","","","","","","","","","","","","","","","","","","",""
"","","","","","html-keyboard-response","152","314292","0.0-5.0-3.36","AURYD2FH3FUOQ","2022-05-19T01:31:25.801Z","same_different-task_switching-phon_sim-rhyme","","null","same_different"," ","null","","","","","","","","","","","","","","","","","","","","","","","","","","","","",""
"","","","","","html-keyboard-response","153","315044","0.0-5.0-0.37","AURYD2FH3FUOQ","2022-05-19T01:31:25.801Z","same_different-task_switching-phon_sim-rhyme","","null","same_different","<div style=""font-size:60px"">+</div>","null","","","","","","","","","","","","","","","","","","","","","","","","","","","","",""
"","","","","","html-keyboard-response","154","316844","0.0-5.0-1.37","AURYD2FH3FUOQ","2022-05-19T01:31:25.801Z","same_different-task_switching-phon_sim-rhyme","","1791.2999999988824","same_different","[""<img src=\""square.png\"" width=\""100\"" height=\""100\"" style=\""position: fixed;left:39%;top:47%\""><img src=\""square.png\"" width=\""100\"" height=\""100\"" style=\""position: fixed;left:54%;top:47%\""><img src=\""square.png\"" width=\""100\"" height=\""100\"" style=\""position: fixed;left:46.5%;top:32%\""><img src=\""square.png\"" width=\""100\"" height=\""100\"" style=\""position: fixed;left:46.5%;top:61%\""><div style=\""font-size:60px;text-align: center;margin-top:35.2%\"">+</div><div id=\""first\"" style=\""position: fixed;visibility: hidden;left:48%;top:34%\""><img src=\""same_diff_imgs/D09.gif\"" style=\""-webkit-transform: scaleX(-1);transform: scaleX(-1);\""></div><div id=\""delayed\"" style=\""position: fixed;visibility: hidden;left:48%;top:62%\""><img src=\""same_diff_imgs/C14.gif\"" style=\""-webkit-transform: scaleX(-1);transform: scaleX(-1);\""></div>""]","arrowdown","categorical_image","same_diff_imgs/D09.gif","same_diff_imgs/C14.gif","yes","different","","true","1","","","","","","","","","","","","","","","","","","","","",""
"","","","","","html-keyboard-response","155","316850","0.0-5.0-2.37","AURYD2FH3FUOQ","2022-05-19T01:31:25.801Z","same_different-task_switching-phon_sim-rhyme","","null",""," ","null","","","","","","","","","","","","","","","","","","","","","","","","","","","","",""
"","","","","","html-keyboard-response","156","317153","0.0-5.0-3.37","AURYD2FH3FUOQ","2022-05-19T01:31:25.801Z","same_different-task_switching-phon_sim-rhyme","","null","same_different"," ","null","","","","","","","","","","","","","","","","","","","","","","","","","","","","",""
"","","","","","html-keyboard-response","157","317904","0.0-5.0-0.38","AURYD2FH3FUOQ","2022-05-19T01:31:25.801Z","same_different-task_switching-phon_sim-rhyme","","null","same_different","<div style=""font-size:60px"">+</div>","null","","","","","","","","","","","","","","","","","","","","","","","","","","","","",""
"","","","","","html-keyboard-response","158","320075","0.0-5.0-1.38","AURYD2FH3FUOQ","2022-05-19T01:31:25.801Z","same_different-task_switching-phon_sim-rhyme","","2166.199999999255","same_different","[""<img src=\""square.png\"" width=\""100\"" height=\""100\"" style=\""position: fixed;left:39%;top:47%\""><img src=\""square.png\"" width=\""100\"" height=\""100\"" style=\""position: fixed;left:54%;top:47%\""><img src=\""square.png\"" width=\""100\"" height=\""100\"" style=\""position: fixed;left:46.5%;top:32%\""><img src=\""square.png\"" width=\""100\"" height=\""100\"" style=\""position: fixed;left:46.5%;top:61%\""><div style=\""font-size:60px; text-align: center;margin-top:35.2%\"">+</div><div id=\""first\"" style=\""position: fixed;visibility: hidden;left:48%;top:62%\""><img src=\""same_diff_imgs/D09.gif\""></div><div id=\""delayed\"" style=\""position: fixed;visibility: hidden;left:40%;top:48%\""><img src=\""same_diff_imgs/C14.gif\""></div>""]","arrowdown","categorical_image","same_diff_imgs/D09.gif","same_diff_imgs/C14.gif","no","different","","true","1","","","","","","","","","","","","","","","","","","","","",""
"","","","","","html-keyboard-response","159","320078","0.0-5.0-2.38","AURYD2FH3FUOQ","2022-05-19T01:31:25.801Z","same_different-task_switching-phon_sim-rhyme","","null",""," ","null","","","","","","","","","","","","","","","","","","","","","","","","","","","","",""
"","","","","","html-keyboard-response","160","320379","0.0-5.0-3.38","AURYD2FH3FUOQ","2022-05-19T01:31:25.801Z","same_different-task_switching-phon_sim-rhyme","","null","same_different"," ","null","","","","","","","","","","","","","","","","","","","","","","","","","","","","",""
"","","","","","html-keyboard-response","161","321131","0.0-5.0-0.39","AURYD2FH3FUOQ","2022-05-19T01:31:25.801Z","same_different-task_switching-phon_sim-rhyme","","null","same_different","<div style=""font-size:60px"">+</div>","null","","","","","","","","","","","","","","","","","","","","","","","","","","","","",""
"","","","","","html-keyboard-response","162","322971","0.0-5.0-1.39","AURYD2FH3FUOQ","2022-05-19T01:31:25.801Z","same_different-task_switching-phon_sim-rhyme","","1836.9000000003725","same_different","[""<img src=\""square.png\"" width=\""100\"" height=\""100\"" style=\""position: fixed;left:39%;top:47%\""><img src=\""square.png\"" width=\""100\"" height=\""100\"" style=\""position: fixed;left:54%;top:47%\""><img src=\""square.png\"" width=\""100\"" height=\""100\"" style=\""position: fixed;left:46.5%;top:32%\""><img src=\""square.png\"" width=\""100\"" height=\""100\"" style=\""position: fixed;left:46.5%;top:61%\""><div style=\""font-size:60px;text-align: center;margin-top:35.2%\"">+</div><div id=\""first\"" style=\""position: fixed;visibility: hidden;left:48%;top:34%\""><img src=\""same_diff_imgs/D07.gif\"" style=\""-webkit-transform: scaleX(-1);transform: scaleX(-1);\""></div><div id=\""delayed\"" style=\""position: fixed;visibility: hidden;left:55%;top:49%\""><img src=\""same_diff_imgs/C04.gif\"" style=\""-webkit-transform: scaleX(-1);transform: scaleX(-1);\""></div>""]","arrowdown","categorical_image","same_diff_imgs/D07.gif","same_diff_imgs/C04.gif","yes","different","","true","1","","","","","","","","","","","","","","","","","","","","",""
"","","","","","html-keyboard-response","163","322975","0.0-5.0-2.39","AURYD2FH3FUOQ","2022-05-19T01:31:25.801Z","same_different-task_switching-phon_sim-rhyme","","null",""," ","null","","","","","","","","","","","","","","","","","","","","","","","","","","","","",""
"","","","","","html-keyboard-response","164","323277","0.0-5.0-3.39","AURYD2FH3FUOQ","2022-05-19T01:31:25.801Z","same_different-task_switching-phon_sim-rhyme","","null","same_different"," ","null","","","","","","","","","","","","","","","","","","","","","","","","","","","","",""
"","","","","","html-keyboard-response","165","324028","0.0-5.0-0.40","AURYD2FH3FUOQ","2022-05-19T01:31:25.801Z","same_different-task_switching-phon_sim-rhyme","","null","same_different","<div style=""font-size:60px"">+</div>","null","","","","","","","","","","","","","","","","","","","","","","","","","","","","",""
"","","","","","html-keyboard-response","166","325996","0.0-5.0-1.40","AURYD2FH3FUOQ","2022-05-19T01:31:25.801Z","same_different-task_switching-phon_sim-rhyme","","1965.5999999996275","same_different","[""<img src=\""square.png\"" width=\""100\"" height=\""100\"" style=\""position: fixed;left:39%;top:47%\""><img src=\""square.png\"" width=\""100\"" height=\""100\"" style=\""position: fixed;left:54%;top:47%\""><img src=\""square.png\"" width=\""100\"" height=\""100\"" style=\""position: fixed;left:46.5%;top:32%\""><img src=\""square.png\"" width=\""100\"" height=\""100\"" style=\""position: fixed;left:46.5%;top:61%\""><div style=\""font-size:60px;text-align: center;margin-top:35.2%\"">+</div><div id=\""first\"" style=\""position: fixed;visibility: hidden;left:48%;top:62%\""><img src=\""same_diff_imgs/C09.gif\"" style=\""-webkit-transform: scaleX(-1);transform: scaleX(-1);\""></div><div id=\""delayed\"" style=\""position: fixed;visibility: hidden;left:40%;top:48%\""><img src=\""same_diff_imgs/C09.gif\"" style=\""-webkit-transform: scaleX(-1);transform: scaleX(-1);\""></div>""]","arrowup","categorical_image","same_diff_imgs/C09.gif","same_diff_imgs/C09.gif","yes","same","1","true","","","","","","","","","","","","","","","","","","","","","",""
"","","","","","html-keyboard-response","167","325998","0.0-5.0-2.40","AURYD2FH3FUOQ","2022-05-19T01:31:25.801Z","same_different-task_switching-phon_sim-rhyme","","null",""," ","null","","","","","","","","","","","","","","","","","","","","","","","","","","","","",""
"","","","","","html-keyboard-response","168","326299","0.0-5.0-3.40","AURYD2FH3FUOQ","2022-05-19T01:31:25.801Z","same_different-task_switching-phon_sim-rhyme","","null","same_different"," ","null","","","","","","","","","","","","","","","","","","","","","","","","","","","","",""
"","","","","","html-keyboard-response","169","327051","0.0-5.0-0.41","AURYD2FH3FUOQ","2022-05-19T01:31:25.801Z","same_different-task_switching-phon_sim-rhyme","","null","same_different","<div style=""font-size:60px"">+</div>","null","","","","","","","","","","","","","","","","","","","","","","","","","","","","",""
"","","","","","html-keyboard-response","170","328829","0.0-5.0-1.41","AURYD2FH3FUOQ","2022-05-19T01:31:25.801Z","same_different-task_switching-phon_sim-rhyme","","1775.7000000011176","same_different","[""<img src=\""square.png\"" width=\""100\"" height=\""100\"" style=\""position: fixed;left:39%;top:47%\""><img src=\""square.png\"" width=\""100\"" height=\""100\"" style=\""position: fixed;left:54%;top:47%\""><img src=\""square.png\"" width=\""100\"" height=\""100\"" style=\""position: fixed;left:46.5%;top:32%\""><img src=\""square.png\"" width=\""100\"" height=\""100\"" style=\""position: fixed;left:46.5%;top:61%\""><div style=\""font-size:60px;text-align: center;margin-top:35.2%\"">+</div><div id=\""first\"" style=\""position: fixed;visibility: hidden;left:48%;top:34%\""><img src=\""same_diff_imgs/C14.gif\"" style=\""-webkit-transform: scaleX(-1);transform: scaleX(-1);\""></div><div id=\""delayed\"" style=\""position: fixed;visibility: hidden;left:40%;top:48%\""><img src=\""same_diff_imgs/C04.gif\"" style=\""-webkit-transform: scaleX(-1);transform: scaleX(-1);\""></div>""]","arrowdown","categorical_image","same_diff_imgs/C14.gif","same_diff_imgs/C04.gif","yes","same","","false","","1","","","","","","","","","","","","","","","","","","","",""
"","","","","","html-keyboard-response","171","329331","0.0-5.0-2.41","AURYD2FH3FUOQ","2022-05-19T01:31:25.801Z","same_different-task_switching-phon_sim-rhyme","","null","","<div style=""color:darkred; font-size:40px"">Incorrect!</div>","null","","","","","","","","","","","","","","","","","","","","","","","","","","","","",""
"","","","","","html-keyboard-response","172","329632","0.0-5.0-3.41","AURYD2FH3FUOQ","2022-05-19T01:31:25.801Z","same_different-task_switching-phon_sim-rhyme","","null","same_different"," ","null","","","","","","","","","","","","","","","","","","","","","","","","","","","","",""
"","","","","","html-keyboard-response","173","330384","0.0-5.0-0.42","AURYD2FH3FUOQ","2022-05-19T01:31:25.801Z","same_different-task_switching-phon_sim-rhyme","","null","same_different","<div style=""font-size:60px"">+</div>","null","","","","","","","","","","","","","","","","","","","","","","","","","","","","",""
"","","","","","html-keyboard-response","174","332213","0.0-5.0-1.42","AURYD2FH3FUOQ","2022-05-19T01:31:25.801Z","same_different-task_switching-phon_sim-rhyme","","1824.300000000745","same_different","[""<img src=\""square.png\"" width=\""100\"" height=\""100\"" style=\""position: fixed;left:39%;top:47%\""><img src=\""square.png\"" width=\""100\"" height=\""100\"" style=\""position: fixed;left:54%;top:47%\""><img src=\""square.png\"" width=\""100\"" height=\""100\"" style=\""position: fixed;left:46.5%;top:32%\""><img src=\""square.png\"" width=\""100\"" height=\""100\"" style=\""position: fixed;left:46.5%;top:61%\""><div style=\""font-size:60px;text-align: center;margin-top:35.2%\"">+</div><div id=\""first\"" style=\""position: fixed;visibility: hidden;left:40%;top:48%\""><img src=\""same_diff_imgs/D09.gif\"" style=\""-webkit-transform: scaleX(-1);transform: scaleX(-1);\""></div><div id=\""delayed\"" style=\""position: fixed;visibility: hidden;left:48%;top:34%\""><img src=\""same_diff_imgs/C09.gif\"" style=\""-webkit-transform: scaleX(-1);transform: scaleX(-1);\""></div>""]","arrowdown","categorical_image","same_diff_imgs/D09.gif","same_diff_imgs/C09.gif","yes","different","","true","1","","","","","","","","","","","","","","","","","","","","",""
"","","","","","html-keyboard-response","175","332215","0.0-5.0-2.42","AURYD2FH3FUOQ","2022-05-19T01:31:25.801Z","same_different-task_switching-phon_sim-rhyme","","null",""," ","null","","","","","","","","","","","","","","","","","","","","","","","","","","","","",""
"","","","","","html-keyboard-response","176","332518","0.0-5.0-3.42","AURYD2FH3FUOQ","2022-05-19T01:31:25.801Z","same_different-task_switching-phon_sim-rhyme","","null","same_different"," ","null","","","","","","","","","","","","","","","","","","","","","","","","","","","","",""
"","","","","","html-keyboard-response","177","333269","0.0-5.0-0.43","AURYD2FH3FUOQ","2022-05-19T01:31:25.801Z","same_different-task_switching-phon_sim-rhyme","","null","same_different","<div style=""font-size:60px"">+</div>","null","","","","","","","","","","","","","","","","","","","","","","","","","","","","",""
"","","","","","html-keyboard-response","178","335160","0.0-5.0-1.43","AURYD2FH3FUOQ","2022-05-19T01:31:25.801Z","same_different-task_switching-phon_sim-rhyme","","1889.5999999996275","same_different","[""<img src=\""square.png\"" width=\""100\"" height=\""100\"" style=\""position: fixed;left:39%;top:47%\""><img src=\""square.png\"" width=\""100\"" height=\""100\"" style=\""position: fixed;left:54%;top:47%\""><img src=\""square.png\"" width=\""100\"" height=\""100\"" style=\""position: fixed;left:46.5%;top:32%\""><img src=\""square.png\"" width=\""100\"" height=\""100\"" style=\""position: fixed;left:46.5%;top:61%\""><div style=\""font-size:60px; text-align: center;margin-top:35.2%\"">+</div><div id=\""first\"" style=\""position: fixed;visibility: hidden;left:48%;top:62%\""><img src=\""same_diff_imgs/D11.gif\""></div><div id=\""delayed\"" style=\""position: fixed;visibility: hidden;left:48%;top:34%\""><img src=\""same_diff_imgs/C09.gif\""></div>""]","arrowdown","categorical_image","same_diff_imgs/D11.gif","same_diff_imgs/C09.gif","no","different","","true","1","","","","","","","","","","","","","","","","","","","","",""
"","","","","","html-keyboard-response","179","335163","0.0-5.0-2.43","AURYD2FH3FUOQ","2022-05-19T01:31:25.801Z","same_different-task_switching-phon_sim-rhyme","","null",""," ","null","","","","","","","","","","","","","","","","","","","","","","","","","","","","",""
"","","","","","html-keyboard-response","180","335464","0.0-5.0-3.43","AURYD2FH3FUOQ","2022-05-19T01:31:25.801Z","same_different-task_switching-phon_sim-rhyme","","null","same_different"," ","null","","","","","","","","","","","","","","","","","","","","","","","","","","","","",""
"","","","","","html-keyboard-response","181","336215","0.0-5.0-0.44","AURYD2FH3FUOQ","2022-05-19T01:31:25.801Z","same_different-task_switching-phon_sim-rhyme","","null","same_different","<div style=""font-size:60px"">+</div>","null","","","","","","","","","","","","","","","","","","","","","","","","","","","","",""
"","","","","","html-keyboard-response","182","338028","0.0-5.0-1.44","AURYD2FH3FUOQ","2022-05-19T01:31:25.801Z","same_different-task_switching-phon_sim-rhyme","","1808.699999999255","same_different","[""<img src=\""square.png\"" width=\""100\"" height=\""100\"" style=\""position: fixed;left:39%;top:47%\""><img src=\""square.png\"" width=\""100\"" height=\""100\"" style=\""position: fixed;left:54%;top:47%\""><img src=\""square.png\"" width=\""100\"" height=\""100\"" style=\""position: fixed;left:46.5%;top:32%\""><img src=\""square.png\"" width=\""100\"" height=\""100\"" style=\""position: fixed;left:46.5%;top:61%\""><div style=\""font-size:60px; text-align: center;margin-top:35.2%\"">+</div><div id=\""first\"" style=\""position: fixed;visibility: hidden;left:40%;top:48%\""><img src=\""same_diff_imgs/C04.gif\""></div><div id=\""delayed\"" style=\""position: fixed;visibility: hidden;left:48%;top:62%\""><img src=\""same_diff_imgs/D07.gif\""></div>""]","arrowdown","categorical_image","same_diff_imgs/C04.gif","same_diff_imgs/D07.gif","no","different","","true","1","","","","","","","","","","","","","","","","","","","","",""
"","","","","","html-keyboard-response","183","338036","0.0-5.0-2.44","AURYD2FH3FUOQ","2022-05-19T01:31:25.801Z","same_different-task_switching-phon_sim-rhyme","","null",""," ","null","","","","","","","","","","","","","","","","","","","","","","","","","","","","",""
"","","","","","html-keyboard-response","184","338365","0.0-5.0-3.44","AURYD2FH3FUOQ","2022-05-19T01:31:25.801Z","same_different-task_switching-phon_sim-rhyme","","null","same_different"," ","null","","","","","","","","","","","","","","","","","","","","","","","","","","","","",""
"","","","","","html-keyboard-response","185","339145","0.0-5.0-0.45","AURYD2FH3FUOQ","2022-05-19T01:31:25.801Z","same_different-task_switching-phon_sim-rhyme","","null","same_different","<div style=""font-size:60px"">+</div>","null","","","","","","","","","","","","","","","","","","","","","","","","","","","","",""
"","","","","","html-keyboard-response","186","340867","0.0-5.0-1.45","AURYD2FH3FUOQ","2022-05-19T01:31:25.801Z","same_different-task_switching-phon_sim-rhyme","","1717.2000000011176","same_different","[""<img src=\""square.png\"" width=\""100\"" height=\""100\"" style=\""position: fixed;left:39%;top:47%\""><img src=\""square.png\"" width=\""100\"" height=\""100\"" style=\""position: fixed;left:54%;top:47%\""><img src=\""square.png\"" width=\""100\"" height=\""100\"" style=\""position: fixed;left:46.5%;top:32%\""><img src=\""square.png\"" width=\""100\"" height=\""100\"" style=\""position: fixed;left:46.5%;top:61%\""><div style=\""font-size:60px;text-align: center;margin-top:35.2%\"">+</div><div id=\""first\"" style=\""position: fixed;visibility: hidden;left:48%;top:34%\""><img src=\""same_diff_imgs/D09.gif\"" style=\""-webkit-transform: scaleX(-1);transform: scaleX(-1);\""></div><div id=\""delayed\"" style=\""position: fixed;visibility: hidden;left:48%;top:62%\""><img src=\""same_diff_imgs/C04.gif\"" style=\""-webkit-transform: scaleX(-1);transform: scaleX(-1);\""></div>""]","arrowdown","categorical_image","same_diff_imgs/D09.gif","same_diff_imgs/C04.gif","yes","different","","true","1","","","","","","","","","","","","","","","","","","","","",""
"","","","","","html-keyboard-response","187","340870","0.0-5.0-2.45","AURYD2FH3FUOQ","2022-05-19T01:31:25.801Z","same_different-task_switching-phon_sim-rhyme","","null",""," ","null","","","","","","","","","","","","","","","","","","","","","","","","","","","","",""
"","","","","","html-keyboard-response","188","341172","0.0-5.0-3.45","AURYD2FH3FUOQ","2022-05-19T01:31:25.801Z","same_different-task_switching-phon_sim-rhyme","","null","same_different"," ","null","","","","","","","","","","","","","","","","","","","","","","","","","","","","",""
"","","","","","html-keyboard-response","189","341923","0.0-5.0-0.46","AURYD2FH3FUOQ","2022-05-19T01:31:25.801Z","same_different-task_switching-phon_sim-rhyme","","null","same_different","<div style=""font-size:60px"">+</div>","null","","","","","","","","","","","","","","","","","","","","","","","","","","","","",""
"","","","","","html-keyboard-response","190","343675","0.0-5.0-1.46","AURYD2FH3FUOQ","2022-05-19T01:31:25.801Z","same_different-task_switching-phon_sim-rhyme","","1748.699999999255","same_different","[""<img src=\""square.png\"" width=\""100\"" height=\""100\"" style=\""position: fixed;left:39%;top:47%\""><img src=\""square.png\"" width=\""100\"" height=\""100\"" style=\""position: fixed;left:54%;top:47%\""><img src=\""square.png\"" width=\""100\"" height=\""100\"" style=\""position: fixed;left:46.5%;top:32%\""><img src=\""square.png\"" width=\""100\"" height=\""100\"" style=\""position: fixed;left:46.5%;top:61%\""><div style=\""font-size:60px; text-align: center;margin-top:35.2%\"">+</div><div id=\""first\"" style=\""position: fixed;visibility: hidden;left:48%;top:34%\""><img src=\""same_diff_imgs/C09.gif\""></div><div id=\""delayed\"" style=\""position: fixed;visibility: hidden;left:48%;top:62%\""><img src=\""same_diff_imgs/C09.gif\""></div>""]","arrowup","categorical_image","same_diff_imgs/C09.gif","same_diff_imgs/C09.gif","no","same","1","true","","","","","","","","","","","","","","","","","","","","","",""
"","","","","","html-keyboard-response","191","343677","0.0-5.0-2.46","AURYD2FH3FUOQ","2022-05-19T01:31:25.801Z","same_different-task_switching-phon_sim-rhyme","","null",""," ","null","","","","","","","","","","","","","","","","","","","","","","","","","","","","",""
"","","","","","html-keyboard-response","192","343986","0.0-5.0-3.46","AURYD2FH3FUOQ","2022-05-19T01:31:25.801Z","same_different-task_switching-phon_sim-rhyme","","null","same_different"," ","null","","","","","","","","","","","","","","","","","","","","","","","","","","","","",""
