"success","timeout","failed_images","failed_audio","failed_video","trial_type","trial_index","time_elapsed","internal_node_id","worker_id","start_time","experiment_order","view_history","rt","experiment","response","phase","stimulus","condition","answer","correct","operation","color_cue","trial_no","symbol_cue","question_order","talk_out_loud","strategy_free_ans","wait_time","image_1","image_2","cor_key","type","word_1","word_2","word_3","word_4","word_5","original_word_set","response_1","response_2","response_3","response_4","response_5","judgment_type","stim_1","stim_2","inverted","true_pos","true_neg","false_neg","false_pos"
"true","false","[]","[]","[]","preload","0","2184","0.0-0.0","A2WX434EAQOE29","2022-05-26T23:54:42.253Z","task_switching-rhyme-phon_sim-same_different","","","","","","","","","","","","","","","","","","","","","","","","","","","","","","","","","","","","","","","",""
"","","","","","instructions","1","13816","0.0-1.0","A2WX434EAQOE29","2022-05-26T23:54:42.253Z","task_switching-rhyme-phon_sim-same_different","[{""page_index"":0,""viewing_time"":11630.299999952316}]","11630.599999904633","","","","","","","","","","","","","","","","","","","","","","","","","","","","","","","","","","","","","",""
"true","","","","","fullscreen","2","29709","0.0-2.0","A2WX434EAQOE29","2022-05-26T23:54:42.253Z","task_switching-rhyme-phon_sim-same_different","","","","","","","","","","","","","","","","","","","","","","","","","","","","","","","","","","","","","","","",""
"","","","","","instructions","3","55183","0.0-3.0","A2WX434EAQOE29","2022-05-26T23:54:42.253Z","task_switching-rhyme-phon_sim-same_different","[{""page_index"":0,""viewing_time"":25472.799999952316}]","25472.900000095367","task_switching","","","","","","","","","","","","","","","","","","","","","","","","","","","","","","","","","","","","",""
"","","","","","instructions","4","61552","0.0-4.0","A2WX434EAQOE29","2022-05-26T23:54:42.253Z","task_switching-rhyme-phon_sim-same_different","[{""page_index"":0,""viewing_time"":6367.600000143051}]","6367.799999952316","task_switching","","","","","","","","","","","","","","","","","","","","","","","","","","","","","","","","","","","","",""
"","","","","","survey-text","5","64812","0.0-5.0","A2WX434EAQOE29","2022-05-26T23:54:42.253Z","task_switching-rhyme-phon_sim-same_different","","3254.7000000476837","task_switching","{""addition_ans"":""99""}","training","96","addition","99","true","add","","","","","","","","","","","","","","","","","","","","","","","","","","","","","",""
"","","","","","html-keyboard-response","6","65822","0.0-6.0","A2WX434EAQOE29","2022-05-26T23:54:42.253Z","task_switching-rhyme-phon_sim-same_different","","null","task_switching","null","training","<div style=""color:darkgreen; font-size:60px"">Well done!</div>","addition","","","","","","","","","","","","","","","","","","","","","","","","","","","","","","","","",""
"","","","","","survey-text","7","69254","0.0-7.0","A2WX434EAQOE29","2022-05-26T23:54:42.253Z","task_switching-rhyme-phon_sim-same_different","","3427.7000000476837","task_switching","{""addition_ans"":""20""}","training","17","addition","20","true","add","","","","","","","","","","","","","","","","","","","","","","","","","","","","","",""
"","","","","","html-keyboard-response","8","70256","0.0-8.0","A2WX434EAQOE29","2022-05-26T23:54:42.253Z","task_switching-rhyme-phon_sim-same_different","","null","task_switching","null","training","<div style=""color:darkgreen; font-size:60px"">Well done!</div>","addition","","","","","","","","","","","","","","","","","","","","","","","","","","","","","","","","",""
"","","","","","survey-text","9","73532","0.0-9.0","A2WX434EAQOE29","2022-05-26T23:54:42.253Z","task_switching-rhyme-phon_sim-same_different","","3272.4000000953674","task_switching","{""addition_ans"":""68""}","training","65","addition","68","true","add","","","","","","","","","","","","","","","","","","","","","","","","","","","","","",""
"","","","","","html-keyboard-response","10","74533","0.0-10.0","A2WX434EAQOE29","2022-05-26T23:54:42.253Z","task_switching-rhyme-phon_sim-same_different","","null","task_switching","null","training","<div style=""color:darkgreen; font-size:60px"">Well done!</div>","addition","","","","","","","","","","","","","","","","","","","","","","","","","","","","","","","","",""
"","","","","","survey-text","11","77734","0.0-11.0","A2WX434EAQOE29","2022-05-26T23:54:42.253Z","task_switching-rhyme-phon_sim-same_different","","3196.399999856949","task_switching","{""addition_ans"":""26""}","training","23","addition","26","true","add","","","","","","","","","","","","","","","","","","","","","","","","","","","","","",""
"","","","","","html-keyboard-response","12","78736","0.0-12.0","A2WX434EAQOE29","2022-05-26T23:54:42.253Z","task_switching-rhyme-phon_sim-same_different","","null","task_switching","null","training","<div style=""color:darkgreen; font-size:60px"">Well done!</div>","addition","","","","","","","","","","","","","","","","","","","","","","","","","","","","","","","","",""
"","","","","","survey-text","13","81682","0.0-13.0","A2WX434EAQOE29","2022-05-26T23:54:42.253Z","task_switching-rhyme-phon_sim-same_different","","2943.199999809265","task_switching","{""addition_ans"":""42""}","training","39","addition","42","true","add","","","","","","","","","","","","","","","","","","","","","","","","","","","","","",""
"","","","","","html-keyboard-response","14","82694","0.0-14.0","A2WX434EAQOE29","2022-05-26T23:54:42.253Z","task_switching-rhyme-phon_sim-same_different","","null","task_switching","null","training","<div style=""color:darkgreen; font-size:60px"">Well done!</div>","addition","","","","","","","","","","","","","","","","","","","","","","","","","","","","","","","","",""
"","","","","","survey-text","15","85838","0.0-15.0","A2WX434EAQOE29","2022-05-26T23:54:42.253Z","task_switching-rhyme-phon_sim-same_different","","3140.7999999523163","task_switching","{""addition_ans"":""96""}","training","93","addition","96","true","add","","","","","","","","","","","","","","","","","","","","","","","","","","","","","",""
"","","","","","html-keyboard-response","16","86840","0.0-16.0","A2WX434EAQOE29","2022-05-26T23:54:42.253Z","task_switching-rhyme-phon_sim-same_different","","null","task_switching","null","training","<div style=""color:darkgreen; font-size:60px"">Well done!</div>","addition","","","","","","","","","","","","","","","","","","","","","","","","","","","","","","","","",""
"","","","","","survey-text","17","89985","0.0-17.0","A2WX434EAQOE29","2022-05-26T23:54:42.253Z","task_switching-rhyme-phon_sim-same_different","","3143.2000000476837","task_switching","{""addition_ans"":""18""}","training","15","addition","18","true","add","","","","","","","","","","","","","","","","","","","","","","","","","","","","","",""
"","","","","","html-keyboard-response","18","90987","0.0-18.0","A2WX434EAQOE29","2022-05-26T23:54:42.253Z","task_switching-rhyme-phon_sim-same_different","","null","task_switching","null","training","<div style=""color:darkgreen; font-size:60px"">Well done!</div>","addition","","","","","","","","","","","","","","","","","","","","","","","","","","","","","","","","",""
"","","","","","survey-text","19","93956","0.0-19.0","A2WX434EAQOE29","2022-05-26T23:54:42.253Z","task_switching-rhyme-phon_sim-same_different","","2966.2000000476837","task_switching","{""addition_ans"":""53""}","training","50","addition","53","true","add","","","","","","","","","","","","","","","","","","","","","","","","","","","","","",""
"","","","","","html-keyboard-response","20","94967","0.0-20.0","A2WX434EAQOE29","2022-05-26T23:54:42.253Z","task_switching-rhyme-phon_sim-same_different","","null","task_switching","null","training","<div style=""color:darkgreen; font-size:60px"">Well done!</div>","addition","","","","","","","","","","","","","","","","","","","","","","","","","","","","","","","","",""
"","","","","","survey-text","21","97939","0.0-21.0","A2WX434EAQOE29","2022-05-26T23:54:42.253Z","task_switching-rhyme-phon_sim-same_different","","2969.2000000476837","task_switching","{""addition_ans"":""54""}","training","51","addition","54","true","add","","","","","","","","","","","","","","","","","","","","","","","","","","","","","",""
"","","","","","html-keyboard-response","22","98941","0.0-22.0","A2WX434EAQOE29","2022-05-26T23:54:42.253Z","task_switching-rhyme-phon_sim-same_different","","null","task_switching","null","training","<div style=""color:darkgreen; font-size:60px"">Well done!</div>","addition","","","","","","","","","","","","","","","","","","","","","","","","","","","","","","","","",""
"","","","","","survey-text","23","101759","0.0-23.0","A2WX434EAQOE29","2022-05-26T23:54:42.253Z","task_switching-rhyme-phon_sim-same_different","","2814.5","task_switching","{""addition_ans"":""44""}","training","41","addition","44","true","add","","","","","","","","","","","","","","","","","","","","","","","","","","","","","",""
"","","","","","html-keyboard-response","24","102760","0.0-24.0","A2WX434EAQOE29","2022-05-26T23:54:42.253Z","task_switching-rhyme-phon_sim-same_different","","null","task_switching","null","training","<div style=""color:darkgreen; font-size:60px"">Well done!</div>","addition","","","","","","","","","","","","","","","","","","","","","","","","","","","","","","","","",""
"","","","","","instructions","25","107029","0.0-25.0","A2WX434EAQOE29","2022-05-26T23:54:42.253Z","task_switching-rhyme-phon_sim-same_different","[{""page_index"":0,""viewing_time"":4267.300000190735}]","4267.600000143051","task_switching","","","","","","","","","","","","","","","","","","","","","","","","","","","","","","","","","","","","",""
"","","","","","survey-text","26","110109","0.0-26.0","A2WX434EAQOE29","2022-05-26T23:54:42.253Z","task_switching-rhyme-phon_sim-same_different","","3077.800000190735","task_switching","{""addition_ans"":""55""}","experiment","52","addition","55","true","add","","","","","","","","","","","","","","","","","","","","","","","","","","","","","",""
"","","","","","survey-text","27","113499","0.0-27.0","A2WX434EAQOE29","2022-05-26T23:54:42.253Z","task_switching-rhyme-phon_sim-same_different","","3387.9000000953674","task_switching","{""addition_ans"":""76""}","experiment","73","addition","76","true","add","","","","","","","","","","","","","","","","","","","","","","","","","","","","","",""
"","","","","","survey-text","28","118855","0.0-28.0","A2WX434EAQOE29","2022-05-26T23:54:42.253Z","task_switching-rhyme-phon_sim-same_different","","5354.800000190735","task_switching","{""addition_ans"":""80""}","experiment","77","addition","80","true","add","","","","","","","","","","","","","","","","","","","","","","","","","","","","","",""
"","","","","","survey-text","29","121961","0.0-29.0","A2WX434EAQOE29","2022-05-26T23:54:42.253Z","task_switching-rhyme-phon_sim-same_different","","3103.7999999523163","task_switching","{""addition_ans"":""99""}","experiment","96","addition","99","true","add","","","","","","","","","","","","","","","","","","","","","","","","","","","","","",""
"","","","","","survey-text","30","125123","0.0-30.0","A2WX434EAQOE29","2022-05-26T23:54:42.253Z","task_switching-rhyme-phon_sim-same_different","","3159.7000000476837","task_switching","{""addition_ans"":""31""}","experiment","28","addition","31","true","add","","","","","","","","","","","","","","","","","","","","","","","","","","","","","",""
"","","","","","survey-text","31","128003","0.0-31.0","A2WX434EAQOE29","2022-05-26T23:54:42.253Z","task_switching-rhyme-phon_sim-same_different","","2878.2000000476837","task_switching","{""addition_ans"":""28""}","experiment","25","addition","28","true","add","","","","","","","","","","","","","","","","","","","","","","","","","","","","","",""
"","","","","","survey-text","32","131449","0.0-32.0","A2WX434EAQOE29","2022-05-26T23:54:42.253Z","task_switching-rhyme-phon_sim-same_different","","3444.0999999046326","task_switching","{""addition_ans"":""46""}","experiment","43","addition","46","true","add","","","","","","","","","","","","","","","","","","","","","","","","","","","","","",""
"","","","","","survey-text","33","134579","0.0-33.0","A2WX434EAQOE29","2022-05-26T23:54:42.253Z","task_switching-rhyme-phon_sim-same_different","","3127.7999999523163","task_switching","{""addition_ans"":""19""}","experiment","16","addition","19","true","add","","","","","","","","","","","","","","","","","","","","","","","","","","","","","",""
"","","","","","survey-text","34","137476","0.0-34.0","A2WX434EAQOE29","2022-05-26T23:54:42.253Z","task_switching-rhyme-phon_sim-same_different","","2895.2000000476837","task_switching","{""addition_ans"":""73""}","experiment","70","addition","73","true","add","","","","","","","","","","","","","","","","","","","","","","","","","","","","","",""
"","","","","","survey-text","35","140526","0.0-35.0","A2WX434EAQOE29","2022-05-26T23:54:42.253Z","task_switching-rhyme-phon_sim-same_different","","3047.7000000476837","task_switching","{""addition_ans"":""88""}","experiment","85","addition","88","true","add","","","","","","","","","","","","","","","","","","","","","","","","","","","","","",""
"","","","","","survey-text","36","146396","0.0-36.0","A2WX434EAQOE29","2022-05-26T23:54:42.253Z","task_switching-rhyme-phon_sim-same_different","","5867.5","task_switching","{""addition_ans"":""57""}","experiment","54","addition","57","true","add","","","","","","","","","","","","","","","","","","","","","","","","","","","","","",""
"","","","","","survey-text","37","149408","0.0-37.0","A2WX434EAQOE29","2022-05-26T23:54:42.253Z","task_switching-rhyme-phon_sim-same_different","","3009.5","task_switching","{""addition_ans"":""90""}","experiment","87","addition","90","true","add","","","","","","","","","","","","","","","","","","","","","","","","","","","","","",""
"","","","","","survey-text","38","152583","0.0-38.0","A2WX434EAQOE29","2022-05-26T23:54:42.253Z","task_switching-rhyme-phon_sim-same_different","","3173.0999999046326","task_switching","{""addition_ans"":""79""}","experiment","76","addition","79","true","add","","","","","","","","","","","","","","","","","","","","","","","","","","","","","",""
"","","","","","survey-text","39","155258","0.0-39.0","A2WX434EAQOE29","2022-05-26T23:54:42.253Z","task_switching-rhyme-phon_sim-same_different","","2673.2999999523163","task_switching","{""addition_ans"":""50""}","experiment","47","addition","50","true","add","","","","","","","","","","","","","","","","","","","","","","","","","","","","","",""
"","","","","","survey-text","40","158321","0.0-40.0","A2WX434EAQOE29","2022-05-26T23:54:42.253Z","task_switching-rhyme-phon_sim-same_different","","3061.2000000476837","task_switching","{""addition_ans"":""36""}","experiment","33","addition","36","true","add","","","","","","","","","","","","","","","","","","","","","","","","","","","","","",""
"","","","","","survey-text","41","161308","0.0-41.0","A2WX434EAQOE29","2022-05-26T23:54:42.253Z","task_switching-rhyme-phon_sim-same_different","","2985.0999999046326","task_switching","{""addition_ans"":""38""}","experiment","35","addition","38","true","add","","","","","","","","","","","","","","","","","","","","","","","","","","","","","",""
"","","","","","survey-text","42","164489","0.0-42.0","A2WX434EAQOE29","2022-05-26T23:54:42.253Z","task_switching-rhyme-phon_sim-same_different","","3179.4000000953674","task_switching","{""addition_ans"":""18""}","experiment","15","addition","18","true","add","","","","","","","","","","","","","","","","","","","","","","","","","","","","","",""
"","","","","","survey-text","43","167267","0.0-43.0","A2WX434EAQOE29","2022-05-26T23:54:42.253Z","task_switching-rhyme-phon_sim-same_different","","2775.800000190735","task_switching","{""addition_ans"":""64""}","experiment","61","addition","64","true","add","","","","","","","","","","","","","","","","","","","","","","","","","","","","","",""
"","","","","","survey-text","44","170402","0.0-44.0","A2WX434EAQOE29","2022-05-26T23:54:42.253Z","task_switching-rhyme-phon_sim-same_different","","3133.0999999046326","task_switching","{""addition_ans"":""14""}","experiment","11","addition","14","true","add","","","","","","","","","","","","","","","","","","","","","","","","","","","","","",""
"","","","","","survey-text","45","173484","0.0-45.0","A2WX434EAQOE29","2022-05-26T23:54:42.253Z","task_switching-rhyme-phon_sim-same_different","","3079.899999856949","task_switching","{""addition_ans"":""74""}","experiment","71","addition","74","true","add","","","","","","","","","","","","","","","","","","","","","","","","","","","","","",""
"","","","","","survey-text","46","176444","0.0-46.0","A2WX434EAQOE29","2022-05-26T23:54:42.253Z","task_switching-rhyme-phon_sim-same_different","","2958.100000143051","task_switching","{""addition_ans"":""20""}","experiment","17","addition","20","true","add","","","","","","","","","","","","","","","","","","","","","","","","","","","","","",""
"","","","","","survey-text","47","179384","0.0-47.0","A2WX434EAQOE29","2022-05-26T23:54:42.253Z","task_switching-rhyme-phon_sim-same_different","","2938.2000000476837","task_switching","{""addition_ans"":""40""}","experiment","37","addition","40","true","add","","","","","","","","","","","","","","","","","","","","","","","","","","","","","",""
"","","","","","survey-text","48","182748","0.0-48.0","A2WX434EAQOE29","2022-05-26T23:54:42.253Z","task_switching-rhyme-phon_sim-same_different","","3362.0999999046326","task_switching","{""addition_ans"":""89""}","experiment","86","addition","89","true","add","","","","","","","","","","","","","","","","","","","","","","","","","","","","","",""
"","","","","","survey-text","49","185763","0.0-49.0","A2WX434EAQOE29","2022-05-26T23:54:42.253Z","task_switching-rhyme-phon_sim-same_different","","3013.7000000476837","task_switching","{""addition_ans"":""48""}","experiment","45","addition","48","true","add","","","","","","","","","","","","","","","","","","","","","","","","","","","","","",""
"","","","","","survey-text","50","188589","0.0-50.0","A2WX434EAQOE29","2022-05-26T23:54:42.253Z","task_switching-rhyme-phon_sim-same_different","","2824.100000143051","task_switching","{""addition_ans"":""33""}","experiment","30","addition","33","true","add","","","","","","","","","","","","","","","","","","","","","","","","","","","","","",""
"","","","","","survey-text","51","192225","0.0-51.0","A2WX434EAQOE29","2022-05-26T23:54:42.253Z","task_switching-rhyme-phon_sim-same_different","","3634.0999999046326","task_switching","{""addition_ans"":""22""}","experiment","19","addition","22","true","add","","","","","","","","","","","","","","","","","","","","","","","","","","","","","",""
"","","","","","survey-text","52","195878","0.0-52.0","A2WX434EAQOE29","2022-05-26T23:54:42.253Z","task_switching-rhyme-phon_sim-same_different","","3651","task_switching","{""addition_ans"":""94""}","experiment","91","addition","94","true","add","","","","","","","","","","","","","","","","","","","","","","","","","","","","","",""
"","","","","","survey-text","53","199267","0.0-53.0","A2WX434EAQOE29","2022-05-26T23:54:42.253Z","task_switching-rhyme-phon_sim-same_different","","3387.0999999046326","task_switching","{""addition_ans"":""43""}","experiment","40","addition","43","true","add","","","","","","","","","","","","","","","","","","","","","","","","","","","","","",""
"","","","","","survey-text","54","202258","0.0-54.0","A2WX434EAQOE29","2022-05-26T23:54:42.253Z","task_switching-rhyme-phon_sim-same_different","","2989.2999999523163","task_switching","{""addition_ans"":""72""}","experiment","69","addition","72","true","add","","","","","","","","","","","","","","","","","","","","","","","","","","","","","",""
"","","","","","survey-text","55","206317","0.0-55.0","A2WX434EAQOE29","2022-05-26T23:54:42.253Z","task_switching-rhyme-phon_sim-same_different","","4056.7000000476837","task_switching","{""addition_ans"":""27""}","experiment","24","addition","27","true","add","","","","","","","","","","","","","","","","","","","","","","","","","","","","","",""
"","","","","","instructions","56","212672","0.0-56.0","A2WX434EAQOE29","2022-05-26T23:54:42.253Z","task_switching-rhyme-phon_sim-same_different","[{""page_index"":0,""viewing_time"":6354}]","6354.299999952316","task_switching","","","","","","","","","","","","","","","","","","","","","","","","","","","","","","","","","","","","",""
"","","","","","survey-text","57","216100","0.0-57.0","A2WX434EAQOE29","2022-05-26T23:54:42.253Z","task_switching-rhyme-phon_sim-same_different","","3426.2999999523163","task_switching","{""subtraction_ans"":""86""}","training","89","subtraction","86","true","subtract","","","","","","","","","","","","","","","","","","","","","","","","","","","","","",""
"","","","","","html-keyboard-response","58","217102","0.0-58.0","A2WX434EAQOE29","2022-05-26T23:54:42.253Z","task_switching-rhyme-phon_sim-same_different","","null","task_switching","null","training","<div style=""color:darkgreen; font-size:60px"">Well done!</div>","subtraction","","","","","","","","","","","","","","","","","","","","","","","","","","","","","","","","",""
"","","","","","survey-text","59","219986","0.0-59.0","A2WX434EAQOE29","2022-05-26T23:54:42.253Z","task_switching-rhyme-phon_sim-same_different","","2881.7999999523163","task_switching","{""subtraction_ans"":""17""}","training","20","subtraction","17","true","subtract","","","","","","","","","","","","","","","","","","","","","","","","","","","","","",""
"","","","","","html-keyboard-response","60","220988","0.0-60.0","A2WX434EAQOE29","2022-05-26T23:54:42.253Z","task_switching-rhyme-phon_sim-same_different","","null","task_switching","null","training","<div style=""color:darkgreen; font-size:60px"">Well done!</div>","subtraction","","","","","","","","","","","","","","","","","","","","","","","","","","","","","","","","",""
"","","","","","survey-text","61","224332","0.0-61.0","A2WX434EAQOE29","2022-05-26T23:54:42.253Z","task_switching-rhyme-phon_sim-same_different","","3341.2000000476837","task_switching","{""subtraction_ans"":""89""}","training","92","subtraction","89","true","subtract","","","","","","","","","","","","","","","","","","","","","","","","","","","","","",""
"","","","","","html-keyboard-response","62","225334","0.0-62.0","A2WX434EAQOE29","2022-05-26T23:54:42.253Z","task_switching-rhyme-phon_sim-same_different","","null","task_switching","null","training","<div style=""color:darkgreen; font-size:60px"">Well done!</div>","subtraction","","","","","","","","","","","","","","","","","","","","","","","","","","","","","","","","",""
"","","","","","survey-text","63","229951","0.0-63.0","A2WX434EAQOE29","2022-05-26T23:54:42.253Z","task_switching-rhyme-phon_sim-same_different","","4614.400000095367","task_switching","{""subtraction_ans"":""58""}","training","61","subtraction","58","true","subtract","","","","","","","","","","","","","","","","","","","","","","","","","","","","","",""
"","","","","","html-keyboard-response","64","230953","0.0-64.0","A2WX434EAQOE29","2022-05-26T23:54:42.253Z","task_switching-rhyme-phon_sim-same_different","","null","task_switching","null","training","<div style=""color:darkgreen; font-size:60px"">Well done!</div>","subtraction","","","","","","","","","","","","","","","","","","","","","","","","","","","","","","","","",""
"","","","","","survey-text","65","234279","0.0-65.0","A2WX434EAQOE29","2022-05-26T23:54:42.253Z","task_switching-rhyme-phon_sim-same_different","","3323.5999999046326","task_switching","{""subtraction_ans"":""18""}","training","21","subtraction","18","true","subtract","","","","","","","","","","","","","","","","","","","","","","","","","","","","","",""
"","","","","","html-keyboard-response","66","235281","0.0-66.0","A2WX434EAQOE29","2022-05-26T23:54:42.253Z","task_switching-rhyme-phon_sim-same_different","","null","task_switching","null","training","<div style=""color:darkgreen; font-size:60px"">Well done!</div>","subtraction","","","","","","","","","","","","","","","","","","","","","","","","","","","","","","","","",""
"","","","","","survey-text","67","241197","0.0-67.0","A2WX434EAQOE29","2022-05-26T23:54:42.253Z","task_switching-rhyme-phon_sim-same_different","","5913.299999952316","task_switching","{""subtraction_ans"":""48""}","training","51","subtraction","48","true","subtract","","","","","","","","","","","","","","","","","","","","","","","","","","","","","",""
"","","","","","html-keyboard-response","68","242198","0.0-68.0","A2WX434EAQOE29","2022-05-26T23:54:42.253Z","task_switching-rhyme-phon_sim-same_different","","null","task_switching","null","training","<div style=""color:darkgreen; font-size:60px"">Well done!</div>","subtraction","","","","","","","","","","","","","","","","","","","","","","","","","","","","","","","","",""
"","","","","","survey-text","69","245471","0.0-69.0","A2WX434EAQOE29","2022-05-26T23:54:42.253Z","task_switching-rhyme-phon_sim-same_different","","3270.5","task_switching","{""subtraction_ans"":""62""}","training","65","subtraction","62","true","subtract","","","","","","","","","","","","","","","","","","","","","","","","","","","","","",""
"","","","","","html-keyboard-response","70","246473","0.0-70.0","A2WX434EAQOE29","2022-05-26T23:54:42.253Z","task_switching-rhyme-phon_sim-same_different","","null","task_switching","null","training","<div style=""color:darkgreen; font-size:60px"">Well done!</div>","subtraction","","","","","","","","","","","","","","","","","","","","","","","","","","","","","","","","",""
"","","","","","survey-text","71","249769","0.0-71.0","A2WX434EAQOE29","2022-05-26T23:54:42.253Z","task_switching-rhyme-phon_sim-same_different","","3293.2000000476837","task_switching","{""subtraction_ans"":""92""}","training","95","subtraction","92","true","subtract","","","","","","","","","","","","","","","","","","","","","","","","","","","","","",""
"","","","","","html-keyboard-response","72","250771","0.0-72.0","A2WX434EAQOE29","2022-05-26T23:54:42.253Z","task_switching-rhyme-phon_sim-same_different","","null","task_switching","null","training","<div style=""color:darkgreen; font-size:60px"">Well done!</div>","subtraction","","","","","","","","","","","","","","","","","","","","","","","","","","","","","","","","",""
"","","","","","survey-text","73","253901","0.0-73.0","A2WX434EAQOE29","2022-05-26T23:54:42.253Z","task_switching-rhyme-phon_sim-same_different","","3127.7000000476837","task_switching","{""subtraction_ans"":""82""}","training","85","subtraction","82","true","subtract","","","","","","","","","","","","","","","","","","","","","","","","","","","","","",""
"","","","","","html-keyboard-response","74","254903","0.0-74.0","A2WX434EAQOE29","2022-05-26T23:54:42.253Z","task_switching-rhyme-phon_sim-same_different","","null","task_switching","null","training","<div style=""color:darkgreen; font-size:60px"">Well done!</div>","subtraction","","","","","","","","","","","","","","","","","","","","","","","","","","","","","","","","",""
"","","","","","survey-text","75","257963","0.0-75.0","A2WX434EAQOE29","2022-05-26T23:54:42.253Z","task_switching-rhyme-phon_sim-same_different","","3057.2999999523163","task_switching","{""subtraction_ans"":""57""}","training","60","subtraction","57","true","subtract","","","","","","","","","","","","","","","","","","","","","","","","","","","","","",""
"","","","","","html-keyboard-response","76","258965","0.0-76.0","A2WX434EAQOE29","2022-05-26T23:54:42.253Z","task_switching-rhyme-phon_sim-same_different","","null","task_switching","null","training","<div style=""color:darkgreen; font-size:60px"">Well done!</div>","subtraction","","","","","","","","","","","","","","","","","","","","","","","","","","","","","","","","",""
"","","","","","instructions","77","261198","0.0-77.0","A2WX434EAQOE29","2022-05-26T23:54:42.253Z","task_switching-rhyme-phon_sim-same_different","[{""page_index"":0,""viewing_time"":2232.9000000953674}]","2233.0999999046326","task_switching","","","","","","","","","","","","","","","","","","","","","","","","","","","","","","","","","","","","",""
"","","","","","survey-text","78","264355","0.0-78.0","A2WX434EAQOE29","2022-05-26T23:54:42.253Z","task_switching-rhyme-phon_sim-same_different","","3154.5","task_switching","{""subtraction_ans"":""93""}","experiment","96","subtraction","93","true","subtract","","","","","","","","","","","","","","","","","","","","","","","","","","","","","",""
"","","","","","survey-text","79","267534","0.0-79.0","A2WX434EAQOE29","2022-05-26T23:54:42.253Z","task_switching-rhyme-phon_sim-same_different","","3176.7000000476837","task_switching","{""subtraction_ans"":""73""}","experiment","76","subtraction","73","true","subtract","","","","","","","","","","","","","","","","","","","","","","","","","","","","","",""
"","","","","","survey-text","80","270749","0.0-80.0","A2WX434EAQOE29","2022-05-26T23:54:42.253Z","task_switching-rhyme-phon_sim-same_different","","3213.199999809265","task_switching","{""subtraction_ans"":""48""}","experiment","51","subtraction","48","true","subtract","","","","","","","","","","","","","","","","","","","","","","","","","","","","","",""
"","","","","","survey-text","81","273545","0.0-81.0","A2WX434EAQOE29","2022-05-26T23:54:42.253Z","task_switching-rhyme-phon_sim-same_different","","2793.9000000953674","task_switching","{""subtraction_ans"":""12""}","experiment","15","subtraction","12","true","subtract","","","","","","","","","","","","","","","","","","","","","","","","","","","","","",""
"","","","","","survey-text","82","276627","0.0-82.0","A2WX434EAQOE29","2022-05-26T23:54:42.253Z","task_switching-rhyme-phon_sim-same_different","","3080.100000143051","task_switching","{""subtraction_ans"":""87""}","experiment","90","subtraction","87","true","subtract","","","","","","","","","","","","","","","","","","","","","","","","","","","","","",""
"","","","","","survey-text","83","280362","0.0-83.0","A2WX434EAQOE29","2022-05-26T23:54:42.253Z","task_switching-rhyme-phon_sim-same_different","","3733","task_switching","{""subtraction_ans"":""26""}","experiment","29","subtraction","26","true","subtract","","","","","","","","","","","","","","","","","","","","","","","","","","","","","",""
"","","","","","survey-text","84","283421","0.0-84.0","A2WX434EAQOE29","2022-05-26T23:54:42.253Z","task_switching-rhyme-phon_sim-same_different","","3056.9000000953674","task_switching","{""subtraction_ans"":""77""}","experiment","80","subtraction","77","true","subtract","","","","","","","","","","","","","","","","","","","","","","","","","","","","","",""
"","","","","","survey-text","85","286384","0.0-85.0","A2WX434EAQOE29","2022-05-26T23:54:42.253Z","task_switching-rhyme-phon_sim-same_different","","2960.9000000953674","task_switching","{""subtraction_ans"":""42""}","experiment","45","subtraction","42","true","subtract","","","","","","","","","","","","","","","","","","","","","","","","","","","","","",""
"","","","","","survey-text","86","290069","0.0-86.0","A2WX434EAQOE29","2022-05-26T23:54:42.253Z","task_switching-rhyme-phon_sim-same_different","","3683.4000000953674","task_switching","{""subtraction_ans"":""81""}","experiment","84","subtraction","81","true","subtract","","","","","","","","","","","","","","","","","","","","","","","","","","","","","",""
"","","","","","survey-text","87","293068","0.0-87.0","A2WX434EAQOE29","2022-05-26T23:54:42.253Z","task_switching-rhyme-phon_sim-same_different","","2997.2000000476837","task_switching","{""subtraction_ans"":""80""}","experiment","83","subtraction","80","true","subtract","","","","","","","","","","","","","","","","","","","","","","","","","","","","","",""
"","","","","","survey-text","88","296517","0.0-88.0","A2WX434EAQOE29","2022-05-26T23:54:42.253Z","task_switching-rhyme-phon_sim-same_different","","3447.2999999523163","task_switching","{""subtraction_ans"":""78""}","experiment","81","subtraction","78","true","subtract","","","","","","","","","","","","","","","","","","","","","","","","","","","","","",""
"","","","","","survey-text","89","299660","0.0-89.0","A2WX434EAQOE29","2022-05-26T23:54:42.253Z","task_switching-rhyme-phon_sim-same_different","","3141","task_switching","{""subtraction_ans"":""50""}","experiment","53","subtraction","50","true","subtract","","","","","","","","","","","","","","","","","","","","","","","","","","","","","",""
"","","","","","survey-text","90","302748","0.0-90.0","A2WX434EAQOE29","2022-05-26T23:54:42.253Z","task_switching-rhyme-phon_sim-same_different","","3086.2999999523163","task_switching","{""subtraction_ans"":""19""}","experiment","22","subtraction","19","true","subtract","","","","","","","","","","","","","","","","","","","","","","","","","","","","","",""
"","","","","","survey-text","91","306382","0.0-91.0","A2WX434EAQOE29","2022-05-26T23:54:42.253Z","task_switching-rhyme-phon_sim-same_different","","3631.7999999523163","task_switching","{""subtraction_ans"":""91""}","experiment","94","subtraction","91","true","subtract","","","","","","","","","","","","","","","","","","","","","","","","","","","","","",""
"","","","","","survey-text","92","309624","0.0-92.0","A2WX434EAQOE29","2022-05-26T23:54:42.253Z","task_switching-rhyme-phon_sim-same_different","","3240.0999999046326","task_switching","{""subtraction_ans"":""43""}","experiment","46","subtraction","43","true","subtract","","","","","","","","","","","","","","","","","","","","","","","","","","","","","",""
"","","","","","survey-text","93","313112","0.0-93.0","A2WX434EAQOE29","2022-05-26T23:54:42.253Z","task_switching-rhyme-phon_sim-same_different","","3486.2999999523163","task_switching","{""subtraction_ans"":""94""}","experiment","97","subtraction","94","true","subtract","","","","","","","","","","","","","","","","","","","","","","","","","","","","","",""
"","","","","","survey-text","94","315979","0.0-94.0","A2WX434EAQOE29","2022-05-26T23:54:42.253Z","task_switching-rhyme-phon_sim-same_different","","2865","task_switching","{""subtraction_ans"":""55""}","experiment","58","subtraction","55","true","subtract","","","","","","","","","","","","","","","","","","","","","","","","","","","","","",""
"","","","","","survey-text","95","319046","0.0-95.0","A2WX434EAQOE29","2022-05-26T23:54:42.253Z","task_switching-rhyme-phon_sim-same_different","","3065","task_switching","{""subtraction_ans"":""88""}","experiment","91","subtraction","88","true","subtract","","","","","","","","","","","","","","","","","","","","","","","","","","","","","",""
"","","","","","survey-text","96","322130","0.0-96.0","A2WX434EAQOE29","2022-05-26T23:54:42.253Z","task_switching-rhyme-phon_sim-same_different","","3082.0999999046326","task_switching","{""subtraction_ans"":""29""}","experiment","32","subtraction","29","true","subtract","","","","","","","","","","","","","","","","","","","","","","","","","","","","","",""
"","","","","","survey-text","97","325067","0.0-97.0","A2WX434EAQOE29","2022-05-26T23:54:42.253Z","task_switching-rhyme-phon_sim-same_different","","2934.800000190735","task_switching","{""subtraction_ans"":""32""}","experiment","35","subtraction","32","true","subtract","","","","","","","","","","","","","","","","","","","","","","","","","","","","","",""
"","","","","","survey-text","98","328039","0.0-98.0","A2WX434EAQOE29","2022-05-26T23:54:42.253Z","task_switching-rhyme-phon_sim-same_different","","2970.2999999523163","task_switching","{""subtraction_ans"":""68""}","experiment","71","subtraction","68","true","subtract","","","","","","","","","","","","","","","","","","","","","","","","","","","","","",""
"","","","","","survey-text","99","330869","0.0-99.0","A2WX434EAQOE29","2022-05-26T23:54:42.253Z","task_switching-rhyme-phon_sim-same_different","","2827.9000000953674","task_switching","{""subtraction_ans"":""25""}","experiment","28","subtraction","25","true","subtract","","","","","","","","","","","","","","","","","","","","","","","","","","","","","",""
"","","","","","survey-text","100","333874","0.0-100.0","A2WX434EAQOE29","2022-05-26T23:54:42.253Z","task_switching-rhyme-phon_sim-same_different","","3002.9000000953674","task_switching","{""subtraction_ans"":""23""}","experiment","26","subtraction","23","true","subtract","","","","","","","","","","","","","","","","","","","","","","","","","","","","","",""
"","","","","","survey-text","101","337369","0.0-101.0","A2WX434EAQOE29","2022-05-26T23:54:42.253Z","task_switching-rhyme-phon_sim-same_different","","3493.399999856949","task_switching","{""subtraction_ans"":""16""}","experiment","19","subtraction","16","true","subtract","","","","","","","","","","","","","","","","","","","","","","","","","","","","","",""
"","","","","","survey-text","102","340491","0.0-102.0","A2WX434EAQOE29","2022-05-26T23:54:42.253Z","task_switching-rhyme-phon_sim-same_different","","3119.399999856949","task_switching","{""subtraction_ans"":""59""}","experiment","62","subtraction","59","true","subtract","","","","","","","","","","","","","","","","","","","","","","","","","","","","","",""
"","","","","","survey-text","103","342980","0.0-103.0","A2WX434EAQOE29","2022-05-26T23:54:42.253Z","task_switching-rhyme-phon_sim-same_different","","2487.4000000953674","task_switching","{""subtraction_ans"":""22""}","experiment","25","subtraction","22","true","subtract","","","","","","","","","","","","","","","","","","","","","","","","","","","","","",""
"","","","","","survey-text","104","346077","0.0-104.0","A2WX434EAQOE29","2022-05-26T23:54:42.253Z","task_switching-rhyme-phon_sim-same_different","","3095.2000000476837","task_switching","{""subtraction_ans"":""76""}","experiment","79","subtraction","76","true","subtract","","","","","","","","","","","","","","","","","","","","","","","","","","","","","",""
"","","","","","survey-text","105","348935","0.0-105.0","A2WX434EAQOE29","2022-05-26T23:54:42.253Z","task_switching-rhyme-phon_sim-same_different","","2856.100000143051","task_switching","{""subtraction_ans"":""47""}","experiment","50","subtraction","47","true","subtract","","","","","","","","","","","","","","","","","","","","","","","","","","","","","",""
"","","","","","survey-text","106","351943","0.0-106.0","A2WX434EAQOE29","2022-05-26T23:54:42.253Z","task_switching-rhyme-phon_sim-same_different","","3006.2000000476837","task_switching","{""subtraction_ans"":""83""}","experiment","86","subtraction","83","true","subtract","","","","","","","","","","","","","","","","","","","","","","","","","","","","","",""
"","","","","","survey-text","107","356125","0.0-107.0","A2WX434EAQOE29","2022-05-26T23:54:42.253Z","task_switching-rhyme-phon_sim-same_different","","4180.400000095367","task_switching","{""subtraction_ans"":""74""}","experiment","77","subtraction","74","true","subtract","","","","","","","","","","","","","","","","","","","","","","","","","","","","","",""
"","","","","","instructions","108","369365","0.0-108.0","A2WX434EAQOE29","2022-05-26T23:54:42.253Z","task_switching-rhyme-phon_sim-same_different","[{""page_index"":0,""viewing_time"":13238.900000095367}]","13239.100000143051","task_switching","","","","","","","","","","","","","","","","","","","","","","","","","","","","","","","","","","","","",""
"","","","","","survey-text","109","372685","0.0-109.0","A2WX434EAQOE29","2022-05-26T23:54:42.253Z","task_switching-rhyme-phon_sim-same_different","","3318","task_switching","{""colorcue_switch_ans"":""49""}","training","46","colorcue_switch","49","true","add","red","0","","","","","","","","","","","","","","","","","","","","","","","","","","","",""
"","","","","","html-keyboard-response","110","373688","0.0-110.0","A2WX434EAQOE29","2022-05-26T23:54:42.253Z","task_switching-rhyme-phon_sim-same_different","","null","task_switching","null","training","<div style=""color:darkgreen; font-size:60px"">Well done!</div>","colorcue_switch","","","","","","","","","","","","","","","","","","","","","","","","","","","","","","","","",""
"","","","","","survey-text","111","376775","0.0-111.0","A2WX434EAQOE29","2022-05-26T23:54:42.253Z","task_switching-rhyme-phon_sim-same_different","","3084.100000143051","task_switching","{""colorcue_switch_ans"":""74""}","training","77","colorcue_switch","74","true","subtract","blue","1","","","","","","","","","","","","","","","","","","","","","","","","","","","",""
"","","","","","html-keyboard-response","112","377777","0.0-112.0","A2WX434EAQOE29","2022-05-26T23:54:42.253Z","task_switching-rhyme-phon_sim-same_different","","null","task_switching","null","training","<div style=""color:darkgreen; font-size:60px"">Well done!</div>","colorcue_switch","","","","","","","","","","","","","","","","","","","","","","","","","","","","","","","","",""
"","","","","","survey-text","113","382709","0.0-113.0","A2WX434EAQOE29","2022-05-26T23:54:42.253Z","task_switching-rhyme-phon_sim-same_different","","4930.5","task_switching","{""colorcue_switch_ans"":""73""}","training","70","colorcue_switch","73","true","add","red","2","","","","","","","","","","","","","","","","","","","","","","","","","","","",""
"","","","","","html-keyboard-response","114","383711","0.0-114.0","A2WX434EAQOE29","2022-05-26T23:54:42.253Z","task_switching-rhyme-phon_sim-same_different","","null","task_switching","null","training","<div style=""color:darkgreen; font-size:60px"">Well done!</div>","colorcue_switch","","","","","","","","","","","","","","","","","","","","","","","","","","","","","","","","",""
"","","","","","survey-text","115","387894","0.0-115.0","A2WX434EAQOE29","2022-05-26T23:54:42.253Z","task_switching-rhyme-phon_sim-same_different","","4180.199999809265","task_switching","{""colorcue_switch_ans"":""59""}","training","62","colorcue_switch","59","true","subtract","blue","3","","","","","","","","","","","","","","","","","","","","","","","","","","","",""
"","","","","","html-keyboard-response","116","388896","0.0-116.0","A2WX434EAQOE29","2022-05-26T23:54:42.253Z","task_switching-rhyme-phon_sim-same_different","","null","task_switching","null","training","<div style=""color:darkgreen; font-size:60px"">Well done!</div>","colorcue_switch","","","","","","","","","","","","","","","","","","","","","","","","","","","","","","","","",""
"","","","","","survey-text","117","391842","0.0-117.0","A2WX434EAQOE29","2022-05-26T23:54:42.253Z","task_switching-rhyme-phon_sim-same_different","","2943.2999999523163","task_switching","{""colorcue_switch_ans"":""90""}","training","87","colorcue_switch","90","true","add","red","4","","","","","","","","","","","","","","","","","","","","","","","","","","","",""
"","","","","","html-keyboard-response","118","392844","0.0-118.0","A2WX434EAQOE29","2022-05-26T23:54:42.253Z","task_switching-rhyme-phon_sim-same_different","","null","task_switching","null","training","<div style=""color:darkgreen; font-size:60px"">Well done!</div>","colorcue_switch","","","","","","","","","","","","","","","","","","","","","","","","","","","","","","","","",""
"","","","","","survey-text","119","396307","0.0-119.0","A2WX434EAQOE29","2022-05-26T23:54:42.253Z","task_switching-rhyme-phon_sim-same_different","","3460.4000000953674","task_switching","{""colorcue_switch_ans"":""81""}","training","84","colorcue_switch","81","true","subtract","blue","5","","","","","","","","","","","","","","","","","","","","","","","","","","","",""
"","","","","","html-keyboard-response","120","397314","0.0-120.0","A2WX434EAQOE29","2022-05-26T23:54:42.253Z","task_switching-rhyme-phon_sim-same_different","","null","task_switching","null","training","<div style=""color:darkgreen; font-size:60px"">Well done!</div>","colorcue_switch","","","","","","","","","","","","","","","","","","","","","","","","","","","","","","","","",""
"","","","","","survey-text","121","400146","0.0-121.0","A2WX434EAQOE29","2022-05-26T23:54:42.253Z","task_switching-rhyme-phon_sim-same_different","","2828.5","task_switching","{""colorcue_switch_ans"":""44""}","training","41","colorcue_switch","44","true","add","red","6","","","","","","","","","","","","","","","","","","","","","","","","","","","",""
"","","","","","html-keyboard-response","122","401147","0.0-122.0","A2WX434EAQOE29","2022-05-26T23:54:42.253Z","task_switching-rhyme-phon_sim-same_different","","null","task_switching","null","training","<div style=""color:darkgreen; font-size:60px"">Well done!</div>","colorcue_switch","","","","","","","","","","","","","","","","","","","","","","","","","","","","","","","","",""
"","","","","","survey-text","123","404100","0.0-123.0","A2WX434EAQOE29","2022-05-26T23:54:42.253Z","task_switching-rhyme-phon_sim-same_different","","2949.9000000953674","task_switching","{""colorcue_switch_ans"":""89""}","training","92","colorcue_switch","89","true","subtract","blue","7","","","","","","","","","","","","","","","","","","","","","","","","","","","",""
"","","","","","html-keyboard-response","124","405101","0.0-124.0","A2WX434EAQOE29","2022-05-26T23:54:42.253Z","task_switching-rhyme-phon_sim-same_different","","null","task_switching","null","training","<div style=""color:darkgreen; font-size:60px"">Well done!</div>","colorcue_switch","","","","","","","","","","","","","","","","","","","","","","","","","","","","","","","","",""
"","","","","","survey-text","125","407762","0.0-125.0","A2WX434EAQOE29","2022-05-26T23:54:42.253Z","task_switching-rhyme-phon_sim-same_different","","2657.7000000476837","task_switching","{""colorcue_switch_ans"":""81""}","training","78","colorcue_switch","81","true","add","red","8","","","","","","","","","","","","","","","","","","","","","","","","","","","",""
"","","","","","html-keyboard-response","126","408769","0.0-126.0","A2WX434EAQOE29","2022-05-26T23:54:42.253Z","task_switching-rhyme-phon_sim-same_different","","null","task_switching","null","training","<div style=""color:darkgreen; font-size:60px"">Well done!</div>","colorcue_switch","","","","","","","","","","","","","","","","","","","","","","","","","","","","","","","","",""
"","","","","","survey-text","127","412726","0.0-127.0","A2WX434EAQOE29","2022-05-26T23:54:42.253Z","task_switching-rhyme-phon_sim-same_different","","3954","task_switching","{""colorcue_switch_ans"":""50""}","training","53","colorcue_switch","50","true","subtract","blue","9","","","","","","","","","","","","","","","","","","","","","","","","","","","",""
"","","","","","html-keyboard-response","128","413727","0.0-128.0","A2WX434EAQOE29","2022-05-26T23:54:42.253Z","task_switching-rhyme-phon_sim-same_different","","null","task_switching","null","training","<div style=""color:darkgreen; font-size:60px"">Well done!</div>","colorcue_switch","","","","","","","","","","","","","","","","","","","","","","","","","","","","","","","","",""
"","","","","","instructions","129","415256","0.0-129.0","A2WX434EAQOE29","2022-05-26T23:54:42.253Z","task_switching-rhyme-phon_sim-same_different","[{""page_index"":0,""viewing_time"":1528.2999999523163}]","1528.5","task_switching","","","","","","","","","","","","","","","","","","","","","","","","","","","","","","","","","","","","",""
"","","","","","survey-text","130","418072","0.0-130.0","A2WX434EAQOE29","2022-05-26T23:54:42.253Z","task_switching-rhyme-phon_sim-same_different","","2813.5","task_switching","{""colorcue_switch_ans"":""98""}","experiment","95","colorcue_switch","98","true","add","red","0","","","","","","","","","","","","","","","","","","","","","","","","","","","",""
"","","","","","survey-text","131","421850","0.0-131.0","A2WX434EAQOE29","2022-05-26T23:54:42.253Z","task_switching-rhyme-phon_sim-same_different","","3775.7999999523163","task_switching","{""colorcue_switch_ans"":""29""}","experiment","32","colorcue_switch","29","true","subtract","blue","1","","","","","","","","","","","","","","","","","","","","","","","","","","","",""
"","","","","","survey-text","132","424995","0.0-132.0","A2WX434EAQOE29","2022-05-26T23:54:42.253Z","task_switching-rhyme-phon_sim-same_different","","3143.100000143051","task_switching","{""colorcue_switch_ans"":""92""}","experiment","89","colorcue_switch","92","true","add","red","2","","","","","","","","","","","","","","","","","","","","","","","","","","","",""
"","","","","","survey-text","133","428050","0.0-133.0","A2WX434EAQOE29","2022-05-26T23:54:42.253Z","task_switching-rhyme-phon_sim-same_different","","3052.600000143051","task_switching","{""colorcue_switch_ans"":""11""}","experiment","14","colorcue_switch","11","true","subtract","blue","3","","","","","","","","","","","","","","","","","","","","","","","","","","","",""
"","","","","","survey-text","134","431641","0.0-134.0","A2WX434EAQOE29","2022-05-26T23:54:42.253Z","task_switching-rhyme-phon_sim-same_different","","3588.899999856949","task_switching","{""colorcue_switch_ans"":""68""}","experiment","65","colorcue_switch","68","true","add","red","4","","","","","","","","","","","","","","","","","","","","","","","","","","","",""
"","","","","","survey-text","135","435451","0.0-135.0","A2WX434EAQOE29","2022-05-26T23:54:42.253Z","task_switching-rhyme-phon_sim-same_different","","3808","task_switching","{""colorcue_switch_ans"":""48""}","experiment","51","colorcue_switch","48","true","subtract","blue","5","","","","","","","","","","","","","","","","","","","","","","","","","","","",""
"","","","","","survey-text","136","438457","0.0-136.0","A2WX434EAQOE29","2022-05-26T23:54:42.253Z","task_switching-rhyme-phon_sim-same_different","","3004.2000000476837","task_switching","{""colorcue_switch_ans"":""45""}","experiment","42","colorcue_switch","45","true","add","red","6","","","","","","","","","","","","","","","","","","","","","","","","","","","",""
"","","","","","survey-text","137","441508","0.0-137.0","A2WX434EAQOE29","2022-05-26T23:54:42.253Z","task_switching-rhyme-phon_sim-same_different","","3049.199999809265","task_switching","{""colorcue_switch_ans"":""74""}","experiment","77","colorcue_switch","74","true","subtract","blue","7","","","","","","","","","","","","","","","","","","","","","","","","","","","",""
"","","","","","survey-text","138","443975","0.0-138.0","A2WX434EAQOE29","2022-05-26T23:54:42.253Z","task_switching-rhyme-phon_sim-same_different","","2464.2000000476837","task_switching","{""colorcue_switch_ans"":""48""}","experiment","45","colorcue_switch","48","true","add","red","8","","","","","","","","","","","","","","","","","","","","","","","","","","","",""
"","","","","","survey-text","139","447160","0.0-139.0","A2WX434EAQOE29","2022-05-26T23:54:42.253Z","task_switching-rhyme-phon_sim-same_different","","3183.7999999523163","task_switching","{""colorcue_switch_ans"":""53""}","experiment","56","colorcue_switch","53","true","subtract","blue","9","","","","","","","","","","","","","","","","","","","","","","","","","","","",""
"","","","","","survey-text","140","451350","0.0-140.0","A2WX434EAQOE29","2022-05-26T23:54:42.253Z","task_switching-rhyme-phon_sim-same_different","","4188.099999904633","task_switching","{""colorcue_switch_ans"":""61""}","experiment","58","colorcue_switch","61","true","add","red","10","","","","","","","","","","","","","","","","","","","","","","","","","","","",""
"","","","","","survey-text","141","454565","0.0-141.0","A2WX434EAQOE29","2022-05-26T23:54:42.253Z","task_switching-rhyme-phon_sim-same_different","","3212.9000000953674","task_switching","{""colorcue_switch_ans"":""49""}","experiment","52","colorcue_switch","49","true","subtract","blue","11","","","","","","","","","","","","","","","","","","","","","","","","","","","",""
"","","","","","survey-text","142","457237","0.0-142.0","A2WX434EAQOE29","2022-05-26T23:54:42.253Z","task_switching-rhyme-phon_sim-same_different","","2669.0999999046326","task_switching","{""colorcue_switch_ans"":""65""}","experiment","62","colorcue_switch","65","true","add","red","12","","","","","","","","","","","","","","","","","","","","","","","","","","","",""
"","","","","","survey-text","143","460743","0.0-143.0","A2WX434EAQOE29","2022-05-26T23:54:42.253Z","task_switching-rhyme-phon_sim-same_different","","3505","task_switching","{""colorcue_switch_ans"":""36""}","experiment","39","colorcue_switch","36","true","subtract","blue","13","","","","","","","","","","","","","","","","","","","","","","","","","","","",""
"","","","","","survey-text","144","463701","0.0-144.0","A2WX434EAQOE29","2022-05-26T23:54:42.253Z","task_switching-rhyme-phon_sim-same_different","","2956","task_switching","{""colorcue_switch_ans"":""99""}","experiment","96","colorcue_switch","99","true","add","red","14","","","","","","","","","","","","","","","","","","","","","","","","","","","",""
"","","","","","survey-text","145","466788","0.0-145.0","A2WX434EAQOE29","2022-05-26T23:54:42.253Z","task_switching-rhyme-phon_sim-same_different","","3084.7000000476837","task_switching","{""colorcue_switch_ans"":""22""}","experiment","25","colorcue_switch","22","true","subtract","blue","15","","","","","","","","","","","","","","","","","","","","","","","","","","","",""
"","","","","","survey-text","146","469776","0.0-146.0","A2WX434EAQOE29","2022-05-26T23:54:42.253Z","task_switching-rhyme-phon_sim-same_different","","2986.100000143051","task_switching","{""colorcue_switch_ans"":""24""}","experiment","21","colorcue_switch","24","true","add","red","16","","","","","","","","","","","","","","","","","","","","","","","","","","","",""
"","","","","","survey-text","147","472807","0.0-147.0","A2WX434EAQOE29","2022-05-26T23:54:42.253Z","task_switching-rhyme-phon_sim-same_different","","3028.899999856949","task_switching","{""colorcue_switch_ans"":""73""}","experiment","76","colorcue_switch","73","true","subtract","blue","17","","","","","","","","","","","","","","","","","","","","","","","","","","","",""
"","","","","","survey-text","148","475740","0.0-148.0","A2WX434EAQOE29","2022-05-26T23:54:42.253Z","task_switching-rhyme-phon_sim-same_different","","2931.2000000476837","task_switching","{""colorcue_switch_ans"":""63""}","experiment","60","colorcue_switch","63","true","add","red","18","","","","","","","","","","","","","","","","","","","","","","","","","","","",""
"","","","","","survey-text","149","479169","0.0-149.0","A2WX434EAQOE29","2022-05-26T23:54:42.253Z","task_switching-rhyme-phon_sim-same_different","","3427.0999999046326","task_switching","{""colorcue_switch_ans"":""24""}","experiment","27","colorcue_switch","24","true","subtract","blue","19","","","","","","","","","","","","","","","","","","","","","","","","","","","",""
"","","","","","survey-text","150","482706","0.0-150.0","A2WX434EAQOE29","2022-05-26T23:54:42.253Z","task_switching-rhyme-phon_sim-same_different","","3534.899999856949","task_switching","{""colorcue_switch_ans"":""97""}","experiment","94","colorcue_switch","97","true","add","red","20","","","","","","","","","","","","","","","","","","","","","","","","","","","",""
"","","","","","survey-text","151","485440","0.0-151.0","A2WX434EAQOE29","2022-05-26T23:54:42.253Z","task_switching-rhyme-phon_sim-same_different","","2731.899999856949","task_switching","{""colorcue_switch_ans"":""75""}","experiment","78","colorcue_switch","75","true","subtract","blue","21","","","","","","","","","","","","","","","","","","","","","","","","","","","",""
"","","","","","survey-text","152","488118","0.0-152.0","A2WX434EAQOE29","2022-05-26T23:54:42.253Z","task_switching-rhyme-phon_sim-same_different","","2676.2000000476837","task_switching","{""colorcue_switch_ans"":""62""}","experiment","59","colorcue_switch","62","true","add","red","22","","","","","","","","","","","","","","","","","","","","","","","","","","","",""
"","","","","","survey-text","153","491029","0.0-153.0","A2WX434EAQOE29","2022-05-26T23:54:42.253Z","task_switching-rhyme-phon_sim-same_different","","2908.9000000953674","task_switching","{""colorcue_switch_ans"":""43""}","experiment","46","colorcue_switch","43","true","subtract","blue","23","","","","","","","","","","","","","","","","","","","","","","","","","","","",""
"","","","","","survey-text","154","494145","0.0-154.0","A2WX434EAQOE29","2022-05-26T23:54:42.253Z","task_switching-rhyme-phon_sim-same_different","","3114.100000143051","task_switching","{""colorcue_switch_ans"":""73""}","experiment","70","colorcue_switch","73","true","add","red","24","","","","","","","","","","","","","","","","","","","","","","","","","","","",""
"","","","","","survey-text","155","497328","0.0-155.0","A2WX434EAQOE29","2022-05-26T23:54:42.253Z","task_switching-rhyme-phon_sim-same_different","","3180.7999999523163","task_switching","{""colorcue_switch_ans"":""80""}","experiment","83","colorcue_switch","80","true","subtract","blue","25","","","","","","","","","","","","","","","","","","","","","","","","","","","",""
"","","","","","survey-text","156","501462","0.0-156.0","A2WX434EAQOE29","2022-05-26T23:54:42.253Z","task_switching-rhyme-phon_sim-same_different","","4132.099999904633","task_switching","{""colorcue_switch_ans"":""94""}","experiment","91","colorcue_switch","94","true","add","red","26","","","","","","","","","","","","","","","","","","","","","","","","","","","",""
"","","","","","survey-text","157","505122","0.0-157.0","A2WX434EAQOE29","2022-05-26T23:54:42.253Z","task_switching-rhyme-phon_sim-same_different","","3657.899999856949","task_switching","{""colorcue_switch_ans"":""58""}","experiment","61","colorcue_switch","58","true","subtract","blue","27","","","","","","","","","","","","","","","","","","","","","","","","","","","",""
"","","","","","survey-text","158","512149","0.0-158.0","A2WX434EAQOE29","2022-05-26T23:54:42.253Z","task_switching-rhyme-phon_sim-same_different","","7025.099999904633","task_switching","{""colorcue_switch_ans"":""38""}","experiment","35","colorcue_switch","38","true","add","red","28","","","","","","","","","","","","","","","","","","","","","","","","","","","",""
"","","","","","survey-text","159","515179","0.0-159.0","A2WX434EAQOE29","2022-05-26T23:54:42.253Z","task_switching-rhyme-phon_sim-same_different","","3027.9000000953674","task_switching","{""colorcue_switch_ans"":""90""}","experiment","93","colorcue_switch","90","true","subtract","blue","29","","","","","","","","","","","","","","","","","","","","","","","","","","","",""
"","","","","","instructions","160","523696","0.0-160.0","A2WX434EAQOE29","2022-05-26T23:54:42.253Z","task_switching-rhyme-phon_sim-same_different","[{""page_index"":0,""viewing_time"":8516.200000047684}]","8516.5","task_switching","","","","","","","","","","","","","","","","","","","","","","","","","","","","","","","","","","","","",""
"","","","","","survey-text","161","529828","0.0-161.0","A2WX434EAQOE29","2022-05-26T23:54:42.253Z","task_switching-rhyme-phon_sim-same_different","","6129.5","task_switching","{""symbolcue_switch_ans"":""95""}","training","92","symbolcue_switch","95","true","add","","0","+","","","","","","","","","","","","","","","","","","","","","","","","","","",""
"","","","","","html-keyboard-response","162","530840","0.0-162.0","A2WX434EAQOE29","2022-05-26T23:54:42.253Z","task_switching-rhyme-phon_sim-same_different","","null","task_switching","null","training","<div style=""color:darkgreen; font-size:60px"">Well done!</div>","symbolcue_switch","","","","","","","","","","","","","","","","","","","","","","","","","","","","","","","","",""
"","","","","","survey-text","163","533753","0.0-163.0","A2WX434EAQOE29","2022-05-26T23:54:42.253Z","task_switching-rhyme-phon_sim-same_different","","2910.100000143051","task_switching","{""symbolcue_switch_ans"":""83""}","training","86","symbolcue_switch","83","true","subtract","","1","-","","","","","","","","","","","","","","","","","","","","","","","","","","",""
"","","","","","html-keyboard-response","164","534758","0.0-164.0","A2WX434EAQOE29","2022-05-26T23:54:42.253Z","task_switching-rhyme-phon_sim-same_different","","null","task_switching","null","training","<div style=""color:darkgreen; font-size:60px"">Well done!</div>","symbolcue_switch","","","","","","","","","","","","","","","","","","","","","","","","","","","","","","","","",""
"","","","","","survey-text","165","538050","0.0-165.0","A2WX434EAQOE29","2022-05-26T23:54:42.253Z","task_switching-rhyme-phon_sim-same_different","","3288.7000000476837","task_switching","{""symbolcue_switch_ans"":""72""}","training","69","symbolcue_switch","72","true","add","","2","+","","","","","","","","","","","","","","","","","","","","","","","","","","",""
"","","","","","html-keyboard-response","166","539052","0.0-166.0","A2WX434EAQOE29","2022-05-26T23:54:42.253Z","task_switching-rhyme-phon_sim-same_different","","null","task_switching","null","training","<div style=""color:darkgreen; font-size:60px"">Well done!</div>","symbolcue_switch","","","","","","","","","","","","","","","","","","","","","","","","","","","","","","","","",""
"","","","","","survey-text","167","542219","0.0-167.0","A2WX434EAQOE29","2022-05-26T23:54:42.253Z","task_switching-rhyme-phon_sim-same_different","","3164.7000000476837","task_switching","{""symbolcue_switch_ans"":""42""}","training","45","symbolcue_switch","42","true","subtract","","3","-","","","","","","","","","","","","","","","","","","","","","","","","","","",""
"","","","","","html-keyboard-response","168","543221","0.0-168.0","A2WX434EAQOE29","2022-05-26T23:54:42.253Z","task_switching-rhyme-phon_sim-same_different","","null","task_switching","null","training","<div style=""color:darkgreen; font-size:60px"">Well done!</div>","symbolcue_switch","","","","","","","","","","","","","","","","","","","","","","","","","","","","","","","","",""
"","","","","","survey-text","169","546635","0.0-169.0","A2WX434EAQOE29","2022-05-26T23:54:42.253Z","task_switching-rhyme-phon_sim-same_different","","3411.5999999046326","task_switching","{""symbolcue_switch_ans"":""56""}","training","53","symbolcue_switch","56","true","add","","4","+","","","","","","","","","","","","","","","","","","","","","","","","","","",""
"","","","","","html-keyboard-response","170","547637","0.0-170.0","A2WX434EAQOE29","2022-05-26T23:54:42.253Z","task_switching-rhyme-phon_sim-same_different","","null","task_switching","null","training","<div style=""color:darkgreen; font-size:60px"">Well done!</div>","symbolcue_switch","","","","","","","","","","","","","","","","","","","","","","","","","","","","","","","","",""
"","","","","","survey-text","171","550461","0.0-171.0","A2WX434EAQOE29","2022-05-26T23:54:42.253Z","task_switching-rhyme-phon_sim-same_different","","2821.399999856949","task_switching","{""symbolcue_switch_ans"":""88""}","training","91","symbolcue_switch","88","true","subtract","","5","-","","","","","","","","","","","","","","","","","","","","","","","","","","",""
"","","","","","html-keyboard-response","172","551463","0.0-172.0","A2WX434EAQOE29","2022-05-26T23:54:42.253Z","task_switching-rhyme-phon_sim-same_different","","null","task_switching","null","training","<div style=""color:darkgreen; font-size:60px"">Well done!</div>","symbolcue_switch","","","","","","","","","","","","","","","","","","","","","","","","","","","","","","","","",""
"","","","","","survey-text","173","554596","0.0-173.0","A2WX434EAQOE29","2022-05-26T23:54:42.253Z","task_switching-rhyme-phon_sim-same_different","","3130.2999999523163","task_switching","{""symbolcue_switch_ans"":""44""}","training","41","symbolcue_switch","44","true","add","","6","+","","","","","","","","","","","","","","","","","","","","","","","","","","",""
"","","","","","html-keyboard-response","174","555608","0.0-174.0","A2WX434EAQOE29","2022-05-26T23:54:42.253Z","task_switching-rhyme-phon_sim-same_different","","null","task_switching","null","training","<div style=""color:darkgreen; font-size:60px"">Well done!</div>","symbolcue_switch","","","","","","","","","","","","","","","","","","","","","","","","","","","","","","","","",""
"","","","","","survey-text","175","560615","0.0-175.0","A2WX434EAQOE29","2022-05-26T23:54:42.253Z","task_switching-rhyme-phon_sim-same_different","","5004.100000143051","task_switching","{""symbolcue_switch_ans"":""64""}","training","67","symbolcue_switch","64","true","subtract","","7","-","","","","","","","","","","","","","","","","","","","","","","","","","","",""
"","","","","","html-keyboard-response","176","561617","0.0-176.0","A2WX434EAQOE29","2022-05-26T23:54:42.253Z","task_switching-rhyme-phon_sim-same_different","","null","task_switching","null","training","<div style=""color:darkgreen; font-size:60px"">Well done!</div>","symbolcue_switch","","","","","","","","","","","","","","","","","","","","","","","","","","","","","","","","",""
"","","","","","survey-text","177","564505","0.0-177.0","A2WX434EAQOE29","2022-05-26T23:54:42.253Z","task_switching-rhyme-phon_sim-same_different","","2885.199999809265","task_switching","{""symbolcue_switch_ans"":""18""}","training","15","symbolcue_switch","18","true","add","","8","+","","","","","","","","","","","","","","","","","","","","","","","","","","",""
"","","","","","html-keyboard-response","178","565521","0.0-178.0","A2WX434EAQOE29","2022-05-26T23:54:42.253Z","task_switching-rhyme-phon_sim-same_different","","null","task_switching","null","training","<div style=""color:darkgreen; font-size:60px"">Well done!</div>","symbolcue_switch","","","","","","","","","","","","","","","","","","","","","","","","","","","","","","","","",""
"","","","","","survey-text","179","568726","0.0-179.0","A2WX434EAQOE29","2022-05-26T23:54:42.253Z","task_switching-rhyme-phon_sim-same_different","","3201.4000000953674","task_switching","{""symbolcue_switch_ans"":""63""}","training","66","symbolcue_switch","63","true","subtract","","9","-","","","","","","","","","","","","","","","","","","","","","","","","","","",""
"","","","","","html-keyboard-response","180","569727","0.0-180.0","A2WX434EAQOE29","2022-05-26T23:54:42.253Z","task_switching-rhyme-phon_sim-same_different","","null","task_switching","null","training","<div style=""color:darkgreen; font-size:60px"">Well done!</div>","symbolcue_switch","","","","","","","","","","","","","","","","","","","","","","","","","","","","","","","","",""
"","","","","","instructions","181","656406","0.0-181.0","A2WX434EAQOE29","2022-05-26T23:54:42.253Z","task_switching-rhyme-phon_sim-same_different","[{""page_index"":0,""viewing_time"":86678.70000004768}]","86678.90000009537","task_switching","","","","","","","","","","","","","","","","","","","","","","","","","","","","","","","","","","","","",""
"","","","","","survey-text","182","660160","0.0-182.0","A2WX434EAQOE29","2022-05-26T23:54:42.253Z","task_switching-rhyme-phon_sim-same_different","","3750.899999856949","task_switching","{""symbolcue_switch_ans"":""91""}","experiment","88","symbolcue_switch","91","true","add","","0","+","","","","","","","","","","","","","","","","","","","","","","","","","","",""
"","","","","","survey-text","183","663556","0.0-183.0","A2WX434EAQOE29","2022-05-26T23:54:42.253Z","task_switching-rhyme-phon_sim-same_different","","3394.399999856949","task_switching","{""symbolcue_switch_ans"":""21""}","experiment","24","symbolcue_switch","21","true","subtract","","1","-","","","","","","","","","","","","","","","","","","","","","","","","","","",""
"","","","","","survey-text","184","666362","0.0-184.0","A2WX434EAQOE29","2022-05-26T23:54:42.253Z","task_switching-rhyme-phon_sim-same_different","","2803.300000190735","task_switching","{""symbolcue_switch_ans"":""70""}","experiment","67","symbolcue_switch","70","true","add","","2","+","","","","","","","","","","","","","","","","","","","","","","","","","","",""
"","","","","","survey-text","185","669921","0.0-185.0","A2WX434EAQOE29","2022-05-26T23:54:42.253Z","task_switching-rhyme-phon_sim-same_different","","3558","task_switching","{""symbolcue_switch_ans"":""87""}","experiment","90","symbolcue_switch","87","true","subtract","","3","-","","","","","","","","","","","","","","","","","","","","","","","","","","",""
"","","","","","survey-text","186","673216","0.0-186.0","A2WX434EAQOE29","2022-05-26T23:54:42.253Z","task_switching-rhyme-phon_sim-same_different","","3292.7999999523163","task_switching","{""symbolcue_switch_ans"":""22""}","experiment","19","symbolcue_switch","22","true","add","","4","+","","","","","","","","","","","","","","","","","","","","","","","","","","",""
"","","","","","survey-text","187","676761","0.0-187.0","A2WX434EAQOE29","2022-05-26T23:54:42.253Z","task_switching-rhyme-phon_sim-same_different","","3542.600000143051","task_switching","{""symbolcue_switch_ans"":""34""}","experiment","37","symbolcue_switch","34","true","subtract","","5","-","","","","","","","","","","","","","","","","","","","","","","","","","","",""
"","","","","","survey-text","188","680080","0.0-188.0","A2WX434EAQOE29","2022-05-26T23:54:42.253Z","task_switching-rhyme-phon_sim-same_different","","3316.699999809265","task_switching","{""symbolcue_switch_ans"":""36""}","experiment","33","symbolcue_switch","36","true","add","","6","+","","","","","","","","","","","","","","","","","","","","","","","","","","",""
"","","","","","survey-text","189","683540","0.0-189.0","A2WX434EAQOE29","2022-05-26T23:54:42.253Z","task_switching-rhyme-phon_sim-same_different","","3458","task_switching","{""symbolcue_switch_ans"":""48""}","experiment","51","symbolcue_switch","48","true","subtract","","7","-","","","","","","","","","","","","","","","","","","","","","","","","","","",""
"","","","","","survey-text","190","686471","0.0-190.0","A2WX434EAQOE29","2022-05-26T23:54:42.253Z","task_switching-rhyme-phon_sim-same_different","","2928.7999999523163","task_switching","{""symbolcue_switch_ans"":""23""}","experiment","20","symbolcue_switch","23","true","add","","8","+","","","","","","","","","","","","","","","","","","","","","","","","","","",""
"","","","","","survey-text","191","689678","0.0-191.0","A2WX434EAQOE29","2022-05-26T23:54:42.253Z","task_switching-rhyme-phon_sim-same_different","","3205","task_switching","{""symbolcue_switch_ans"":""57""}","experiment","60","symbolcue_switch","57","true","subtract","","9","-","","","","","","","","","","","","","","","","","","","","","","","","","","",""
"","","","","","survey-text","192","692778","0.0-192.0","A2WX434EAQOE29","2022-05-26T23:54:42.253Z","task_switching-rhyme-phon_sim-same_different","","3098","task_switching","{""symbolcue_switch_ans"":""77""}","experiment","74","symbolcue_switch","77","true","add","","10","+","","","","","","","","","","","","","","","","","","","","","","","","","","",""
"","","","","","survey-text","193","696030","0.0-193.0","A2WX434EAQOE29","2022-05-26T23:54:42.253Z","task_switching-rhyme-phon_sim-same_different","","3250","task_switching","{""symbolcue_switch_ans"":""91""}","experiment","94","symbolcue_switch","91","true","subtract","","11","-","","","","","","","","","","","","","","","","","","","","","","","","","","",""
"","","","","","survey-text","194","699021","0.0-194.0","A2WX434EAQOE29","2022-05-26T23:54:42.253Z","task_switching-rhyme-phon_sim-same_different","","2989.2000000476837","task_switching","{""symbolcue_switch_ans"":""66""}","experiment","63","symbolcue_switch","66","true","add","","12","+","","","","","","","","","","","","","","","","","","","","","","","","","","",""
"","","","","","survey-text","195","705391","0.0-195.0","A2WX434EAQOE29","2022-05-26T23:54:42.253Z","task_switching-rhyme-phon_sim-same_different","","6367.900000095367","task_switching","{""symbolcue_switch_ans"":""76""}","experiment","79","symbolcue_switch","76","true","subtract","","13","-","","","","","","","","","","","","","","","","","","","","","","","","","","",""
"","","","","","survey-text","196","708615","0.0-196.0","A2WX434EAQOE29","2022-05-26T23:54:42.253Z","task_switching-rhyme-phon_sim-same_different","","3221.7999999523163","task_switching","{""symbolcue_switch_ans"":""38""}","experiment","35","symbolcue_switch","38","true","add","","14","+","","","","","","","","","","","","","","","","","","","","","","","","","","",""
"","","","","","survey-text","197","711538","0.0-197.0","A2WX434EAQOE29","2022-05-26T23:54:42.253Z","task_switching-rhyme-phon_sim-same_different","","2921.2000000476837","task_switching","{""symbolcue_switch_ans"":""49""}","experiment","52","symbolcue_switch","49","true","subtract","","15","-","","","","","","","","","","","","","","","","","","","","","","","","","","",""
"","","","","","survey-text","198","714382","0.0-198.0","A2WX434EAQOE29","2022-05-26T23:54:42.253Z","task_switching-rhyme-phon_sim-same_different","","2842.100000143051","task_switching","{""symbolcue_switch_ans"":""88""}","experiment","85","symbolcue_switch","88","true","add","","16","+","","","","","","","","","","","","","","","","","","","","","","","","","","",""
"","","","","","survey-text","199","717774","0.0-199.0","A2WX434EAQOE29","2022-05-26T23:54:42.253Z","task_switching-rhyme-phon_sim-same_different","","3390.2000000476837","task_switching","{""symbolcue_switch_ans"":""69""}","experiment","72","symbolcue_switch","69","true","subtract","","17","-","","","","","","","","","","","","","","","","","","","","","","","","","","",""
"","","","","","survey-text","200","720708","0.0-200.0","A2WX434EAQOE29","2022-05-26T23:54:42.253Z","task_switching-rhyme-phon_sim-same_different","","2932.100000143051","task_switching","{""symbolcue_switch_ans"":""21""}","experiment","18","symbolcue_switch","21","true","add","","18","+","","","","","","","","","","","","","","","","","","","","","","","","","","",""
"","","","","","survey-text","201","724641","0.0-201.0","A2WX434EAQOE29","2022-05-26T23:54:42.253Z","task_switching-rhyme-phon_sim-same_different","","3930.5","task_switching","{""symbolcue_switch_ans"":""45""}","experiment","48","symbolcue_switch","45","true","subtract","","19","-","","","","","","","","","","","","","","","","","","","","","","","","","","",""
"","","","","","survey-text","202","729914","0.0-202.0","A2WX434EAQOE29","2022-05-26T23:54:42.253Z","task_switching-rhyme-phon_sim-same_different","","5270.700000047684","task_switching","{""symbolcue_switch_ans"":""58""}","experiment","55","symbolcue_switch","58","true","add","","20","+","","","","","","","","","","","","","","","","","","","","","","","","","","",""
"","","","","","survey-text","203","732825","0.0-203.0","A2WX434EAQOE29","2022-05-26T23:54:42.253Z","task_switching-rhyme-phon_sim-same_different","","2909","task_switching","{""symbolcue_switch_ans"":""35""}","experiment","38","symbolcue_switch","35","true","subtract","","21","-","","","","","","","","","","","","","","","","","","","","","","","","","","",""
"","","","","","survey-text","204","735909","0.0-204.0","A2WX434EAQOE29","2022-05-26T23:54:42.253Z","task_switching-rhyme-phon_sim-same_different","","3081.9000000953674","task_switching","{""symbolcue_switch_ans"":""25""}","experiment","22","symbolcue_switch","25","true","add","","22","+","","","","","","","","","","","","","","","","","","","","","","","","","","",""
"","","","","","survey-text","205","738946","0.0-205.0","A2WX434EAQOE29","2022-05-26T23:54:42.253Z","task_switching-rhyme-phon_sim-same_different","","3035.0999999046326","task_switching","{""symbolcue_switch_ans"":""92""}","experiment","95","symbolcue_switch","92","true","subtract","","23","-","","","","","","","","","","","","","","","","","","","","","","","","","","",""
"","","","","","survey-text","206","744503","0.0-206.0","A2WX434EAQOE29","2022-05-26T23:54:42.253Z","task_switching-rhyme-phon_sim-same_different","","5554.799999952316","task_switching","{""symbolcue_switch_ans"":""34""}","experiment","31","symbolcue_switch","34","true","add","","24","+","","","","","","","","","","","","","","","","","","","","","","","","","","",""
"","","","","","survey-text","207","747681","0.0-207.0","A2WX434EAQOE29","2022-05-26T23:54:42.253Z","task_switching-rhyme-phon_sim-same_different","","3176","task_switching","{""symbolcue_switch_ans"":""75""}","experiment","78","symbolcue_switch","75","true","subtract","","25","-","","","","","","","","","","","","","","","","","","","","","","","","","","",""
"","","","","","survey-text","208","750762","0.0-208.0","A2WX434EAQOE29","2022-05-26T23:54:42.253Z","task_switching-rhyme-phon_sim-same_different","","3078.7000000476837","task_switching","{""symbolcue_switch_ans"":""48""}","experiment","45","symbolcue_switch","48","true","add","","26","+","","","","","","","","","","","","","","","","","","","","","","","","","","",""
"","","","","","survey-text","209","754127","0.0-209.0","A2WX434EAQOE29","2022-05-26T23:54:42.253Z","task_switching-rhyme-phon_sim-same_different","","3363","task_switching","{""symbolcue_switch_ans"":""50""}","experiment","53","symbolcue_switch","50","true","subtract","","27","-","","","","","","","","","","","","","","","","","","","","","","","","","","",""
"","","","","","survey-text","210","757400","0.0-210.0","A2WX434EAQOE29","2022-05-26T23:54:42.253Z","task_switching-rhyme-phon_sim-same_different","","3271.2000000476837","task_switching","{""symbolcue_switch_ans"":""83""}","experiment","80","symbolcue_switch","83","true","add","","28","+","","","","","","","","","","","","","","","","","","","","","","","","","","",""
"","","","","","survey-text","211","760391","0.0-211.0","A2WX434EAQOE29","2022-05-26T23:54:42.253Z","task_switching-rhyme-phon_sim-same_different","","2988.899999856949","task_switching","{""symbolcue_switch_ans"":""31""}","experiment","34","symbolcue_switch","31","true","subtract","","29","-","","","","","","","","","","","","","","","","","","","","","","","","","","",""
"","","","","","instructions","212","775406","0.0-212.0","A2WX434EAQOE29","2022-05-26T23:54:42.253Z","task_switching-rhyme-phon_sim-same_different","[{""page_index"":0,""viewing_time"":15013.700000047684}]","15013.900000095367","task_switching","","","","","","","","","","","","","","","","","","","","","","","","","","","","","","","","","","","","",""
"","","","","","survey-text","213","778833","0.0-213.0","A2WX434EAQOE29","2022-05-26T23:54:42.253Z","task_switching-rhyme-phon_sim-same_different","","3425.100000143051","task_switching","{""uncued_switch_ans"":""99""}","training","96","uncued_switch","99","true","add","","0","","","","","","","","","","","","","","","","","","","","","","","","","","","",""
"","","","","","html-keyboard-response","214","779844","0.0-214.0","A2WX434EAQOE29","2022-05-26T23:54:42.253Z","task_switching-rhyme-phon_sim-same_different","","null","task_switching","null","training","<div style=""color:darkgreen; font-size:60px"">Well done!</div>","uncued_switch","","","","","","","","","","","","","","","","","","","","","","","","","","","","","","","","",""
"","","","","","survey-text","215","782863","0.0-215.0","A2WX434EAQOE29","2022-05-26T23:54:42.253Z","task_switching-rhyme-phon_sim-same_different","","3016.2000000476837","task_switching","{""uncued_switch_ans"":""64""}","training","67","uncued_switch","64","true","subtract","","1","","","","","","","","","","","","","","","","","","","","","","","","","","","",""
"","","","","","html-keyboard-response","216","783866","0.0-216.0","A2WX434EAQOE29","2022-05-26T23:54:42.253Z","task_switching-rhyme-phon_sim-same_different","","null","task_switching","null","training","<div style=""color:darkgreen; font-size:60px"">Well done!</div>","uncued_switch","","","","","","","","","","","","","","","","","","","","","","","","","","","","","","","","",""
"","","","","","survey-text","217","786879","0.0-217.0","A2WX434EAQOE29","2022-05-26T23:54:42.253Z","task_switching-rhyme-phon_sim-same_different","","3011.2000000476837","task_switching","{""uncued_switch_ans"":""79""}","training","76","uncued_switch","79","true","add","","2","","","","","","","","","","","","","","","","","","","","","","","","","","","",""
"","","","","","html-keyboard-response","218","787884","0.0-218.0","A2WX434EAQOE29","2022-05-26T23:54:42.253Z","task_switching-rhyme-phon_sim-same_different","","null","task_switching","null","training","<div style=""color:darkgreen; font-size:60px"">Well done!</div>","uncued_switch","","","","","","","","","","","","","","","","","","","","","","","","","","","","","","","","",""
"","","","","","survey-text","219","790869","0.0-219.0","A2WX434EAQOE29","2022-05-26T23:54:42.253Z","task_switching-rhyme-phon_sim-same_different","","2982.100000143051","task_switching","{""uncued_switch_ans"":""77""}","training","80","uncued_switch","77","true","subtract","","3","","","","","","","","","","","","","","","","","","","","","","","","","","","",""
"","","","","","html-keyboard-response","220","791886","0.0-220.0","A2WX434EAQOE29","2022-05-26T23:54:42.253Z","task_switching-rhyme-phon_sim-same_different","","null","task_switching","null","training","<div style=""color:darkgreen; font-size:60px"">Well done!</div>","uncued_switch","","","","","","","","","","","","","","","","","","","","","","","","","","","","","","","","",""
"","","","","","survey-text","221","794743","0.0-221.0","A2WX434EAQOE29","2022-05-26T23:54:42.253Z","task_switching-rhyme-phon_sim-same_different","","2853.7999999523163","task_switching","{""uncued_switch_ans"":""52""}","training","49","uncued_switch","52","true","add","","4","","","","","","","","","","","","","","","","","","","","","","","","","","","",""
"","","","","","html-keyboard-response","222","795747","0.0-222.0","A2WX434EAQOE29","2022-05-26T23:54:42.253Z","task_switching-rhyme-phon_sim-same_different","","null","task_switching","null","training","<div style=""color:darkgreen; font-size:60px"">Well done!</div>","uncued_switch","","","","","","","","","","","","","","","","","","","","","","","","","","","","","","","","",""
"","","","","","survey-text","223","798395","0.0-223.0","A2WX434EAQOE29","2022-05-26T23:54:42.253Z","task_switching-rhyme-phon_sim-same_different","","2645.2999999523163","task_switching","{""uncued_switch_ans"":""87""}","training","90","uncued_switch","87","true","subtract","","5","","","","","","","","","","","","","","","","","","","","","","","","","","","",""
"","","","","","html-keyboard-response","224","799398","0.0-224.0","A2WX434EAQOE29","2022-05-26T23:54:42.253Z","task_switching-rhyme-phon_sim-same_different","","null","task_switching","null","training","<div style=""color:darkgreen; font-size:60px"">Well done!</div>","uncued_switch","","","","","","","","","","","","","","","","","","","","","","","","","","","","","","","","",""
"","","","","","survey-text","225","802133","0.0-225.0","A2WX434EAQOE29","2022-05-26T23:54:42.253Z","task_switching-rhyme-phon_sim-same_different","","2732.5","task_switching","{""uncued_switch_ans"":""55""}","training","52","uncued_switch","55","true","add","","6","","","","","","","","","","","","","","","","","","","","","","","","","","","",""
"","","","","","html-keyboard-response","226","803135","0.0-226.0","A2WX434EAQOE29","2022-05-26T23:54:42.253Z","task_switching-rhyme-phon_sim-same_different","","null","task_switching","null","training","<div style=""color:darkgreen; font-size:60px"">Well done!</div>","uncued_switch","","","","","","","","","","","","","","","","","","","","","","","","","","","","","","","","",""
"","","","","","survey-text","227","806219","0.0-227.0","A2WX434EAQOE29","2022-05-26T23:54:42.253Z","task_switching-rhyme-phon_sim-same_different","","3081.199999809265","task_switching","{""uncued_switch_ans"":""31""}","training","34","uncued_switch","31","true","subtract","","7","","","","","","","","","","","","","","","","","","","","","","","","","","","",""
"","","","","","html-keyboard-response","228","807226","0.0-228.0","A2WX434EAQOE29","2022-05-26T23:54:42.253Z","task_switching-rhyme-phon_sim-same_different","","null","task_switching","null","training","<div style=""color:darkgreen; font-size:60px"">Well done!</div>","uncued_switch","","","","","","","","","","","","","","","","","","","","","","","","","","","","","","","","",""
"","","","","","survey-text","229","810154","0.0-229.0","A2WX434EAQOE29","2022-05-26T23:54:42.253Z","task_switching-rhyme-phon_sim-same_different","","2925.0999999046326","task_switching","{""uncued_switch_ans"":""41""}","training","38","uncued_switch","41","true","add","","8","","","","","","","","","","","","","","","","","","","","","","","","","","","",""
"","","","","","html-keyboard-response","230","811156","0.0-230.0","A2WX434EAQOE29","2022-05-26T23:54:42.253Z","task_switching-rhyme-phon_sim-same_different","","null","task_switching","null","training","<div style=""color:darkgreen; font-size:60px"">Well done!</div>","uncued_switch","","","","","","","","","","","","","","","","","","","","","","","","","","","","","","","","",""
"","","","","","survey-text","231","813851","0.0-231.0","A2WX434EAQOE29","2022-05-26T23:54:42.253Z","task_switching-rhyme-phon_sim-same_different","","2692.5","task_switching","{""uncued_switch_ans"":""56""}","training","59","uncued_switch","56","true","subtract","","9","","","","","","","","","","","","","","","","","","","","","","","","","","","",""
"","","","","","html-keyboard-response","232","814852","0.0-232.0","A2WX434EAQOE29","2022-05-26T23:54:42.253Z","task_switching-rhyme-phon_sim-same_different","","null","task_switching","null","training","<div style=""color:darkgreen; font-size:60px"">Well done!</div>","uncued_switch","","","","","","","","","","","","","","","","","","","","","","","","","","","","","","","","",""
"","","","","","instructions","233","816180","0.0-233.0","A2WX434EAQOE29","2022-05-26T23:54:42.253Z","task_switching-rhyme-phon_sim-same_different","[{""page_index"":0,""viewing_time"":1326.6999998092651}]","1326.7999999523163","task_switching","","","","","","","","","","","","","","","","","","","","","","","","","","","","","","","","","","","","",""
"","","","","","survey-text","234","819088","0.0-234.0","A2WX434EAQOE29","2022-05-26T23:54:42.253Z","task_switching-rhyme-phon_sim-same_different","","2906.2000000476837","task_switching","{""uncued_switch_ans"":""26""}","experiment","23","uncued_switch","26","true","add","","0","","","","","","","","","","","","","","","","","","","","","","","","","","","",""
"","","","","","survey-text","235","826300","0.0-235.0","A2WX434EAQOE29","2022-05-26T23:54:42.253Z","task_switching-rhyme-phon_sim-same_different","","7210.099999904633","task_switching","{""uncued_switch_ans"":""46""}","experiment","49","uncued_switch","46","true","subtract","","1","","","","","","","","","","","","","","","","","","","","","","","","","","","",""
"","","","","","survey-text","236","829112","0.0-236.0","A2WX434EAQOE29","2022-05-26T23:54:42.253Z","task_switching-rhyme-phon_sim-same_different","","2809.600000143051","task_switching","{""uncued_switch_ans"":""58""}","experiment","55","uncued_switch","58","true","add","","2","","","","","","","","","","","","","","","","","","","","","","","","","","","",""
"","","","","","survey-text","237","831971","0.0-237.0","A2WX434EAQOE29","2022-05-26T23:54:42.253Z","task_switching-rhyme-phon_sim-same_different","","2857.2000000476837","task_switching","{""uncued_switch_ans"":""80""}","experiment","83","uncued_switch","80","true","subtract","","3","","","","","","","","","","","","","","","","","","","","","","","","","","","",""
"","","","","","survey-text","238","834761","0.0-238.0","A2WX434EAQOE29","2022-05-26T23:54:42.253Z","task_switching-rhyme-phon_sim-same_different","","2789","task_switching","{""uncued_switch_ans"":""44""}","experiment","41","uncued_switch","44","true","add","","4","","","","","","","","","","","","","","","","","","","","","","","","","","","",""
"","","","","","survey-text","239","837914","0.0-239.0","A2WX434EAQOE29","2022-05-26T23:54:42.253Z","task_switching-rhyme-phon_sim-same_different","","3151.2000000476837","task_switching","{""uncued_switch_ans"":""16""}","experiment","19","uncued_switch","16","true","subtract","","5","","","","","","","","","","","","","","","","","","","","","","","","","","","",""
"","","","","","survey-text","240","840999","0.0-240.0","A2WX434EAQOE29","2022-05-26T23:54:42.253Z","task_switching-rhyme-phon_sim-same_different","","3082.899999856949","task_switching","{""uncued_switch_ans"":""32""}","experiment","29","uncued_switch","32","true","add","","6","","","","","","","","","","","","","","","","","","","","","","","","","","","",""
"","","","","","survey-text","241","843898","0.0-241.0","A2WX434EAQOE29","2022-05-26T23:54:42.253Z","task_switching-rhyme-phon_sim-same_different","","2896.4000000953674","task_switching","{""uncued_switch_ans"":""30""}","experiment","33","uncued_switch","30","true","subtract","","7","","","","","","","","","","","","","","","","","","","","","","","","","","","",""
"","","","","","survey-text","242","846990","0.0-242.0","A2WX434EAQOE29","2022-05-26T23:54:42.253Z","task_switching-rhyme-phon_sim-same_different","","3089.7000000476837","task_switching","{""uncued_switch_ans"":""56""}","experiment","53","uncued_switch","56","true","add","","8","","","","","","","","","","","","","","","","","","","","","","","","","","","",""
"","","","","","survey-text","243","849890","0.0-243.0","A2WX434EAQOE29","2022-05-26T23:54:42.253Z","task_switching-rhyme-phon_sim-same_different","","2898.2000000476837","task_switching","{""uncued_switch_ans"":""55""}","experiment","58","uncued_switch","55","true","subtract","","9","","","","","","","","","","","","","","","","","","","","","","","","","","","",""
"","","","","","survey-text","244","853523","0.0-244.0","A2WX434EAQOE29","2022-05-26T23:54:42.253Z","task_switching-rhyme-phon_sim-same_different","","3630.7000000476837","task_switching","{""uncued_switch_ans"":""81""}","experiment","78","uncued_switch","81","true","add","","10","","","","","","","","","","","","","","","","","","","","","","","","","","","",""
"","","","","","survey-text","245","856335","0.0-245.0","A2WX434EAQOE29","2022-05-26T23:54:42.253Z","task_switching-rhyme-phon_sim-same_different","","2810.100000143051","task_switching","{""uncued_switch_ans"":""64""}","experiment","67","uncued_switch","64","true","subtract","","11","","","","","","","","","","","","","","","","","","","","","","","","","","","",""
"","","","","","survey-text","246","859398","0.0-246.0","A2WX434EAQOE29","2022-05-26T23:54:42.253Z","task_switching-rhyme-phon_sim-same_different","","3060.899999856949","task_switching","{""uncued_switch_ans"":""57""}","experiment","54","uncued_switch","57","true","add","","12","","","","","","","","","","","","","","","","","","","","","","","","","","","",""
"","","","","","survey-text","247","862468","0.0-247.0","A2WX434EAQOE29","2022-05-26T23:54:42.253Z","task_switching-rhyme-phon_sim-same_different","","3067.7999999523163","task_switching","{""uncued_switch_ans"":""39""}","experiment","42","uncued_switch","39","true","subtract","","13","","","","","","","","","","","","","","","","","","","","","","","","","","","",""
"","","","","","survey-text","248","866593","0.0-248.0","A2WX434EAQOE29","2022-05-26T23:54:42.253Z","task_switching-rhyme-phon_sim-same_different","","4122.899999856949","task_switching","{""uncued_switch_ans"":""48""}","experiment","45","uncued_switch","48","true","add","","14","","","","","","","","","","","","","","","","","","","","","","","","","","","",""
"","","","","","survey-text","249","869368","0.0-249.0","A2WX434EAQOE29","2022-05-26T23:54:42.253Z","task_switching-rhyme-phon_sim-same_different","","2773.100000143051","task_switching","{""uncued_switch_ans"":""65""}","experiment","68","uncued_switch","65","true","subtract","","15","","","","","","","","","","","","","","","","","","","","","","","","","","","",""
"","","","","","survey-text","250","872241","0.0-250.0","A2WX434EAQOE29","2022-05-26T23:54:42.253Z","task_switching-rhyme-phon_sim-same_different","","2870.9000000953674","task_switching","{""uncued_switch_ans"":""19""}","experiment","16","uncued_switch","19","true","add","","16","","","","","","","","","","","","","","","","","","","","","","","","","","","",""
"","","","","","survey-text","251","875072","0.0-251.0","A2WX434EAQOE29","2022-05-26T23:54:42.253Z","task_switching-rhyme-phon_sim-same_different","","2829.9000000953674","task_switching","{""uncued_switch_ans"":""15""}","experiment","18","uncued_switch","15","true","subtract","","17","","","","","","","","","","","","","","","","","","","","","","","","","","","",""
"","","","","","survey-text","252","877968","0.0-252.0","A2WX434EAQOE29","2022-05-26T23:54:42.253Z","task_switching-rhyme-phon_sim-same_different","","2893.2000000476837","task_switching","{""uncued_switch_ans"":""28""}","experiment","25","uncued_switch","28","true","add","","18","","","","","","","","","","","","","","","","","","","","","","","","","","","",""
"","","","","","survey-text","253","880931","0.0-253.0","A2WX434EAQOE29","2022-05-26T23:54:42.253Z","task_switching-rhyme-phon_sim-same_different","","2961.9000000953674","task_switching","{""uncued_switch_ans"":""71""}","experiment","74","uncued_switch","71","true","subtract","","19","","","","","","","","","","","","","","","","","","","","","","","","","","","",""
"","","","","","survey-text","254","883783","0.0-254.0","A2WX434EAQOE29","2022-05-26T23:54:42.253Z","task_switching-rhyme-phon_sim-same_different","","2849.199999809265","task_switching","{""uncued_switch_ans"":""40""}","experiment","37","uncued_switch","40","true","add","","20","","","","","","","","","","","","","","","","","","","","","","","","","","","",""
"","","","","","survey-text","255","886759","0.0-255.0","A2WX434EAQOE29","2022-05-26T23:54:42.253Z","task_switching-rhyme-phon_sim-same_different","","2974.7999999523163","task_switching","{""uncued_switch_ans"":""85""}","experiment","88","uncued_switch","85","true","subtract","","21","","","","","","","","","","","","","","","","","","","","","","","","","","","",""
"","","","","","survey-text","256","889711","0.0-256.0","A2WX434EAQOE29","2022-05-26T23:54:42.253Z","task_switching-rhyme-phon_sim-same_different","","2950.100000143051","task_switching","{""uncued_switch_ans"":""38""}","experiment","35","uncued_switch","38","true","add","","22","","","","","","","","","","","","","","","","","","","","","","","","","","","",""
"","","","","","survey-text","257","892639","0.0-257.0","A2WX434EAQOE29","2022-05-26T23:54:42.253Z","task_switching-rhyme-phon_sim-same_different","","2926.100000143051","task_switching","{""uncued_switch_ans"":""90""}","experiment","93","uncued_switch","90","true","subtract","","23","","","","","","","","","","","","","","","","","","","","","","","","","","","",""
"","","","","","survey-text","258","896091","0.0-258.0","A2WX434EAQOE29","2022-05-26T23:54:42.253Z","task_switching-rhyme-phon_sim-same_different","","3448.9000000953674","task_switching","{""uncued_switch_ans"":""97""}","experiment","94","uncued_switch","97","true","add","","24","","","","","","","","","","","","","","","","","","","","","","","","","","","",""
"","","","","","survey-text","259","899111","0.0-259.0","A2WX434EAQOE29","2022-05-26T23:54:42.253Z","task_switching-rhyme-phon_sim-same_different","","3017.9000000953674","task_switching","{""uncued_switch_ans"":""29""}","experiment","32","uncued_switch","29","true","subtract","","25","","","","","","","","","","","","","","","","","","","","","","","","","","","",""
"","","","","","survey-text","260","901919","0.0-260.0","A2WX434EAQOE29","2022-05-26T23:54:42.253Z","task_switching-rhyme-phon_sim-same_different","","2806.100000143051","task_switching","{""uncued_switch_ans"":""39""}","experiment","36","uncued_switch","39","true","add","","26","","","","","","","","","","","","","","","","","","","","","","","","","","","",""
"","","","","","survey-text","261","904601","0.0-261.0","A2WX434EAQOE29","2022-05-26T23:54:42.253Z","task_switching-rhyme-phon_sim-same_different","","2679.800000190735","task_switching","{""uncued_switch_ans"":""31""}","experiment","34","uncued_switch","31","true","subtract","","27","","","","","","","","","","","","","","","","","","","","","","","","","","","",""
"","","","","","survey-text","262","907778","0.0-262.0","A2WX434EAQOE29","2022-05-26T23:54:42.253Z","task_switching-rhyme-phon_sim-same_different","","3174.899999856949","task_switching","{""uncued_switch_ans"":""63""}","experiment","60","uncued_switch","63","true","add","","28","","","","","","","","","","","","","","","","","","","","","","","","","","","",""
"","","","","","survey-text","263","910988","0.0-263.0","A2WX434EAQOE29","2022-05-26T23:54:42.253Z","task_switching-rhyme-phon_sim-same_different","","3208","task_switching","{""uncued_switch_ans"":""56""}","experiment","59","uncued_switch","56","true","subtract","","29","","","","","","","","","","","","","","","","","","","","","","","","","","","",""
"","","","","","survey-multi-choice","264","917121","0.0-264.0","A2WX434EAQOE29","2022-05-26T23:54:42.253Z","task_switching-rhyme-phon_sim-same_different","","6131.400000095367","task_switching","{""Q0"":""Yes""}","","","","","","","","","","[0]","Yes","","","","","","","","","","","","","","","","","","","","","","","","",""
"","","","","","survey-text","265","935294","0.0-265.0","A2WX434EAQOE29","2022-05-26T23:54:42.253Z","task_switching-rhyme-phon_sim-same_different","","18170","task_switching","{""Q0"":""No there is not.""}","","","","","","","","","","","","No there is not.","","","","","","","","","","","","","","","","","","","","","","","",""
"","","","","","instructions","266","937222","0.0-266.0","A2WX434EAQOE29","2022-05-26T23:54:42.253Z","task_switching-rhyme-phon_sim-same_different","[{""page_index"":0,""viewing_time"":1927.4000000953674}]","1927.7000000476837","task_switching","","","","","","","","","","","","","","","","","","","","","","","","","","","","","","","","","","","","",""
"","","","","","instructions","267","956823","0.0-267.0","A2WX434EAQOE29","2022-05-26T23:54:42.253Z","task_switching-rhyme-phon_sim-same_different","[{""page_index"":0,""viewing_time"":19600.099999904633}]","19600.400000095367","rhyme","","","","","","","","","","","","","","","","","","","","","","","","","","","","","","","","","","","","",""
"","","","","","html-keyboard-response","268","957581","0.0-268.0-0.0","A2WX434EAQOE29","2022-05-26T23:54:42.253Z","task_switching-rhyme-phon_sim-same_different","","null","rhyme","null","","<div style=""font-size:60px;"">+</div>","","","","","","","","","","","750","","","","","","","","","","","","","","","","","","","","","","",""
"","","","","","html-keyboard-response","269","958092","0.0-268.0-1.0","A2WX434EAQOE29","2022-05-26T23:54:42.253Z","task_switching-rhyme-phon_sim-same_different","","null","rhyme","null","","<img src=""square.png"" width=""306"" height=""306"" style=""position: fixed;left:14%;top:30%""><img src=""square.png"" width=""306"" height=""306"" style=""position: fixed;left:64%;top:30%"">","","","","","","","","","","","","","","","","","","","","","","","","","","","","","","","","","",""
