"success","timeout","failed_images","failed_audio","failed_video","trial_type","trial_index","time_elapsed","internal_node_id","worker_id","start_time","experiment_order","view_history","rt","experiment","stimulus","response","judgment_type","stim_1","stim_2","inverted","answer","true_neg","correct","true_pos","false_neg","false_pos","question_order","talk_out_loud","strategy_free_ans","phase","word_1","word_2","word_3","word_4","word_5","original_word_set","response_1","response_2","response_3","response_4","response_5","condition","operation","trial_no","color_cue","symbol_cue","wait_time","image_1","image_2","cor_key","type"
"true","false","[]","[]","[]","preload","0","2355","0.0-0.0","AJF954955YWZG","2022-05-23T17:54:05.846Z","same_different-phon_sim-task_switching-rhyme","","","","","","","","","","","","","","","","","","","","","","","","","","","","","","","","","","","","","","","",""
"","","","","","instructions","1","5503","0.0-1.0","AJF954955YWZG","2022-05-23T17:54:05.846Z","same_different-phon_sim-task_switching-rhyme","[{""page_index"":0,""viewing_time"":3146.600000023842}]","3146.8000000715256","","","","","","","","","","","","","","","","","","","","","","","","","","","","","","","","","","","","","",""
"true","","","","","fullscreen","2","7495","0.0-2.0","AJF954955YWZG","2022-05-23T17:54:05.846Z","same_different-phon_sim-task_switching-rhyme","","","","","","","","","","","","","","","","","","","","","","","","","","","","","","","","","","","","","","","",""
"","","","","","instructions","3","12203","0.0-3.0","AJF954955YWZG","2022-05-23T17:54:05.846Z","same_different-phon_sim-task_switching-rhyme","[{""page_index"":0,""viewing_time"":4706.699999928474}]","4706.899999976158","same_different","","","","","","","","","","","","","","","","","","","","","","","","","","","","","","","","","","","","",""
"","","","","","instructions","4","35028","0.0-4.0","AJF954955YWZG","2022-05-23T17:54:05.846Z","same_different-phon_sim-task_switching-rhyme","[{""page_index"":0,""viewing_time"":22824.699999928474}]","22824.799999952316","","","","","","","","","","","","","","","","","","","","","","","","","","","","","","","","","","","","","",""
"","","","","","html-keyboard-response","5","35791","0.0-5.0-0.0","AJF954955YWZG","2022-05-23T17:54:05.846Z","same_different-phon_sim-task_switching-rhyme","","null","same_different","<div style=""font-size:60px"">+</div>","null","","","","","","","","","","","","","","","","","","","","","","","","","","","","","","","","","","",""
"","","","","","html-keyboard-response","6","37723","0.0-5.0-1.0","AJF954955YWZG","2022-05-23T17:54:05.846Z","same_different-phon_sim-task_switching-rhyme","","1929.3999999761581","same_different","[""<img src=\""square.png\"" width=\""100\"" height=\""100\"" style=\""position: fixed;left:39%;top:47%\""><img src=\""square.png\"" width=\""100\"" height=\""100\"" style=\""position: fixed;left:54%;top:47%\""><img src=\""square.png\"" width=\""100\"" height=\""100\"" style=\""position: fixed;left:46.5%;top:32%\""><img src=\""square.png\"" width=\""100\"" height=\""100\"" style=\""position: fixed;left:46.5%;top:61%\""><div style=\""font-size:60px; text-align: center;margin-top:45.5%\"">+</div><div id=\""first\"" style=\""position: fixed;visibility: hidden;left:55%;top:49%\""><img src=\""same_diff_imgs/C14.gif\""></div><div id=\""delayed\"" style=\""position: fixed;visibility: hidden;left:48%;top:62%\""><img src=\""same_diff_imgs/C04.gif\""></div>""]","arrowdown","identical_image","same_diff_imgs/C14.gif","same_diff_imgs/C04.gif","no","different","1","true","","","","","","","","","","","","","","","","","","","","","","","","","","","",""
"","","","","","html-keyboard-response","7","37725","0.0-5.0-2.0","AJF954955YWZG","2022-05-23T17:54:05.846Z","same_different-phon_sim-task_switching-rhyme","","null",""," ","null","","","","","","","","","","","","","","","","","","","","","","","","","","","","","","","","","","",""
"","","","","","html-keyboard-response","8","38033","0.0-5.0-3.0","AJF954955YWZG","2022-05-23T17:54:05.846Z","same_different-phon_sim-task_switching-rhyme","","null","same_different"," ","null","","","","","","","","","","","","","","","","","","","","","","","","","","","","","","","","","","",""
"","","","","","html-keyboard-response","9","38792","0.0-5.0-0.1","AJF954955YWZG","2022-05-23T17:54:05.846Z","same_different-phon_sim-task_switching-rhyme","","null","same_different","<div style=""font-size:60px"">+</div>","null","","","","","","","","","","","","","","","","","","","","","","","","","","","","","","","","","","",""
"","","","","","html-keyboard-response","10","40482","0.0-5.0-1.1","AJF954955YWZG","2022-05-23T17:54:05.846Z","same_different-phon_sim-task_switching-rhyme","","1689.3999999761581","same_different","[""<img src=\""square.png\"" width=\""100\"" height=\""100\"" style=\""position: fixed;left:39%;top:47%\""><img src=\""square.png\"" width=\""100\"" height=\""100\"" style=\""position: fixed;left:54%;top:47%\""><img src=\""square.png\"" width=\""100\"" height=\""100\"" style=\""position: fixed;left:46.5%;top:32%\""><img src=\""square.png\"" width=\""100\"" height=\""100\"" style=\""position: fixed;left:46.5%;top:61%\""><div style=\""font-size:60px; text-align: center;margin-top:45.5%\"">+</div><div id=\""first\"" style=\""position: fixed;visibility: hidden;left:48%;top:34%\""><img src=\""same_diff_imgs/C14.gif\""></div><div id=\""delayed\"" style=\""position: fixed;visibility: hidden;left:55%;top:49%\""><img src=\""same_diff_imgs/C14.gif\""></div>""]","arrowup","identical_image","same_diff_imgs/C14.gif","same_diff_imgs/C14.gif","no","same","","true","1","","","","","","","","","","","","","","","","","","","","","","","","","","",""
"","","","","","html-keyboard-response","11","40484","0.0-5.0-2.1","AJF954955YWZG","2022-05-23T17:54:05.846Z","same_different-phon_sim-task_switching-rhyme","","null",""," ","null","","","","","","","","","","","","","","","","","","","","","","","","","","","","","","","","","","",""
"","","","","","html-keyboard-response","12","40793","0.0-5.0-3.1","AJF954955YWZG","2022-05-23T17:54:05.846Z","same_different-phon_sim-task_switching-rhyme","","null","same_different"," ","null","","","","","","","","","","","","","","","","","","","","","","","","","","","","","","","","","","",""
"","","","","","html-keyboard-response","13","41547","0.0-5.0-0.2","AJF954955YWZG","2022-05-23T17:54:05.846Z","same_different-phon_sim-task_switching-rhyme","","null","same_different","<div style=""font-size:60px"">+</div>","null","","","","","","","","","","","","","","","","","","","","","","","","","","","","","","","","","","",""
"","","","","","html-keyboard-response","14","43770","0.0-5.0-1.2","AJF954955YWZG","2022-05-23T17:54:05.846Z","same_different-phon_sim-task_switching-rhyme","","2222.7999999523163","same_different","[""<img src=\""square.png\"" width=\""100\"" height=\""100\"" style=\""position: fixed;left:39%;top:47%\""><img src=\""square.png\"" width=\""100\"" height=\""100\"" style=\""position: fixed;left:54%;top:47%\""><img src=\""square.png\"" width=\""100\"" height=\""100\"" style=\""position: fixed;left:46.5%;top:32%\""><img src=\""square.png\"" width=\""100\"" height=\""100\"" style=\""position: fixed;left:46.5%;top:61%\""><div style=\""font-size:60px; text-align: center;margin-top:45.5%\"">+</div><div id=\""first\"" style=\""position: fixed;visibility: hidden;left:48%;top:34%\""><img src=\""same_diff_imgs/D07.gif\""></div><div id=\""delayed\"" style=\""position: fixed;visibility: hidden;left:55%;top:49%\""><img src=\""same_diff_imgs/D07.gif\""></div>""]","arrowup","identical_image","same_diff_imgs/D07.gif","same_diff_imgs/D07.gif","no","same","","true","1","","","","","","","","","","","","","","","","","","","","","","","","","","",""
"","","","","","html-keyboard-response","15","43772","0.0-5.0-2.2","AJF954955YWZG","2022-05-23T17:54:05.846Z","same_different-phon_sim-task_switching-rhyme","","null",""," ","null","","","","","","","","","","","","","","","","","","","","","","","","","","","","","","","","","","",""
"","","","","","html-keyboard-response","16","44076","0.0-5.0-3.2","AJF954955YWZG","2022-05-23T17:54:05.846Z","same_different-phon_sim-task_switching-rhyme","","null","same_different"," ","null","","","","","","","","","","","","","","","","","","","","","","","","","","","","","","","","","","",""
"","","","","","html-keyboard-response","17","44830","0.0-5.0-0.3","AJF954955YWZG","2022-05-23T17:54:05.846Z","same_different-phon_sim-task_switching-rhyme","","null","same_different","<div style=""font-size:60px"">+</div>","null","","","","","","","","","","","","","","","","","","","","","","","","","","","","","","","","","","",""
"","","","","","html-keyboard-response","18","46635","0.0-5.0-1.3","AJF954955YWZG","2022-05-23T17:54:05.846Z","same_different-phon_sim-task_switching-rhyme","","1803.6999999284744","same_different","[""<img src=\""square.png\"" width=\""100\"" height=\""100\"" style=\""position: fixed;left:39%;top:47%\""><img src=\""square.png\"" width=\""100\"" height=\""100\"" style=\""position: fixed;left:54%;top:47%\""><img src=\""square.png\"" width=\""100\"" height=\""100\"" style=\""position: fixed;left:46.5%;top:32%\""><img src=\""square.png\"" width=\""100\"" height=\""100\"" style=\""position: fixed;left:46.5%;top:61%\""><div style=\""font-size:60px; text-align: center;margin-top:45.5%\"">+</div><div id=\""first\"" style=\""position: fixed;visibility: hidden;left:48%;top:34%\""><img src=\""same_diff_imgs/C04.gif\""></div><div id=\""delayed\"" style=\""position: fixed;visibility: hidden;left:48%;top:62%\""><img src=\""same_diff_imgs/C04.gif\""></div>""]","arrowup","identical_image","same_diff_imgs/C04.gif","same_diff_imgs/C04.gif","no","same","","true","1","","","","","","","","","","","","","","","","","","","","","","","","","","",""
"","","","","","html-keyboard-response","19","46637","0.0-5.0-2.3","AJF954955YWZG","2022-05-23T17:54:05.846Z","same_different-phon_sim-task_switching-rhyme","","null",""," ","null","","","","","","","","","","","","","","","","","","","","","","","","","","","","","","","","","","",""
"","","","","","html-keyboard-response","20","46941","0.0-5.0-3.3","AJF954955YWZG","2022-05-23T17:54:05.846Z","same_different-phon_sim-task_switching-rhyme","","null","same_different"," ","null","","","","","","","","","","","","","","","","","","","","","","","","","","","","","","","","","","",""
"","","","","","html-keyboard-response","21","47696","0.0-5.0-0.4","AJF954955YWZG","2022-05-23T17:54:05.846Z","same_different-phon_sim-task_switching-rhyme","","null","same_different","<div style=""font-size:60px"">+</div>","null","","","","","","","","","","","","","","","","","","","","","","","","","","","","","","","","","","",""
"","","","","","html-keyboard-response","22","49082","0.0-5.0-1.4","AJF954955YWZG","2022-05-23T17:54:05.846Z","same_different-phon_sim-task_switching-rhyme","","1385","same_different","[""<img src=\""square.png\"" width=\""100\"" height=\""100\"" style=\""position: fixed;left:39%;top:47%\""><img src=\""square.png\"" width=\""100\"" height=\""100\"" style=\""position: fixed;left:54%;top:47%\""><img src=\""square.png\"" width=\""100\"" height=\""100\"" style=\""position: fixed;left:46.5%;top:32%\""><img src=\""square.png\"" width=\""100\"" height=\""100\"" style=\""position: fixed;left:46.5%;top:61%\""><div style=\""font-size:60px; text-align: center;margin-top:45.5%\"">+</div><div id=\""first\"" style=\""position: fixed;visibility: hidden;left:40%;top:48%\""><img src=\""same_diff_imgs/C04.gif\""></div><div id=\""delayed\"" style=\""position: fixed;visibility: hidden;left:55%;top:49%\""><img src=\""same_diff_imgs/C04.gif\""></div>""]","arrowup","identical_image","same_diff_imgs/C04.gif","same_diff_imgs/C04.gif","no","same","","true","1","","","","","","","","","","","","","","","","","","","","","","","","","","",""
"","","","","","html-keyboard-response","23","49084","0.0-5.0-2.4","AJF954955YWZG","2022-05-23T17:54:05.846Z","same_different-phon_sim-task_switching-rhyme","","null",""," ","null","","","","","","","","","","","","","","","","","","","","","","","","","","","","","","","","","","",""
"","","","","","html-keyboard-response","24","49392","0.0-5.0-3.4","AJF954955YWZG","2022-05-23T17:54:05.846Z","same_different-phon_sim-task_switching-rhyme","","null","same_different"," ","null","","","","","","","","","","","","","","","","","","","","","","","","","","","","","","","","","","",""
"","","","","","html-keyboard-response","25","50148","0.0-5.0-0.5","AJF954955YWZG","2022-05-23T17:54:05.846Z","same_different-phon_sim-task_switching-rhyme","","null","same_different","<div style=""font-size:60px"">+</div>","null","","","","","","","","","","","","","","","","","","","","","","","","","","","","","","","","","","",""
"","","","","","html-keyboard-response","26","51714","0.0-5.0-1.5","AJF954955YWZG","2022-05-23T17:54:05.846Z","same_different-phon_sim-task_switching-rhyme","","1564.7000000476837","same_different","[""<img src=\""square.png\"" width=\""100\"" height=\""100\"" style=\""position: fixed;left:39%;top:47%\""><img src=\""square.png\"" width=\""100\"" height=\""100\"" style=\""position: fixed;left:54%;top:47%\""><img src=\""square.png\"" width=\""100\"" height=\""100\"" style=\""position: fixed;left:46.5%;top:32%\""><img src=\""square.png\"" width=\""100\"" height=\""100\"" style=\""position: fixed;left:46.5%;top:61%\""><div style=\""font-size:60px; text-align: center;margin-top:45.5%\"">+</div><div id=\""first\"" style=\""position: fixed;visibility: hidden;left:48%;top:34%\""><img src=\""same_diff_imgs/C09.gif\""></div><div id=\""delayed\"" style=\""position: fixed;visibility: hidden;left:48%;top:62%\""><img src=\""same_diff_imgs/C09.gif\""></div>""]","arrowup","identical_image","same_diff_imgs/C09.gif","same_diff_imgs/C09.gif","no","same","","true","1","","","","","","","","","","","","","","","","","","","","","","","","","","",""
"","","","","","html-keyboard-response","27","51715","0.0-5.0-2.5","AJF954955YWZG","2022-05-23T17:54:05.846Z","same_different-phon_sim-task_switching-rhyme","","null",""," ","null","","","","","","","","","","","","","","","","","","","","","","","","","","","","","","","","","","",""
"","","","","","html-keyboard-response","28","52016","0.0-5.0-3.5","AJF954955YWZG","2022-05-23T17:54:05.846Z","same_different-phon_sim-task_switching-rhyme","","null","same_different"," ","null","","","","","","","","","","","","","","","","","","","","","","","","","","","","","","","","","","",""
"","","","","","html-keyboard-response","29","52766","0.0-5.0-0.6","AJF954955YWZG","2022-05-23T17:54:05.846Z","same_different-phon_sim-task_switching-rhyme","","null","same_different","<div style=""font-size:60px"">+</div>","null","","","","","","","","","","","","","","","","","","","","","","","","","","","","","","","","","","",""
"","","","","","html-keyboard-response","30","61331","0.0-5.0-1.6","AJF954955YWZG","2022-05-23T17:54:05.846Z","same_different-phon_sim-task_switching-rhyme","","8562.600000023842","same_different","[""<img src=\""square.png\"" width=\""100\"" height=\""100\"" style=\""position: fixed;left:39%;top:47%\""><img src=\""square.png\"" width=\""100\"" height=\""100\"" style=\""position: fixed;left:54%;top:47%\""><img src=\""square.png\"" width=\""100\"" height=\""100\"" style=\""position: fixed;left:46.5%;top:32%\""><img src=\""square.png\"" width=\""100\"" height=\""100\"" style=\""position: fixed;left:46.5%;top:61%\""><div style=\""font-size:60px;text-align: center;margin-top:45.5%\"">+</div><div id=\""first\"" style=\""position: fixed;visibility: hidden;left:40%;top:48%\""><img src=\""same_diff_imgs/C09.gif\"" style=\""-webkit-transform: scaleX(-1);transform: scaleX(-1);\""></div><div id=\""delayed\"" style=\""position: fixed;visibility: hidden;left:55%;top:49%\""><img src=\""same_diff_imgs/D11.gif\"" style=\""-webkit-transform: scaleX(-1);transform: scaleX(-1);\""></div>""]","arrowdown","identical_image","same_diff_imgs/C09.gif","same_diff_imgs/D11.gif","yes","different","1","true","","","","","","","","","","","","","","","","","","","","","","","","","","","",""
"","","","","","html-keyboard-response","31","61333","0.0-5.0-2.6","AJF954955YWZG","2022-05-23T17:54:05.846Z","same_different-phon_sim-task_switching-rhyme","","null",""," ","null","","","","","","","","","","","","","","","","","","","","","","","","","","","","","","","","","","",""
"","","","","","html-keyboard-response","32","61641","0.0-5.0-3.6","AJF954955YWZG","2022-05-23T17:54:05.846Z","same_different-phon_sim-task_switching-rhyme","","null","same_different"," ","null","","","","","","","","","","","","","","","","","","","","","","","","","","","","","","","","","","",""
"","","","","","html-keyboard-response","33","62396","0.0-5.0-0.7","AJF954955YWZG","2022-05-23T17:54:05.846Z","same_different-phon_sim-task_switching-rhyme","","null","same_different","<div style=""font-size:60px"">+</div>","null","","","","","","","","","","","","","","","","","","","","","","","","","","","","","","","","","","",""
"","","","","","html-keyboard-response","34","64363","0.0-5.0-1.7","AJF954955YWZG","2022-05-23T17:54:05.846Z","same_different-phon_sim-task_switching-rhyme","","1965.8999999761581","same_different","[""<img src=\""square.png\"" width=\""100\"" height=\""100\"" style=\""position: fixed;left:39%;top:47%\""><img src=\""square.png\"" width=\""100\"" height=\""100\"" style=\""position: fixed;left:54%;top:47%\""><img src=\""square.png\"" width=\""100\"" height=\""100\"" style=\""position: fixed;left:46.5%;top:32%\""><img src=\""square.png\"" width=\""100\"" height=\""100\"" style=\""position: fixed;left:46.5%;top:61%\""><div style=\""font-size:60px; text-align: center;margin-top:45.5%\"">+</div><div id=\""first\"" style=\""position: fixed;visibility: hidden;left:40%;top:48%\""><img src=\""same_diff_imgs/D11.gif\""></div><div id=\""delayed\"" style=\""position: fixed;visibility: hidden;left:48%;top:34%\""><img src=\""same_diff_imgs/D11.gif\""></div>""]","arrowup","identical_image","same_diff_imgs/D11.gif","same_diff_imgs/D11.gif","no","same","","true","1","","","","","","","","","","","","","","","","","","","","","","","","","","",""
"","","","","","html-keyboard-response","35","64365","0.0-5.0-2.7","AJF954955YWZG","2022-05-23T17:54:05.846Z","same_different-phon_sim-task_switching-rhyme","","null",""," ","null","","","","","","","","","","","","","","","","","","","","","","","","","","","","","","","","","","",""
"","","","","","html-keyboard-response","36","64675","0.0-5.0-3.7","AJF954955YWZG","2022-05-23T17:54:05.846Z","same_different-phon_sim-task_switching-rhyme","","null","same_different"," ","null","","","","","","","","","","","","","","","","","","","","","","","","","","","","","","","","","","",""
"","","","","","html-keyboard-response","37","65429","0.0-5.0-0.8","AJF954955YWZG","2022-05-23T17:54:05.846Z","same_different-phon_sim-task_switching-rhyme","","null","same_different","<div style=""font-size:60px"">+</div>","null","","","","","","","","","","","","","","","","","","","","","","","","","","","","","","","","","","",""
"","","","","","html-keyboard-response","38","67507","0.0-5.0-1.8","AJF954955YWZG","2022-05-23T17:54:05.846Z","same_different-phon_sim-task_switching-rhyme","","2077","same_different","[""<img src=\""square.png\"" width=\""100\"" height=\""100\"" style=\""position: fixed;left:39%;top:47%\""><img src=\""square.png\"" width=\""100\"" height=\""100\"" style=\""position: fixed;left:54%;top:47%\""><img src=\""square.png\"" width=\""100\"" height=\""100\"" style=\""position: fixed;left:46.5%;top:32%\""><img src=\""square.png\"" width=\""100\"" height=\""100\"" style=\""position: fixed;left:46.5%;top:61%\""><div style=\""font-size:60px;text-align: center;margin-top:45.5%\"">+</div><div id=\""first\"" style=\""position: fixed;visibility: hidden;left:55%;top:49%\""><img src=\""same_diff_imgs/D11.gif\"" style=\""-webkit-transform: scaleX(-1);transform: scaleX(-1);\""></div><div id=\""delayed\"" style=\""position: fixed;visibility: hidden;left:48%;top:34%\""><img src=\""same_diff_imgs/D07.gif\"" style=\""-webkit-transform: scaleX(-1);transform: scaleX(-1);\""></div>""]","arrowdown","identical_image","same_diff_imgs/D11.gif","same_diff_imgs/D07.gif","yes","different","1","true","","","","","","","","","","","","","","","","","","","","","","","","","","","",""
"","","","","","html-keyboard-response","39","67509","0.0-5.0-2.8","AJF954955YWZG","2022-05-23T17:54:05.846Z","same_different-phon_sim-task_switching-rhyme","","null",""," ","null","","","","","","","","","","","","","","","","","","","","","","","","","","","","","","","","","","",""
"","","","","","html-keyboard-response","40","67825","0.0-5.0-3.8","AJF954955YWZG","2022-05-23T17:54:05.846Z","same_different-phon_sim-task_switching-rhyme","","null","same_different"," ","null","","","","","","","","","","","","","","","","","","","","","","","","","","","","","","","","","","",""
"","","","","","html-keyboard-response","41","68579","0.0-5.0-0.9","AJF954955YWZG","2022-05-23T17:54:05.846Z","same_different-phon_sim-task_switching-rhyme","","null","same_different","<div style=""font-size:60px"">+</div>","null","","","","","","","","","","","","","","","","","","","","","","","","","","","","","","","","","","",""
"","","","","","html-keyboard-response","42","70131","0.0-5.0-1.9","AJF954955YWZG","2022-05-23T17:54:05.846Z","same_different-phon_sim-task_switching-rhyme","","1550.2999999523163","same_different","[""<img src=\""square.png\"" width=\""100\"" height=\""100\"" style=\""position: fixed;left:39%;top:47%\""><img src=\""square.png\"" width=\""100\"" height=\""100\"" style=\""position: fixed;left:54%;top:47%\""><img src=\""square.png\"" width=\""100\"" height=\""100\"" style=\""position: fixed;left:46.5%;top:32%\""><img src=\""square.png\"" width=\""100\"" height=\""100\"" style=\""position: fixed;left:46.5%;top:61%\""><div style=\""font-size:60px;text-align: center;margin-top:45.5%\"">+</div><div id=\""first\"" style=\""position: fixed;visibility: hidden;left:48%;top:62%\""><img src=\""same_diff_imgs/D07.gif\"" style=\""-webkit-transform: scaleX(-1);transform: scaleX(-1);\""></div><div id=\""delayed\"" style=\""position: fixed;visibility: hidden;left:55%;top:49%\""><img src=\""same_diff_imgs/D09.gif\"" style=\""-webkit-transform: scaleX(-1);transform: scaleX(-1);\""></div>""]","arrowdown","identical_image","same_diff_imgs/D07.gif","same_diff_imgs/D09.gif","yes","different","1","true","","","","","","","","","","","","","","","","","","","","","","","","","","","",""
"","","","","","html-keyboard-response","43","70133","0.0-5.0-2.9","AJF954955YWZG","2022-05-23T17:54:05.846Z","same_different-phon_sim-task_switching-rhyme","","null",""," ","null","","","","","","","","","","","","","","","","","","","","","","","","","","","","","","","","","","",""
"","","","","","html-keyboard-response","44","70443","0.0-5.0-3.9","AJF954955YWZG","2022-05-23T17:54:05.846Z","same_different-phon_sim-task_switching-rhyme","","null","same_different"," ","null","","","","","","","","","","","","","","","","","","","","","","","","","","","","","","","","","","",""
"","","","","","html-keyboard-response","45","71205","0.0-5.0-0.10","AJF954955YWZG","2022-05-23T17:54:05.846Z","same_different-phon_sim-task_switching-rhyme","","null","same_different","<div style=""font-size:60px"">+</div>","null","","","","","","","","","","","","","","","","","","","","","","","","","","","","","","","","","","",""
"","","","","","html-keyboard-response","46","72579","0.0-5.0-1.10","AJF954955YWZG","2022-05-23T17:54:05.846Z","same_different-phon_sim-task_switching-rhyme","","1372.6999999284744","same_different","[""<img src=\""square.png\"" width=\""100\"" height=\""100\"" style=\""position: fixed;left:39%;top:47%\""><img src=\""square.png\"" width=\""100\"" height=\""100\"" style=\""position: fixed;left:54%;top:47%\""><img src=\""square.png\"" width=\""100\"" height=\""100\"" style=\""position: fixed;left:46.5%;top:32%\""><img src=\""square.png\"" width=\""100\"" height=\""100\"" style=\""position: fixed;left:46.5%;top:61%\""><div style=\""font-size:60px; text-align: center;margin-top:45.5%\"">+</div><div id=\""first\"" style=\""position: fixed;visibility: hidden;left:48%;top:62%\""><img src=\""same_diff_imgs/C04.gif\""></div><div id=\""delayed\"" style=\""position: fixed;visibility: hidden;left:40%;top:48%\""><img src=\""same_diff_imgs/C04.gif\""></div>""]","arrowup","identical_image","same_diff_imgs/C04.gif","same_diff_imgs/C04.gif","no","same","","true","1","","","","","","","","","","","","","","","","","","","","","","","","","","",""
"","","","","","html-keyboard-response","47","72581","0.0-5.0-2.10","AJF954955YWZG","2022-05-23T17:54:05.846Z","same_different-phon_sim-task_switching-rhyme","","null",""," ","null","","","","","","","","","","","","","","","","","","","","","","","","","","","","","","","","","","",""
"","","","","","html-keyboard-response","48","72891","0.0-5.0-3.10","AJF954955YWZG","2022-05-23T17:54:05.846Z","same_different-phon_sim-task_switching-rhyme","","null","same_different"," ","null","","","","","","","","","","","","","","","","","","","","","","","","","","","","","","","","","","",""
"","","","","","html-keyboard-response","49","73646","0.0-5.0-0.11","AJF954955YWZG","2022-05-23T17:54:05.846Z","same_different-phon_sim-task_switching-rhyme","","null","same_different","<div style=""font-size:60px"">+</div>","null","","","","","","","","","","","","","","","","","","","","","","","","","","","","","","","","","","",""
"","","","","","html-keyboard-response","50","75379","0.0-5.0-1.11","AJF954955YWZG","2022-05-23T17:54:05.846Z","same_different-phon_sim-task_switching-rhyme","","1732.2999999523163","same_different","[""<img src=\""square.png\"" width=\""100\"" height=\""100\"" style=\""position: fixed;left:39%;top:47%\""><img src=\""square.png\"" width=\""100\"" height=\""100\"" style=\""position: fixed;left:54%;top:47%\""><img src=\""square.png\"" width=\""100\"" height=\""100\"" style=\""position: fixed;left:46.5%;top:32%\""><img src=\""square.png\"" width=\""100\"" height=\""100\"" style=\""position: fixed;left:46.5%;top:61%\""><div style=\""font-size:60px;text-align: center;margin-top:45.5%\"">+</div><div id=\""first\"" style=\""position: fixed;visibility: hidden;left:55%;top:49%\""><img src=\""same_diff_imgs/C09.gif\"" style=\""-webkit-transform: scaleX(-1);transform: scaleX(-1);\""></div><div id=\""delayed\"" style=\""position: fixed;visibility: hidden;left:48%;top:34%\""><img src=\""same_diff_imgs/C14.gif\"" style=\""-webkit-transform: scaleX(-1);transform: scaleX(-1);\""></div>""]","arrowdown","identical_image","same_diff_imgs/C09.gif","same_diff_imgs/C14.gif","yes","different","1","true","","","","","","","","","","","","","","","","","","","","","","","","","","","",""
"","","","","","html-keyboard-response","51","75381","0.0-5.0-2.11","AJF954955YWZG","2022-05-23T17:54:05.846Z","same_different-phon_sim-task_switching-rhyme","","null",""," ","null","","","","","","","","","","","","","","","","","","","","","","","","","","","","","","","","","","",""
"","","","","","html-keyboard-response","52","75691","0.0-5.0-3.11","AJF954955YWZG","2022-05-23T17:54:05.846Z","same_different-phon_sim-task_switching-rhyme","","null","same_different"," ","null","","","","","","","","","","","","","","","","","","","","","","","","","","","","","","","","","","",""
"","","","","","html-keyboard-response","53","76445","0.0-5.0-0.12","AJF954955YWZG","2022-05-23T17:54:05.846Z","same_different-phon_sim-task_switching-rhyme","","null","same_different","<div style=""font-size:60px"">+</div>","null","","","","","","","","","","","","","","","","","","","","","","","","","","","","","","","","","","",""
"","","","","","html-keyboard-response","54","77868","0.0-5.0-1.12","AJF954955YWZG","2022-05-23T17:54:05.846Z","same_different-phon_sim-task_switching-rhyme","","1420.8999999761581","same_different","[""<img src=\""square.png\"" width=\""100\"" height=\""100\"" style=\""position: fixed;left:39%;top:47%\""><img src=\""square.png\"" width=\""100\"" height=\""100\"" style=\""position: fixed;left:54%;top:47%\""><img src=\""square.png\"" width=\""100\"" height=\""100\"" style=\""position: fixed;left:46.5%;top:32%\""><img src=\""square.png\"" width=\""100\"" height=\""100\"" style=\""position: fixed;left:46.5%;top:61%\""><div style=\""font-size:60px; text-align: center;margin-top:45.5%\"">+</div><div id=\""first\"" style=\""position: fixed;visibility: hidden;left:48%;top:34%\""><img src=\""same_diff_imgs/C04.gif\""></div><div id=\""delayed\"" style=\""position: fixed;visibility: hidden;left:55%;top:49%\""><img src=\""same_diff_imgs/D09.gif\""></div>""]","arrowdown","identical_image","same_diff_imgs/C04.gif","same_diff_imgs/D09.gif","no","different","1","true","","","","","","","","","","","","","","","","","","","","","","","","","","","",""
"","","","","","html-keyboard-response","55","77870","0.0-5.0-2.12","AJF954955YWZG","2022-05-23T17:54:05.846Z","same_different-phon_sim-task_switching-rhyme","","null",""," ","null","","","","","","","","","","","","","","","","","","","","","","","","","","","","","","","","","","",""
"","","","","","html-keyboard-response","56","78176","0.0-5.0-3.12","AJF954955YWZG","2022-05-23T17:54:05.846Z","same_different-phon_sim-task_switching-rhyme","","null","same_different"," ","null","","","","","","","","","","","","","","","","","","","","","","","","","","","","","","","","","","",""
"","","","","","html-keyboard-response","57","78929","0.0-5.0-0.13","AJF954955YWZG","2022-05-23T17:54:05.846Z","same_different-phon_sim-task_switching-rhyme","","null","same_different","<div style=""font-size:60px"">+</div>","null","","","","","","","","","","","","","","","","","","","","","","","","","","","","","","","","","","",""
"","","","","","html-keyboard-response","58","81091","0.0-5.0-1.13","AJF954955YWZG","2022-05-23T17:54:05.846Z","same_different-phon_sim-task_switching-rhyme","","2161.399999976158","same_different","[""<img src=\""square.png\"" width=\""100\"" height=\""100\"" style=\""position: fixed;left:39%;top:47%\""><img src=\""square.png\"" width=\""100\"" height=\""100\"" style=\""position: fixed;left:54%;top:47%\""><img src=\""square.png\"" width=\""100\"" height=\""100\"" style=\""position: fixed;left:46.5%;top:32%\""><img src=\""square.png\"" width=\""100\"" height=\""100\"" style=\""position: fixed;left:46.5%;top:61%\""><div style=\""font-size:60px; text-align: center;margin-top:45.5%\"">+</div><div id=\""first\"" style=\""position: fixed;visibility: hidden;left:48%;top:34%\""><img src=\""same_diff_imgs/D07.gif\""></div><div id=\""delayed\"" style=\""position: fixed;visibility: hidden;left:55%;top:49%\""><img src=\""same_diff_imgs/D07.gif\""></div>""]","arrowup","identical_image","same_diff_imgs/D07.gif","same_diff_imgs/D07.gif","no","same","","true","1","","","","","","","","","","","","","","","","","","","","","","","","","","",""
"","","","","","html-keyboard-response","59","81093","0.0-5.0-2.13","AJF954955YWZG","2022-05-23T17:54:05.846Z","same_different-phon_sim-task_switching-rhyme","","null",""," ","null","","","","","","","","","","","","","","","","","","","","","","","","","","","","","","","","","","",""
"","","","","","html-keyboard-response","60","81408","0.0-5.0-3.13","AJF954955YWZG","2022-05-23T17:54:05.846Z","same_different-phon_sim-task_switching-rhyme","","null","same_different"," ","null","","","","","","","","","","","","","","","","","","","","","","","","","","","","","","","","","","",""
"","","","","","html-keyboard-response","61","82162","0.0-5.0-0.14","AJF954955YWZG","2022-05-23T17:54:05.846Z","same_different-phon_sim-task_switching-rhyme","","null","same_different","<div style=""font-size:60px"">+</div>","null","","","","","","","","","","","","","","","","","","","","","","","","","","","","","","","","","","",""
"","","","","","html-keyboard-response","62","85107","0.0-5.0-1.14","AJF954955YWZG","2022-05-23T17:54:05.846Z","same_different-phon_sim-task_switching-rhyme","","2943.5","same_different","[""<img src=\""square.png\"" width=\""100\"" height=\""100\"" style=\""position: fixed;left:39%;top:47%\""><img src=\""square.png\"" width=\""100\"" height=\""100\"" style=\""position: fixed;left:54%;top:47%\""><img src=\""square.png\"" width=\""100\"" height=\""100\"" style=\""position: fixed;left:46.5%;top:32%\""><img src=\""square.png\"" width=\""100\"" height=\""100\"" style=\""position: fixed;left:46.5%;top:61%\""><div style=\""font-size:60px;text-align: center;margin-top:45.5%\"">+</div><div id=\""first\"" style=\""position: fixed;visibility: hidden;left:48%;top:34%\""><img src=\""same_diff_imgs/C04.gif\"" style=\""-webkit-transform: scaleX(-1);transform: scaleX(-1);\""></div><div id=\""delayed\"" style=\""position: fixed;visibility: hidden;left:55%;top:49%\""><img src=\""same_diff_imgs/D09.gif\"" style=\""-webkit-transform: scaleX(-1);transform: scaleX(-1);\""></div>""]","arrowdown","identical_image","same_diff_imgs/C04.gif","same_diff_imgs/D09.gif","yes","different","1","true","","","","","","","","","","","","","","","","","","","","","","","","","","","",""
"","","","","","html-keyboard-response","63","85109","0.0-5.0-2.14","AJF954955YWZG","2022-05-23T17:54:05.846Z","same_different-phon_sim-task_switching-rhyme","","null",""," ","null","","","","","","","","","","","","","","","","","","","","","","","","","","","","","","","","","","",""
"","","","","","html-keyboard-response","64","85424","0.0-5.0-3.14","AJF954955YWZG","2022-05-23T17:54:05.846Z","same_different-phon_sim-task_switching-rhyme","","null","same_different"," ","null","","","","","","","","","","","","","","","","","","","","","","","","","","","","","","","","","","",""
"","","","","","html-keyboard-response","65","86178","0.0-5.0-0.15","AJF954955YWZG","2022-05-23T17:54:05.846Z","same_different-phon_sim-task_switching-rhyme","","null","same_different","<div style=""font-size:60px"">+</div>","null","","","","","","","","","","","","","","","","","","","","","","","","","","","","","","","","","","",""
"","","","","","html-keyboard-response","66","88715","0.0-5.0-1.15","AJF954955YWZG","2022-05-23T17:54:05.846Z","same_different-phon_sim-task_switching-rhyme","","2535.399999976158","same_different","[""<img src=\""square.png\"" width=\""100\"" height=\""100\"" style=\""position: fixed;left:39%;top:47%\""><img src=\""square.png\"" width=\""100\"" height=\""100\"" style=\""position: fixed;left:54%;top:47%\""><img src=\""square.png\"" width=\""100\"" height=\""100\"" style=\""position: fixed;left:46.5%;top:32%\""><img src=\""square.png\"" width=\""100\"" height=\""100\"" style=\""position: fixed;left:46.5%;top:61%\""><div style=\""font-size:60px; text-align: center;margin-top:45.5%\"">+</div><div id=\""first\"" style=\""position: fixed;visibility: hidden;left:48%;top:34%\""><img src=\""same_diff_imgs/D09.gif\""></div><div id=\""delayed\"" style=\""position: fixed;visibility: hidden;left:48%;top:62%\""><img src=\""same_diff_imgs/D09.gif\""></div>""]","arrowup","identical_image","same_diff_imgs/D09.gif","same_diff_imgs/D09.gif","no","same","","true","1","","","","","","","","","","","","","","","","","","","","","","","","","","",""
"","","","","","html-keyboard-response","67","88717","0.0-5.0-2.15","AJF954955YWZG","2022-05-23T17:54:05.846Z","same_different-phon_sim-task_switching-rhyme","","null",""," ","null","","","","","","","","","","","","","","","","","","","","","","","","","","","","","","","","","","",""
"","","","","","html-keyboard-response","68","89024","0.0-5.0-3.15","AJF954955YWZG","2022-05-23T17:54:05.846Z","same_different-phon_sim-task_switching-rhyme","","null","same_different"," ","null","","","","","","","","","","","","","","","","","","","","","","","","","","","","","","","","","","",""
"","","","","","html-keyboard-response","69","89778","0.0-5.0-0.16","AJF954955YWZG","2022-05-23T17:54:05.846Z","same_different-phon_sim-task_switching-rhyme","","null","same_different","<div style=""font-size:60px"">+</div>","null","","","","","","","","","","","","","","","","","","","","","","","","","","","","","","","","","","",""
"","","","","","html-keyboard-response","70","91587","0.0-5.0-1.16","AJF954955YWZG","2022-05-23T17:54:05.846Z","same_different-phon_sim-task_switching-rhyme","","1807.5","same_different","[""<img src=\""square.png\"" width=\""100\"" height=\""100\"" style=\""position: fixed;left:39%;top:47%\""><img src=\""square.png\"" width=\""100\"" height=\""100\"" style=\""position: fixed;left:54%;top:47%\""><img src=\""square.png\"" width=\""100\"" height=\""100\"" style=\""position: fixed;left:46.5%;top:32%\""><img src=\""square.png\"" width=\""100\"" height=\""100\"" style=\""position: fixed;left:46.5%;top:61%\""><div style=\""font-size:60px; text-align: center;margin-top:45.5%\"">+</div><div id=\""first\"" style=\""position: fixed;visibility: hidden;left:48%;top:62%\""><img src=\""same_diff_imgs/D11.gif\""></div><div id=\""delayed\"" style=\""position: fixed;visibility: hidden;left:48%;top:34%\""><img src=\""same_diff_imgs/D11.gif\""></div>""]","arrowup","identical_image","same_diff_imgs/D11.gif","same_diff_imgs/D11.gif","no","same","","true","1","","","","","","","","","","","","","","","","","","","","","","","","","","",""
"","","","","","html-keyboard-response","71","91589","0.0-5.0-2.16","AJF954955YWZG","2022-05-23T17:54:05.846Z","same_different-phon_sim-task_switching-rhyme","","null",""," ","null","","","","","","","","","","","","","","","","","","","","","","","","","","","","","","","","","","",""
"","","","","","html-keyboard-response","72","91891","0.0-5.0-3.16","AJF954955YWZG","2022-05-23T17:54:05.846Z","same_different-phon_sim-task_switching-rhyme","","null","same_different"," ","null","","","","","","","","","","","","","","","","","","","","","","","","","","","","","","","","","","",""
"","","","","","html-keyboard-response","73","92644","0.0-5.0-0.17","AJF954955YWZG","2022-05-23T17:54:05.846Z","same_different-phon_sim-task_switching-rhyme","","null","same_different","<div style=""font-size:60px"">+</div>","null","","","","","","","","","","","","","","","","","","","","","","","","","","","","","","","","","","",""
"","","","","","html-keyboard-response","74","94379","0.0-5.0-1.17","AJF954955YWZG","2022-05-23T17:54:05.846Z","same_different-phon_sim-task_switching-rhyme","","1733.3999999761581","same_different","[""<img src=\""square.png\"" width=\""100\"" height=\""100\"" style=\""position: fixed;left:39%;top:47%\""><img src=\""square.png\"" width=\""100\"" height=\""100\"" style=\""position: fixed;left:54%;top:47%\""><img src=\""square.png\"" width=\""100\"" height=\""100\"" style=\""position: fixed;left:46.5%;top:32%\""><img src=\""square.png\"" width=\""100\"" height=\""100\"" style=\""position: fixed;left:46.5%;top:61%\""><div style=\""font-size:60px; text-align: center;margin-top:45.5%\"">+</div><div id=\""first\"" style=\""position: fixed;visibility: hidden;left:55%;top:49%\""><img src=\""same_diff_imgs/C14.gif\""></div><div id=\""delayed\"" style=\""position: fixed;visibility: hidden;left:40%;top:48%\""><img src=\""same_diff_imgs/C14.gif\""></div>""]","arrowup","identical_image","same_diff_imgs/C14.gif","same_diff_imgs/C14.gif","no","same","","true","1","","","","","","","","","","","","","","","","","","","","","","","","","","",""
"","","","","","html-keyboard-response","75","94381","0.0-5.0-2.17","AJF954955YWZG","2022-05-23T17:54:05.846Z","same_different-phon_sim-task_switching-rhyme","","null",""," ","null","","","","","","","","","","","","","","","","","","","","","","","","","","","","","","","","","","",""
"","","","","","html-keyboard-response","76","94691","0.0-5.0-3.17","AJF954955YWZG","2022-05-23T17:54:05.846Z","same_different-phon_sim-task_switching-rhyme","","null","same_different"," ","null","","","","","","","","","","","","","","","","","","","","","","","","","","","","","","","","","","",""
"","","","","","html-keyboard-response","77","95446","0.0-5.0-0.18","AJF954955YWZG","2022-05-23T17:54:05.846Z","same_different-phon_sim-task_switching-rhyme","","null","same_different","<div style=""font-size:60px"">+</div>","null","","","","","","","","","","","","","","","","","","","","","","","","","","","","","","","","","","",""
"","","","","","html-keyboard-response","78","97331","0.0-5.0-1.18","AJF954955YWZG","2022-05-23T17:54:05.846Z","same_different-phon_sim-task_switching-rhyme","","1883.5999999046326","same_different","[""<img src=\""square.png\"" width=\""100\"" height=\""100\"" style=\""position: fixed;left:39%;top:47%\""><img src=\""square.png\"" width=\""100\"" height=\""100\"" style=\""position: fixed;left:54%;top:47%\""><img src=\""square.png\"" width=\""100\"" height=\""100\"" style=\""position: fixed;left:46.5%;top:32%\""><img src=\""square.png\"" width=\""100\"" height=\""100\"" style=\""position: fixed;left:46.5%;top:61%\""><div style=\""font-size:60px; text-align: center;margin-top:45.5%\"">+</div><div id=\""first\"" style=\""position: fixed;visibility: hidden;left:48%;top:62%\""><img src=\""same_diff_imgs/C09.gif\""></div><div id=\""delayed\"" style=\""position: fixed;visibility: hidden;left:40%;top:48%\""><img src=\""same_diff_imgs/C09.gif\""></div>""]","arrowup","identical_image","same_diff_imgs/C09.gif","same_diff_imgs/C09.gif","no","same","","true","1","","","","","","","","","","","","","","","","","","","","","","","","","","",""
"","","","","","html-keyboard-response","79","97335","0.0-5.0-2.18","AJF954955YWZG","2022-05-23T17:54:05.846Z","same_different-phon_sim-task_switching-rhyme","","null",""," ","null","","","","","","","","","","","","","","","","","","","","","","","","","","","","","","","","","","",""
"","","","","","html-keyboard-response","80","97640","0.0-5.0-3.18","AJF954955YWZG","2022-05-23T17:54:05.846Z","same_different-phon_sim-task_switching-rhyme","","null","same_different"," ","null","","","","","","","","","","","","","","","","","","","","","","","","","","","","","","","","","","",""
"","","","","","html-keyboard-response","81","98395","0.0-5.0-0.19","AJF954955YWZG","2022-05-23T17:54:05.846Z","same_different-phon_sim-task_switching-rhyme","","null","same_different","<div style=""font-size:60px"">+</div>","null","","","","","","","","","","","","","","","","","","","","","","","","","","","","","","","","","","",""
"","","","","","html-keyboard-response","82","111660","0.0-5.0-1.19","AJF954955YWZG","2022-05-23T17:54:05.846Z","same_different-phon_sim-task_switching-rhyme","","13262.699999928474","same_different","[""<img src=\""square.png\"" width=\""100\"" height=\""100\"" style=\""position: fixed;left:39%;top:47%\""><img src=\""square.png\"" width=\""100\"" height=\""100\"" style=\""position: fixed;left:54%;top:47%\""><img src=\""square.png\"" width=\""100\"" height=\""100\"" style=\""position: fixed;left:46.5%;top:32%\""><img src=\""square.png\"" width=\""100\"" height=\""100\"" style=\""position: fixed;left:46.5%;top:61%\""><div style=\""font-size:60px;text-align: center;margin-top:45.5%\"">+</div><div id=\""first\"" style=\""position: fixed;visibility: hidden;left:48%;top:62%\""><img src=\""same_diff_imgs/C04.gif\"" style=\""-webkit-transform: scaleX(-1);transform: scaleX(-1);\""></div><div id=\""delayed\"" style=\""position: fixed;visibility: hidden;left:48%;top:34%\""><img src=\""same_diff_imgs/D07.gif\"" style=\""-webkit-transform: scaleX(-1);transform: scaleX(-1);\""></div>""]","arrowdown","identical_image","same_diff_imgs/C04.gif","same_diff_imgs/D07.gif","yes","different","1","true","","","","","","","","","","","","","","","","","","","","","","","","","","","",""
"","","","","","html-keyboard-response","83","111662","0.0-5.0-2.19","AJF954955YWZG","2022-05-23T17:54:05.846Z","same_different-phon_sim-task_switching-rhyme","","null",""," ","null","","","","","","","","","","","","","","","","","","","","","","","","","","","","","","","","","","",""
"","","","","","html-keyboard-response","84","111973","0.0-5.0-3.19","AJF954955YWZG","2022-05-23T17:54:05.846Z","same_different-phon_sim-task_switching-rhyme","","null","same_different"," ","null","","","","","","","","","","","","","","","","","","","","","","","","","","","","","","","","","","",""
"","","","","","html-keyboard-response","85","112727","0.0-5.0-0.20","AJF954955YWZG","2022-05-23T17:54:05.846Z","same_different-phon_sim-task_switching-rhyme","","null","same_different","<div style=""font-size:60px"">+</div>","null","","","","","","","","","","","","","","","","","","","","","","","","","","","","","","","","","","",""
"","","","","","html-keyboard-response","86","114219","0.0-5.0-1.20","AJF954955YWZG","2022-05-23T17:54:05.846Z","same_different-phon_sim-task_switching-rhyme","","1490.2999999523163","same_different","[""<img src=\""square.png\"" width=\""100\"" height=\""100\"" style=\""position: fixed;left:39%;top:47%\""><img src=\""square.png\"" width=\""100\"" height=\""100\"" style=\""position: fixed;left:54%;top:47%\""><img src=\""square.png\"" width=\""100\"" height=\""100\"" style=\""position: fixed;left:46.5%;top:32%\""><img src=\""square.png\"" width=\""100\"" height=\""100\"" style=\""position: fixed;left:46.5%;top:61%\""><div style=\""font-size:60px;text-align: center;margin-top:45.5%\"">+</div><div id=\""first\"" style=\""position: fixed;visibility: hidden;left:48%;top:34%\""><img src=\""same_diff_imgs/D11.gif\"" style=\""-webkit-transform: scaleX(-1);transform: scaleX(-1);\""></div><div id=\""delayed\"" style=\""position: fixed;visibility: hidden;left:55%;top:49%\""><img src=\""same_diff_imgs/D09.gif\"" style=\""-webkit-transform: scaleX(-1);transform: scaleX(-1);\""></div>""]","arrowdown","identical_image","same_diff_imgs/D11.gif","same_diff_imgs/D09.gif","yes","different","1","true","","","","","","","","","","","","","","","","","","","","","","","","","","","",""
"","","","","","html-keyboard-response","87","114221","0.0-5.0-2.20","AJF954955YWZG","2022-05-23T17:54:05.846Z","same_different-phon_sim-task_switching-rhyme","","null",""," ","null","","","","","","","","","","","","","","","","","","","","","","","","","","","","","","","","","","",""
"","","","","","html-keyboard-response","88","114538","0.0-5.0-3.20","AJF954955YWZG","2022-05-23T17:54:05.846Z","same_different-phon_sim-task_switching-rhyme","","null","same_different"," ","null","","","","","","","","","","","","","","","","","","","","","","","","","","","","","","","","","","",""
"","","","","","html-keyboard-response","89","115294","0.0-5.0-0.21","AJF954955YWZG","2022-05-23T17:54:05.846Z","same_different-phon_sim-task_switching-rhyme","","null","same_different","<div style=""font-size:60px"">+</div>","null","","","","","","","","","","","","","","","","","","","","","","","","","","","","","","","","","","",""
"","","","","","html-keyboard-response","90","116611","0.0-5.0-1.21","AJF954955YWZG","2022-05-23T17:54:05.846Z","same_different-phon_sim-task_switching-rhyme","","1316.1999999284744","same_different","[""<img src=\""square.png\"" width=\""100\"" height=\""100\"" style=\""position: fixed;left:39%;top:47%\""><img src=\""square.png\"" width=\""100\"" height=\""100\"" style=\""position: fixed;left:54%;top:47%\""><img src=\""square.png\"" width=\""100\"" height=\""100\"" style=\""position: fixed;left:46.5%;top:32%\""><img src=\""square.png\"" width=\""100\"" height=\""100\"" style=\""position: fixed;left:46.5%;top:61%\""><div style=\""font-size:60px; text-align: center;margin-top:45.5%\"">+</div><div id=\""first\"" style=\""position: fixed;visibility: hidden;left:48%;top:62%\""><img src=\""same_diff_imgs/C09.gif\""></div><div id=\""delayed\"" style=\""position: fixed;visibility: hidden;left:55%;top:49%\""><img src=\""same_diff_imgs/C09.gif\""></div>""]","arrowup","identical_image","same_diff_imgs/C09.gif","same_diff_imgs/C09.gif","no","same","","true","1","","","","","","","","","","","","","","","","","","","","","","","","","","",""
"","","","","","html-keyboard-response","91","116614","0.0-5.0-2.21","AJF954955YWZG","2022-05-23T17:54:05.846Z","same_different-phon_sim-task_switching-rhyme","","null",""," ","null","","","","","","","","","","","","","","","","","","","","","","","","","","","","","","","","","","",""
"","","","","","html-keyboard-response","92","116922","0.0-5.0-3.21","AJF954955YWZG","2022-05-23T17:54:05.846Z","same_different-phon_sim-task_switching-rhyme","","null","same_different"," ","null","","","","","","","","","","","","","","","","","","","","","","","","","","","","","","","","","","",""
"","","","","","html-keyboard-response","93","117677","0.0-5.0-0.22","AJF954955YWZG","2022-05-23T17:54:05.846Z","same_different-phon_sim-task_switching-rhyme","","null","same_different","<div style=""font-size:60px"">+</div>","null","","","","","","","","","","","","","","","","","","","","","","","","","","","","","","","","","","",""
"","","","","","html-keyboard-response","94","119011","0.0-5.0-1.22","AJF954955YWZG","2022-05-23T17:54:05.846Z","same_different-phon_sim-task_switching-rhyme","","1332.7999999523163","same_different","[""<img src=\""square.png\"" width=\""100\"" height=\""100\"" style=\""position: fixed;left:39%;top:47%\""><img src=\""square.png\"" width=\""100\"" height=\""100\"" style=\""position: fixed;left:54%;top:47%\""><img src=\""square.png\"" width=\""100\"" height=\""100\"" style=\""position: fixed;left:46.5%;top:32%\""><img src=\""square.png\"" width=\""100\"" height=\""100\"" style=\""position: fixed;left:46.5%;top:61%\""><div style=\""font-size:60px; text-align: center;margin-top:45.5%\"">+</div><div id=\""first\"" style=\""position: fixed;visibility: hidden;left:48%;top:34%\""><img src=\""same_diff_imgs/C09.gif\""></div><div id=\""delayed\"" style=\""position: fixed;visibility: hidden;left:40%;top:48%\""><img src=\""same_diff_imgs/C09.gif\""></div>""]","arrowup","identical_image","same_diff_imgs/C09.gif","same_diff_imgs/C09.gif","no","same","","true","1","","","","","","","","","","","","","","","","","","","","","","","","","","",""
"","","","","","html-keyboard-response","95","119013","0.0-5.0-2.22","AJF954955YWZG","2022-05-23T17:54:05.846Z","same_different-phon_sim-task_switching-rhyme","","null",""," ","null","","","","","","","","","","","","","","","","","","","","","","","","","","","","","","","","","","",""
"","","","","","html-keyboard-response","96","119324","0.0-5.0-3.22","AJF954955YWZG","2022-05-23T17:54:05.846Z","same_different-phon_sim-task_switching-rhyme","","null","same_different"," ","null","","","","","","","","","","","","","","","","","","","","","","","","","","","","","","","","","","",""
"","","","","","html-keyboard-response","97","120076","0.0-5.0-0.23","AJF954955YWZG","2022-05-23T17:54:05.846Z","same_different-phon_sim-task_switching-rhyme","","null","same_different","<div style=""font-size:60px"">+</div>","null","","","","","","","","","","","","","","","","","","","","","","","","","","","","","","","","","","",""
"","","","","","html-keyboard-response","98","121987","0.0-5.0-1.23","AJF954955YWZG","2022-05-23T17:54:05.846Z","same_different-phon_sim-task_switching-rhyme","","1910.5999999046326","same_different","[""<img src=\""square.png\"" width=\""100\"" height=\""100\"" style=\""position: fixed;left:39%;top:47%\""><img src=\""square.png\"" width=\""100\"" height=\""100\"" style=\""position: fixed;left:54%;top:47%\""><img src=\""square.png\"" width=\""100\"" height=\""100\"" style=\""position: fixed;left:46.5%;top:32%\""><img src=\""square.png\"" width=\""100\"" height=\""100\"" style=\""position: fixed;left:46.5%;top:61%\""><div style=\""font-size:60px; text-align: center;margin-top:45.5%\"">+</div><div id=\""first\"" style=\""position: fixed;visibility: hidden;left:40%;top:48%\""><img src=\""same_diff_imgs/C09.gif\""></div><div id=\""delayed\"" style=\""position: fixed;visibility: hidden;left:48%;top:34%\""><img src=\""same_diff_imgs/C09.gif\""></div>""]","arrowup","identical_image","same_diff_imgs/C09.gif","same_diff_imgs/C09.gif","no","same","","true","1","","","","","","","","","","","","","","","","","","","","","","","","","","",""
"","","","","","html-keyboard-response","99","121990","0.0-5.0-2.23","AJF954955YWZG","2022-05-23T17:54:05.846Z","same_different-phon_sim-task_switching-rhyme","","null",""," ","null","","","","","","","","","","","","","","","","","","","","","","","","","","","","","","","","","","",""
"","","","","","html-keyboard-response","100","122305","0.0-5.0-3.23","AJF954955YWZG","2022-05-23T17:54:05.846Z","same_different-phon_sim-task_switching-rhyme","","null","same_different"," ","null","","","","","","","","","","","","","","","","","","","","","","","","","","","","","","","","","","",""
"","","","","","html-keyboard-response","101","123060","0.0-5.0-0.24","AJF954955YWZG","2022-05-23T17:54:05.846Z","same_different-phon_sim-task_switching-rhyme","","null","same_different","<div style=""font-size:60px"">+</div>","null","","","","","","","","","","","","","","","","","","","","","","","","","","","","","","","","","","",""
"","","","","","html-keyboard-response","102","127930","0.0-5.0-1.24","AJF954955YWZG","2022-05-23T17:54:05.846Z","same_different-phon_sim-task_switching-rhyme","","4869.299999952316","same_different","[""<img src=\""square.png\"" width=\""100\"" height=\""100\"" style=\""position: fixed;left:39%;top:47%\""><img src=\""square.png\"" width=\""100\"" height=\""100\"" style=\""position: fixed;left:54%;top:47%\""><img src=\""square.png\"" width=\""100\"" height=\""100\"" style=\""position: fixed;left:46.5%;top:32%\""><img src=\""square.png\"" width=\""100\"" height=\""100\"" style=\""position: fixed;left:46.5%;top:61%\""><div style=\""font-size:60px; text-align: center;margin-top:45.5%\"">+</div><div id=\""first\"" style=\""position: fixed;visibility: hidden;left:48%;top:62%\""><img src=\""same_diff_imgs/D07.gif\""></div><div id=\""delayed\"" style=\""position: fixed;visibility: hidden;left:48%;top:34%\""><img src=\""same_diff_imgs/C04.gif\""></div>""]","arrowdown","identical_image","same_diff_imgs/D07.gif","same_diff_imgs/C04.gif","no","different","1","true","","","","","","","","","","","","","","","","","","","","","","","","","","","",""
"","","","","","html-keyboard-response","103","127933","0.0-5.0-2.24","AJF954955YWZG","2022-05-23T17:54:05.846Z","same_different-phon_sim-task_switching-rhyme","","null",""," ","null","","","","","","","","","","","","","","","","","","","","","","","","","","","","","","","","","","",""
"","","","","","html-keyboard-response","104","128233","0.0-5.0-3.24","AJF954955YWZG","2022-05-23T17:54:05.846Z","same_different-phon_sim-task_switching-rhyme","","null","same_different"," ","null","","","","","","","","","","","","","","","","","","","","","","","","","","","","","","","","","","",""
"","","","","","html-keyboard-response","105","128996","0.0-5.0-0.25","AJF954955YWZG","2022-05-23T17:54:05.846Z","same_different-phon_sim-task_switching-rhyme","","null","same_different","<div style=""font-size:60px"">+</div>","null","","","","","","","","","","","","","","","","","","","","","","","","","","","","","","","","","","",""
"","","","","","html-keyboard-response","106","130363","0.0-5.0-1.25","AJF954955YWZG","2022-05-23T17:54:05.846Z","same_different-phon_sim-task_switching-rhyme","","1365.6000000238419","same_different","[""<img src=\""square.png\"" width=\""100\"" height=\""100\"" style=\""position: fixed;left:39%;top:47%\""><img src=\""square.png\"" width=\""100\"" height=\""100\"" style=\""position: fixed;left:54%;top:47%\""><img src=\""square.png\"" width=\""100\"" height=\""100\"" style=\""position: fixed;left:46.5%;top:32%\""><img src=\""square.png\"" width=\""100\"" height=\""100\"" style=\""position: fixed;left:46.5%;top:61%\""><div style=\""font-size:60px;text-align: center;margin-top:45.5%\"">+</div><div id=\""first\"" style=\""position: fixed;visibility: hidden;left:48%;top:34%\""><img src=\""same_diff_imgs/D11.gif\"" style=\""-webkit-transform: scaleX(-1);transform: scaleX(-1);\""></div><div id=\""delayed\"" style=\""position: fixed;visibility: hidden;left:55%;top:49%\""><img src=\""same_diff_imgs/C04.gif\"" style=\""-webkit-transform: scaleX(-1);transform: scaleX(-1);\""></div>""]","arrowdown","identical_image","same_diff_imgs/D11.gif","same_diff_imgs/C04.gif","yes","different","1","true","","","","","","","","","","","","","","","","","","","","","","","","","","","",""
"","","","","","html-keyboard-response","107","130365","0.0-5.0-2.25","AJF954955YWZG","2022-05-23T17:54:05.846Z","same_different-phon_sim-task_switching-rhyme","","null",""," ","null","","","","","","","","","","","","","","","","","","","","","","","","","","","","","","","","","","",""
"","","","","","html-keyboard-response","108","130672","0.0-5.0-3.25","AJF954955YWZG","2022-05-23T17:54:05.846Z","same_different-phon_sim-task_switching-rhyme","","null","same_different"," ","null","","","","","","","","","","","","","","","","","","","","","","","","","","","","","","","","","","",""
"","","","","","html-keyboard-response","109","131425","0.0-5.0-0.26","AJF954955YWZG","2022-05-23T17:54:05.846Z","same_different-phon_sim-task_switching-rhyme","","null","same_different","<div style=""font-size:60px"">+</div>","null","","","","","","","","","","","","","","","","","","","","","","","","","","","","","","","","","","",""
"","","","","","html-keyboard-response","110","133035","0.0-5.0-1.26","AJF954955YWZG","2022-05-23T17:54:05.846Z","same_different-phon_sim-task_switching-rhyme","","1608.6000000238419","same_different","[""<img src=\""square.png\"" width=\""100\"" height=\""100\"" style=\""position: fixed;left:39%;top:47%\""><img src=\""square.png\"" width=\""100\"" height=\""100\"" style=\""position: fixed;left:54%;top:47%\""><img src=\""square.png\"" width=\""100\"" height=\""100\"" style=\""position: fixed;left:46.5%;top:32%\""><img src=\""square.png\"" width=\""100\"" height=\""100\"" style=\""position: fixed;left:46.5%;top:61%\""><div style=\""font-size:60px; text-align: center;margin-top:45.5%\"">+</div><div id=\""first\"" style=\""position: fixed;visibility: hidden;left:55%;top:49%\""><img src=\""same_diff_imgs/C14.gif\""></div><div id=\""delayed\"" style=\""position: fixed;visibility: hidden;left:48%;top:62%\""><img src=\""same_diff_imgs/D07.gif\""></div>""]","arrowdown","identical_image","same_diff_imgs/C14.gif","same_diff_imgs/D07.gif","no","different","1","true","","","","","","","","","","","","","","","","","","","","","","","","","","","",""
"","","","","","html-keyboard-response","111","133037","0.0-5.0-2.26","AJF954955YWZG","2022-05-23T17:54:05.846Z","same_different-phon_sim-task_switching-rhyme","","null",""," ","null","","","","","","","","","","","","","","","","","","","","","","","","","","","","","","","","","","",""
"","","","","","html-keyboard-response","112","133338","0.0-5.0-3.26","AJF954955YWZG","2022-05-23T17:54:05.846Z","same_different-phon_sim-task_switching-rhyme","","null","same_different"," ","null","","","","","","","","","","","","","","","","","","","","","","","","","","","","","","","","","","",""
"","","","","","html-keyboard-response","113","134104","0.0-5.0-0.27","AJF954955YWZG","2022-05-23T17:54:05.846Z","same_different-phon_sim-task_switching-rhyme","","null","same_different","<div style=""font-size:60px"">+</div>","null","","","","","","","","","","","","","","","","","","","","","","","","","","","","","","","","","","",""
"","","","","","html-keyboard-response","114","135683","0.0-5.0-1.27","AJF954955YWZG","2022-05-23T17:54:05.846Z","same_different-phon_sim-task_switching-rhyme","","1577.6999999284744","same_different","[""<img src=\""square.png\"" width=\""100\"" height=\""100\"" style=\""position: fixed;left:39%;top:47%\""><img src=\""square.png\"" width=\""100\"" height=\""100\"" style=\""position: fixed;left:54%;top:47%\""><img src=\""square.png\"" width=\""100\"" height=\""100\"" style=\""position: fixed;left:46.5%;top:32%\""><img src=\""square.png\"" width=\""100\"" height=\""100\"" style=\""position: fixed;left:46.5%;top:61%\""><div style=\""font-size:60px; text-align: center;margin-top:45.5%\"">+</div><div id=\""first\"" style=\""position: fixed;visibility: hidden;left:48%;top:34%\""><img src=\""same_diff_imgs/D11.gif\""></div><div id=\""delayed\"" style=\""position: fixed;visibility: hidden;left:40%;top:48%\""><img src=\""same_diff_imgs/D11.gif\""></div>""]","arrowup","identical_image","same_diff_imgs/D11.gif","same_diff_imgs/D11.gif","no","same","","true","1","","","","","","","","","","","","","","","","","","","","","","","","","","",""
"","","","","","html-keyboard-response","115","135685","0.0-5.0-2.27","AJF954955YWZG","2022-05-23T17:54:05.846Z","same_different-phon_sim-task_switching-rhyme","","null",""," ","null","","","","","","","","","","","","","","","","","","","","","","","","","","","","","","","","","","",""
"","","","","","html-keyboard-response","116","135989","0.0-5.0-3.27","AJF954955YWZG","2022-05-23T17:54:05.846Z","same_different-phon_sim-task_switching-rhyme","","null","same_different"," ","null","","","","","","","","","","","","","","","","","","","","","","","","","","","","","","","","","","",""
"","","","","","html-keyboard-response","117","136743","0.0-5.0-0.28","AJF954955YWZG","2022-05-23T17:54:05.846Z","same_different-phon_sim-task_switching-rhyme","","null","same_different","<div style=""font-size:60px"">+</div>","null","","","","","","","","","","","","","","","","","","","","","","","","","","","","","","","","","","",""
"","","","","","html-keyboard-response","118","138203","0.0-5.0-1.28","AJF954955YWZG","2022-05-23T17:54:05.846Z","same_different-phon_sim-task_switching-rhyme","","1459.1999999284744","same_different","[""<img src=\""square.png\"" width=\""100\"" height=\""100\"" style=\""position: fixed;left:39%;top:47%\""><img src=\""square.png\"" width=\""100\"" height=\""100\"" style=\""position: fixed;left:54%;top:47%\""><img src=\""square.png\"" width=\""100\"" height=\""100\"" style=\""position: fixed;left:46.5%;top:32%\""><img src=\""square.png\"" width=\""100\"" height=\""100\"" style=\""position: fixed;left:46.5%;top:61%\""><div style=\""font-size:60px; text-align: center;margin-top:45.5%\"">+</div><div id=\""first\"" style=\""position: fixed;visibility: hidden;left:55%;top:49%\""><img src=\""same_diff_imgs/C14.gif\""></div><div id=\""delayed\"" style=\""position: fixed;visibility: hidden;left:48%;top:34%\""><img src=\""same_diff_imgs/C14.gif\""></div>""]","arrowup","identical_image","same_diff_imgs/C14.gif","same_diff_imgs/C14.gif","no","same","","true","1","","","","","","","","","","","","","","","","","","","","","","","","","","",""
"","","","","","html-keyboard-response","119","138205","0.0-5.0-2.28","AJF954955YWZG","2022-05-23T17:54:05.846Z","same_different-phon_sim-task_switching-rhyme","","null",""," ","null","","","","","","","","","","","","","","","","","","","","","","","","","","","","","","","","","","",""
"","","","","","html-keyboard-response","120","138507","0.0-5.0-3.28","AJF954955YWZG","2022-05-23T17:54:05.846Z","same_different-phon_sim-task_switching-rhyme","","null","same_different"," ","null","","","","","","","","","","","","","","","","","","","","","","","","","","","","","","","","","","",""
"","","","","","html-keyboard-response","121","139259","0.0-5.0-0.29","AJF954955YWZG","2022-05-23T17:54:05.846Z","same_different-phon_sim-task_switching-rhyme","","null","same_different","<div style=""font-size:60px"">+</div>","null","","","","","","","","","","","","","","","","","","","","","","","","","","","","","","","","","","",""
"","","","","","html-keyboard-response","122","141715","0.0-5.0-1.29","AJF954955YWZG","2022-05-23T17:54:05.846Z","same_different-phon_sim-task_switching-rhyme","","2454.5","same_different","[""<img src=\""square.png\"" width=\""100\"" height=\""100\"" style=\""position: fixed;left:39%;top:47%\""><img src=\""square.png\"" width=\""100\"" height=\""100\"" style=\""position: fixed;left:54%;top:47%\""><img src=\""square.png\"" width=\""100\"" height=\""100\"" style=\""position: fixed;left:46.5%;top:32%\""><img src=\""square.png\"" width=\""100\"" height=\""100\"" style=\""position: fixed;left:46.5%;top:61%\""><div style=\""font-size:60px; text-align: center;margin-top:45.5%\"">+</div><div id=\""first\"" style=\""position: fixed;visibility: hidden;left:48%;top:34%\""><img src=\""same_diff_imgs/D11.gif\""></div><div id=\""delayed\"" style=\""position: fixed;visibility: hidden;left:48%;top:62%\""><img src=\""same_diff_imgs/D09.gif\""></div>""]","arrowdown","identical_image","same_diff_imgs/D11.gif","same_diff_imgs/D09.gif","no","different","1","true","","","","","","","","","","","","","","","","","","","","","","","","","","","",""
"","","","","","html-keyboard-response","123","141717","0.0-5.0-2.29","AJF954955YWZG","2022-05-23T17:54:05.846Z","same_different-phon_sim-task_switching-rhyme","","null",""," ","null","","","","","","","","","","","","","","","","","","","","","","","","","","","","","","","","","","",""
"","","","","","html-keyboard-response","124","142022","0.0-5.0-3.29","AJF954955YWZG","2022-05-23T17:54:05.846Z","same_different-phon_sim-task_switching-rhyme","","null","same_different"," ","null","","","","","","","","","","","","","","","","","","","","","","","","","","","","","","","","","","",""
"","","","","","html-keyboard-response","125","142777","0.0-5.0-0.30","AJF954955YWZG","2022-05-23T17:54:05.846Z","same_different-phon_sim-task_switching-rhyme","","null","same_different","<div style=""font-size:60px"">+</div>","null","","","","","","","","","","","","","","","","","","","","","","","","","","","","","","","","","","",""
"","","","","","html-keyboard-response","126","146580","0.0-5.0-1.30","AJF954955YWZG","2022-05-23T17:54:05.846Z","same_different-phon_sim-task_switching-rhyme","","3801","same_different","[""<img src=\""square.png\"" width=\""100\"" height=\""100\"" style=\""position: fixed;left:39%;top:47%\""><img src=\""square.png\"" width=\""100\"" height=\""100\"" style=\""position: fixed;left:54%;top:47%\""><img src=\""square.png\"" width=\""100\"" height=\""100\"" style=\""position: fixed;left:46.5%;top:32%\""><img src=\""square.png\"" width=\""100\"" height=\""100\"" style=\""position: fixed;left:46.5%;top:61%\""><div style=\""font-size:60px; text-align: center;margin-top:45.5%\"">+</div><div id=\""first\"" style=\""position: fixed;visibility: hidden;left:48%;top:34%\""><img src=\""same_diff_imgs/C04.gif\""></div><div id=\""delayed\"" style=\""position: fixed;visibility: hidden;left:48%;top:62%\""><img src=\""same_diff_imgs/C04.gif\""></div>""]","arrowup","identical_image","same_diff_imgs/C04.gif","same_diff_imgs/C04.gif","no","same","","true","1","","","","","","","","","","","","","","","","","","","","","","","","","","",""
"","","","","","html-keyboard-response","127","146582","0.0-5.0-2.30","AJF954955YWZG","2022-05-23T17:54:05.846Z","same_different-phon_sim-task_switching-rhyme","","null",""," ","null","","","","","","","","","","","","","","","","","","","","","","","","","","","","","","","","","","",""
"","","","","","html-keyboard-response","128","146888","0.0-5.0-3.30","AJF954955YWZG","2022-05-23T17:54:05.846Z","same_different-phon_sim-task_switching-rhyme","","null","same_different"," ","null","","","","","","","","","","","","","","","","","","","","","","","","","","","","","","","","","","",""
"","","","","","html-keyboard-response","129","147642","0.0-5.0-0.31","AJF954955YWZG","2022-05-23T17:54:05.846Z","same_different-phon_sim-task_switching-rhyme","","null","same_different","<div style=""font-size:60px"">+</div>","null","","","","","","","","","","","","","","","","","","","","","","","","","","","","","","","","","","",""
"","","","","","html-keyboard-response","130","149451","0.0-5.0-1.31","AJF954955YWZG","2022-05-23T17:54:05.846Z","same_different-phon_sim-task_switching-rhyme","","1807.2000000476837","same_different","[""<img src=\""square.png\"" width=\""100\"" height=\""100\"" style=\""position: fixed;left:39%;top:47%\""><img src=\""square.png\"" width=\""100\"" height=\""100\"" style=\""position: fixed;left:54%;top:47%\""><img src=\""square.png\"" width=\""100\"" height=\""100\"" style=\""position: fixed;left:46.5%;top:32%\""><img src=\""square.png\"" width=\""100\"" height=\""100\"" style=\""position: fixed;left:46.5%;top:61%\""><div style=\""font-size:60px; text-align: center;margin-top:45.5%\"">+</div><div id=\""first\"" style=\""position: fixed;visibility: hidden;left:48%;top:62%\""><img src=\""same_diff_imgs/D09.gif\""></div><div id=\""delayed\"" style=\""position: fixed;visibility: hidden;left:40%;top:48%\""><img src=\""same_diff_imgs/D09.gif\""></div>""]","arrowdown","identical_image","same_diff_imgs/D09.gif","same_diff_imgs/D09.gif","no","same","","false","","1","","","","","","","","","","","","","","","","","","","","","","","","","",""
"","","","","","html-keyboard-response","131","149953","0.0-5.0-2.31","AJF954955YWZG","2022-05-23T17:54:05.846Z","same_different-phon_sim-task_switching-rhyme","","null","","<div style=""color:darkred; font-size:40px"">Incorrect!</div>","null","","","","","","","","","","","","","","","","","","","","","","","","","","","","","","","","","","",""
"","","","","","html-keyboard-response","132","150256","0.0-5.0-3.31","AJF954955YWZG","2022-05-23T17:54:05.846Z","same_different-phon_sim-task_switching-rhyme","","null","same_different"," ","null","","","","","","","","","","","","","","","","","","","","","","","","","","","","","","","","","","",""
"","","","","","html-keyboard-response","133","151009","0.0-5.0-0.32","AJF954955YWZG","2022-05-23T17:54:05.846Z","same_different-phon_sim-task_switching-rhyme","","null","same_different","<div style=""font-size:60px"">+</div>","null","","","","","","","","","","","","","","","","","","","","","","","","","","","","","","","","","","",""
"","","","","","html-keyboard-response","134","152291","0.0-5.0-1.32","AJF954955YWZG","2022-05-23T17:54:05.846Z","same_different-phon_sim-task_switching-rhyme","","1280.8999999761581","same_different","[""<img src=\""square.png\"" width=\""100\"" height=\""100\"" style=\""position: fixed;left:39%;top:47%\""><img src=\""square.png\"" width=\""100\"" height=\""100\"" style=\""position: fixed;left:54%;top:47%\""><img src=\""square.png\"" width=\""100\"" height=\""100\"" style=\""position: fixed;left:46.5%;top:32%\""><img src=\""square.png\"" width=\""100\"" height=\""100\"" style=\""position: fixed;left:46.5%;top:61%\""><div style=\""font-size:60px; text-align: center;margin-top:45.5%\"">+</div><div id=\""first\"" style=\""position: fixed;visibility: hidden;left:40%;top:48%\""><img src=\""same_diff_imgs/D07.gif\""></div><div id=\""delayed\"" style=\""position: fixed;visibility: hidden;left:48%;top:34%\""><img src=\""same_diff_imgs/D07.gif\""></div>""]","arrowup","identical_image","same_diff_imgs/D07.gif","same_diff_imgs/D07.gif","no","same","","true","1","","","","","","","","","","","","","","","","","","","","","","","","","","",""
"","","","","","html-keyboard-response","135","152293","0.0-5.0-2.32","AJF954955YWZG","2022-05-23T17:54:05.846Z","same_different-phon_sim-task_switching-rhyme","","null",""," ","null","","","","","","","","","","","","","","","","","","","","","","","","","","","","","","","","","","",""
"","","","","","html-keyboard-response","136","152605","0.0-5.0-3.32","AJF954955YWZG","2022-05-23T17:54:05.846Z","same_different-phon_sim-task_switching-rhyme","","null","same_different"," ","null","","","","","","","","","","","","","","","","","","","","","","","","","","","","","","","","","","",""
"","","","","","html-keyboard-response","137","153359","0.0-5.0-0.33","AJF954955YWZG","2022-05-23T17:54:05.846Z","same_different-phon_sim-task_switching-rhyme","","null","same_different","<div style=""font-size:60px"">+</div>","null","","","","","","","","","","","","","","","","","","","","","","","","","","","","","","","","","","",""
"","","","","","html-keyboard-response","138","154827","0.0-5.0-1.33","AJF954955YWZG","2022-05-23T17:54:05.846Z","same_different-phon_sim-task_switching-rhyme","","1467.3999999761581","same_different","[""<img src=\""square.png\"" width=\""100\"" height=\""100\"" style=\""position: fixed;left:39%;top:47%\""><img src=\""square.png\"" width=\""100\"" height=\""100\"" style=\""position: fixed;left:54%;top:47%\""><img src=\""square.png\"" width=\""100\"" height=\""100\"" style=\""position: fixed;left:46.5%;top:32%\""><img src=\""square.png\"" width=\""100\"" height=\""100\"" style=\""position: fixed;left:46.5%;top:61%\""><div style=\""font-size:60px; text-align: center;margin-top:45.5%\"">+</div><div id=\""first\"" style=\""position: fixed;visibility: hidden;left:55%;top:49%\""><img src=\""same_diff_imgs/C14.gif\""></div><div id=\""delayed\"" style=\""position: fixed;visibility: hidden;left:48%;top:62%\""><img src=\""same_diff_imgs/D11.gif\""></div>""]","arrowdown","identical_image","same_diff_imgs/C14.gif","same_diff_imgs/D11.gif","no","different","1","true","","","","","","","","","","","","","","","","","","","","","","","","","","","",""
"","","","","","html-keyboard-response","139","154831","0.0-5.0-2.33","AJF954955YWZG","2022-05-23T17:54:05.846Z","same_different-phon_sim-task_switching-rhyme","","null",""," ","null","","","","","","","","","","","","","","","","","","","","","","","","","","","","","","","","","","",""
"","","","","","html-keyboard-response","140","155138","0.0-5.0-3.33","AJF954955YWZG","2022-05-23T17:54:05.846Z","same_different-phon_sim-task_switching-rhyme","","null","same_different"," ","null","","","","","","","","","","","","","","","","","","","","","","","","","","","","","","","","","","",""
"","","","","","html-keyboard-response","141","155892","0.0-5.0-0.34","AJF954955YWZG","2022-05-23T17:54:05.846Z","same_different-phon_sim-task_switching-rhyme","","null","same_different","<div style=""font-size:60px"">+</div>","null","","","","","","","","","","","","","","","","","","","","","","","","","","","","","","","","","","",""
"","","","","","html-keyboard-response","142","157940","0.0-5.0-1.34","AJF954955YWZG","2022-05-23T17:54:05.846Z","same_different-phon_sim-task_switching-rhyme","","2046.2000000476837","same_different","[""<img src=\""square.png\"" width=\""100\"" height=\""100\"" style=\""position: fixed;left:39%;top:47%\""><img src=\""square.png\"" width=\""100\"" height=\""100\"" style=\""position: fixed;left:54%;top:47%\""><img src=\""square.png\"" width=\""100\"" height=\""100\"" style=\""position: fixed;left:46.5%;top:32%\""><img src=\""square.png\"" width=\""100\"" height=\""100\"" style=\""position: fixed;left:46.5%;top:61%\""><div style=\""font-size:60px; text-align: center;margin-top:45.5%\"">+</div><div id=\""first\"" style=\""position: fixed;visibility: hidden;left:55%;top:49%\""><img src=\""same_diff_imgs/C09.gif\""></div><div id=\""delayed\"" style=\""position: fixed;visibility: hidden;left:40%;top:48%\""><img src=\""same_diff_imgs/D11.gif\""></div>""]","arrowdown","identical_image","same_diff_imgs/C09.gif","same_diff_imgs/D11.gif","no","different","1","true","","","","","","","","","","","","","","","","","","","","","","","","","","","",""
"","","","","","html-keyboard-response","143","157942","0.0-5.0-2.34","AJF954955YWZG","2022-05-23T17:54:05.846Z","same_different-phon_sim-task_switching-rhyme","","null",""," ","null","","","","","","","","","","","","","","","","","","","","","","","","","","","","","","","","","","",""
"","","","","","html-keyboard-response","144","158254","0.0-5.0-3.34","AJF954955YWZG","2022-05-23T17:54:05.846Z","same_different-phon_sim-task_switching-rhyme","","null","same_different"," ","null","","","","","","","","","","","","","","","","","","","","","","","","","","","","","","","","","","",""
"","","","","","html-keyboard-response","145","159008","0.0-5.0-0.35","AJF954955YWZG","2022-05-23T17:54:05.846Z","same_different-phon_sim-task_switching-rhyme","","null","same_different","<div style=""font-size:60px"">+</div>","null","","","","","","","","","","","","","","","","","","","","","","","","","","","","","","","","","","",""
"","","","","","html-keyboard-response","146","160443","0.0-5.0-1.35","AJF954955YWZG","2022-05-23T17:54:05.846Z","same_different-phon_sim-task_switching-rhyme","","1433.2999999523163","same_different","[""<img src=\""square.png\"" width=\""100\"" height=\""100\"" style=\""position: fixed;left:39%;top:47%\""><img src=\""square.png\"" width=\""100\"" height=\""100\"" style=\""position: fixed;left:54%;top:47%\""><img src=\""square.png\"" width=\""100\"" height=\""100\"" style=\""position: fixed;left:46.5%;top:32%\""><img src=\""square.png\"" width=\""100\"" height=\""100\"" style=\""position: fixed;left:46.5%;top:61%\""><div style=\""font-size:60px;text-align: center;margin-top:45.5%\"">+</div><div id=\""first\"" style=\""position: fixed;visibility: hidden;left:55%;top:49%\""><img src=\""same_diff_imgs/D09.gif\"" style=\""-webkit-transform: scaleX(-1);transform: scaleX(-1);\""></div><div id=\""delayed\"" style=\""position: fixed;visibility: hidden;left:40%;top:48%\""><img src=\""same_diff_imgs/D11.gif\"" style=\""-webkit-transform: scaleX(-1);transform: scaleX(-1);\""></div>""]","arrowdown","identical_image","same_diff_imgs/D09.gif","same_diff_imgs/D11.gif","yes","different","1","true","","","","","","","","","","","","","","","","","","","","","","","","","","","",""
"","","","","","html-keyboard-response","147","160445","0.0-5.0-2.35","AJF954955YWZG","2022-05-23T17:54:05.846Z","same_different-phon_sim-task_switching-rhyme","","null",""," ","null","","","","","","","","","","","","","","","","","","","","","","","","","","","","","","","","","","",""
"","","","","","html-keyboard-response","148","160754","0.0-5.0-3.35","AJF954955YWZG","2022-05-23T17:54:05.846Z","same_different-phon_sim-task_switching-rhyme","","null","same_different"," ","null","","","","","","","","","","","","","","","","","","","","","","","","","","","","","","","","","","",""
"","","","","","html-keyboard-response","149","161508","0.0-5.0-0.36","AJF954955YWZG","2022-05-23T17:54:05.846Z","same_different-phon_sim-task_switching-rhyme","","null","same_different","<div style=""font-size:60px"">+</div>","null","","","","","","","","","","","","","","","","","","","","","","","","","","","","","","","","","","",""
"","","","","","html-keyboard-response","150","162899","0.0-5.0-1.36","AJF954955YWZG","2022-05-23T17:54:05.846Z","same_different-phon_sim-task_switching-rhyme","","1389.7000000476837","same_different","[""<img src=\""square.png\"" width=\""100\"" height=\""100\"" style=\""position: fixed;left:39%;top:47%\""><img src=\""square.png\"" width=\""100\"" height=\""100\"" style=\""position: fixed;left:54%;top:47%\""><img src=\""square.png\"" width=\""100\"" height=\""100\"" style=\""position: fixed;left:46.5%;top:32%\""><img src=\""square.png\"" width=\""100\"" height=\""100\"" style=\""position: fixed;left:46.5%;top:61%\""><div style=\""font-size:60px; text-align: center;margin-top:45.5%\"">+</div><div id=\""first\"" style=\""position: fixed;visibility: hidden;left:48%;top:34%\""><img src=\""same_diff_imgs/D11.gif\""></div><div id=\""delayed\"" style=\""position: fixed;visibility: hidden;left:40%;top:48%\""><img src=\""same_diff_imgs/D11.gif\""></div>""]","arrowup","identical_image","same_diff_imgs/D11.gif","same_diff_imgs/D11.gif","no","same","","true","1","","","","","","","","","","","","","","","","","","","","","","","","","","",""
"","","","","","html-keyboard-response","151","162901","0.0-5.0-2.36","AJF954955YWZG","2022-05-23T17:54:05.846Z","same_different-phon_sim-task_switching-rhyme","","null",""," ","null","","","","","","","","","","","","","","","","","","","","","","","","","","","","","","","","","","",""
"","","","","","html-keyboard-response","152","163204","0.0-5.0-3.36","AJF954955YWZG","2022-05-23T17:54:05.846Z","same_different-phon_sim-task_switching-rhyme","","null","same_different"," ","null","","","","","","","","","","","","","","","","","","","","","","","","","","","","","","","","","","",""
"","","","","","html-keyboard-response","153","163958","0.0-5.0-0.37","AJF954955YWZG","2022-05-23T17:54:05.846Z","same_different-phon_sim-task_switching-rhyme","","null","same_different","<div style=""font-size:60px"">+</div>","null","","","","","","","","","","","","","","","","","","","","","","","","","","","","","","","","","","",""
"","","","","","html-keyboard-response","154","165595","0.0-5.0-1.37","AJF954955YWZG","2022-05-23T17:54:05.846Z","same_different-phon_sim-task_switching-rhyme","","1635.1000000238419","same_different","[""<img src=\""square.png\"" width=\""100\"" height=\""100\"" style=\""position: fixed;left:39%;top:47%\""><img src=\""square.png\"" width=\""100\"" height=\""100\"" style=\""position: fixed;left:54%;top:47%\""><img src=\""square.png\"" width=\""100\"" height=\""100\"" style=\""position: fixed;left:46.5%;top:32%\""><img src=\""square.png\"" width=\""100\"" height=\""100\"" style=\""position: fixed;left:46.5%;top:61%\""><div style=\""font-size:60px; text-align: center;margin-top:45.5%\"">+</div><div id=\""first\"" style=\""position: fixed;visibility: hidden;left:48%;top:34%\""><img src=\""same_diff_imgs/D09.gif\""></div><div id=\""delayed\"" style=\""position: fixed;visibility: hidden;left:40%;top:48%\""><img src=\""same_diff_imgs/C04.gif\""></div>""]","arrowdown","identical_image","same_diff_imgs/D09.gif","same_diff_imgs/C04.gif","no","different","1","true","","","","","","","","","","","","","","","","","","","","","","","","","","","",""
"","","","","","html-keyboard-response","155","165597","0.0-5.0-2.37","AJF954955YWZG","2022-05-23T17:54:05.846Z","same_different-phon_sim-task_switching-rhyme","","null",""," ","null","","","","","","","","","","","","","","","","","","","","","","","","","","","","","","","","","","",""
"","","","","","html-keyboard-response","156","165909","0.0-5.0-3.37","AJF954955YWZG","2022-05-23T17:54:05.846Z","same_different-phon_sim-task_switching-rhyme","","null","same_different"," ","null","","","","","","","","","","","","","","","","","","","","","","","","","","","","","","","","","","",""
"","","","","","html-keyboard-response","157","166674","0.0-5.0-0.38","AJF954955YWZG","2022-05-23T17:54:05.846Z","same_different-phon_sim-task_switching-rhyme","","null","same_different","<div style=""font-size:60px"">+</div>","null","","","","","","","","","","","","","","","","","","","","","","","","","","","","","","","","","","",""
"","","","","","html-keyboard-response","158","168044","0.0-5.0-1.38","AJF954955YWZG","2022-05-23T17:54:05.846Z","same_different-phon_sim-task_switching-rhyme","","1368.7999999523163","same_different","[""<img src=\""square.png\"" width=\""100\"" height=\""100\"" style=\""position: fixed;left:39%;top:47%\""><img src=\""square.png\"" width=\""100\"" height=\""100\"" style=\""position: fixed;left:54%;top:47%\""><img src=\""square.png\"" width=\""100\"" height=\""100\"" style=\""position: fixed;left:46.5%;top:32%\""><img src=\""square.png\"" width=\""100\"" height=\""100\"" style=\""position: fixed;left:46.5%;top:61%\""><div style=\""font-size:60px; text-align: center;margin-top:45.5%\"">+</div><div id=\""first\"" style=\""position: fixed;visibility: hidden;left:40%;top:48%\""><img src=\""same_diff_imgs/D09.gif\""></div><div id=\""delayed\"" style=\""position: fixed;visibility: hidden;left:48%;top:34%\""><img src=\""same_diff_imgs/D11.gif\""></div>""]","arrowup","identical_image","same_diff_imgs/D09.gif","same_diff_imgs/D11.gif","no","different","","false","","","1","","","","","","","","","","","","","","","","","","","","","","","","",""
"","","","","","html-keyboard-response","159","168559","0.0-5.0-2.38","AJF954955YWZG","2022-05-23T17:54:05.846Z","same_different-phon_sim-task_switching-rhyme","","null","","<div style=""color:darkred; font-size:40px"">Incorrect!</div>","null","","","","","","","","","","","","","","","","","","","","","","","","","","","","","","","","","","",""
"","","","","","html-keyboard-response","160","168871","0.0-5.0-3.38","AJF954955YWZG","2022-05-23T17:54:05.846Z","same_different-phon_sim-task_switching-rhyme","","null","same_different"," ","null","","","","","","","","","","","","","","","","","","","","","","","","","","","","","","","","","","",""
"","","","","","html-keyboard-response","161","169625","0.0-5.0-0.39","AJF954955YWZG","2022-05-23T17:54:05.846Z","same_different-phon_sim-task_switching-rhyme","","null","same_different","<div style=""font-size:60px"">+</div>","null","","","","","","","","","","","","","","","","","","","","","","","","","","","","","","","","","","",""
"","","","","","html-keyboard-response","162","173307","0.0-5.0-1.39","AJF954955YWZG","2022-05-23T17:54:05.846Z","same_different-phon_sim-task_switching-rhyme","","3681.2000000476837","same_different","[""<img src=\""square.png\"" width=\""100\"" height=\""100\"" style=\""position: fixed;left:39%;top:47%\""><img src=\""square.png\"" width=\""100\"" height=\""100\"" style=\""position: fixed;left:54%;top:47%\""><img src=\""square.png\"" width=\""100\"" height=\""100\"" style=\""position: fixed;left:46.5%;top:32%\""><img src=\""square.png\"" width=\""100\"" height=\""100\"" style=\""position: fixed;left:46.5%;top:61%\""><div style=\""font-size:60px;text-align: center;margin-top:45.5%\"">+</div><div id=\""first\"" style=\""position: fixed;visibility: hidden;left:48%;top:62%\""><img src=\""same_diff_imgs/D07.gif\"" style=\""-webkit-transform: scaleX(-1);transform: scaleX(-1);\""></div><div id=\""delayed\"" style=\""position: fixed;visibility: hidden;left:40%;top:48%\""><img src=\""same_diff_imgs/C09.gif\"" style=\""-webkit-transform: scaleX(-1);transform: scaleX(-1);\""></div>""]","arrowdown","identical_image","same_diff_imgs/D07.gif","same_diff_imgs/C09.gif","yes","different","1","true","","","","","","","","","","","","","","","","","","","","","","","","","","","",""
"","","","","","html-keyboard-response","163","173309","0.0-5.0-2.39","AJF954955YWZG","2022-05-23T17:54:05.846Z","same_different-phon_sim-task_switching-rhyme","","null",""," ","null","","","","","","","","","","","","","","","","","","","","","","","","","","","","","","","","","","",""
"","","","","","html-keyboard-response","164","173620","0.0-5.0-3.39","AJF954955YWZG","2022-05-23T17:54:05.846Z","same_different-phon_sim-task_switching-rhyme","","null","same_different"," ","null","","","","","","","","","","","","","","","","","","","","","","","","","","","","","","","","","","",""
"","","","","","html-keyboard-response","165","174376","0.0-5.0-0.40","AJF954955YWZG","2022-05-23T17:54:05.846Z","same_different-phon_sim-task_switching-rhyme","","null","same_different","<div style=""font-size:60px"">+</div>","null","","","","","","","","","","","","","","","","","","","","","","","","","","","","","","","","","","",""
"","","","","","html-keyboard-response","166","175859","0.0-5.0-1.40","AJF954955YWZG","2022-05-23T17:54:05.846Z","same_different-phon_sim-task_switching-rhyme","","1481.8999999761581","same_different","[""<img src=\""square.png\"" width=\""100\"" height=\""100\"" style=\""position: fixed;left:39%;top:47%\""><img src=\""square.png\"" width=\""100\"" height=\""100\"" style=\""position: fixed;left:54%;top:47%\""><img src=\""square.png\"" width=\""100\"" height=\""100\"" style=\""position: fixed;left:46.5%;top:32%\""><img src=\""square.png\"" width=\""100\"" height=\""100\"" style=\""position: fixed;left:46.5%;top:61%\""><div style=\""font-size:60px;text-align: center;margin-top:45.5%\"">+</div><div id=\""first\"" style=\""position: fixed;visibility: hidden;left:40%;top:48%\""><img src=\""same_diff_imgs/C14.gif\"" style=\""-webkit-transform: scaleX(-1);transform: scaleX(-1);\""></div><div id=\""delayed\"" style=\""position: fixed;visibility: hidden;left:48%;top:62%\""><img src=\""same_diff_imgs/D07.gif\"" style=\""-webkit-transform: scaleX(-1);transform: scaleX(-1);\""></div>""]","arrowdown","identical_image","same_diff_imgs/C14.gif","same_diff_imgs/D07.gif","yes","different","1","true","","","","","","","","","","","","","","","","","","","","","","","","","","","",""
"","","","","","html-keyboard-response","167","175861","0.0-5.0-2.40","AJF954955YWZG","2022-05-23T17:54:05.846Z","same_different-phon_sim-task_switching-rhyme","","null",""," ","null","","","","","","","","","","","","","","","","","","","","","","","","","","","","","","","","","","",""
"","","","","","html-keyboard-response","168","176170","0.0-5.0-3.40","AJF954955YWZG","2022-05-23T17:54:05.846Z","same_different-phon_sim-task_switching-rhyme","","null","same_different"," ","null","","","","","","","","","","","","","","","","","","","","","","","","","","","","","","","","","","",""
"","","","","","html-keyboard-response","169","176924","0.0-5.0-0.41","AJF954955YWZG","2022-05-23T17:54:05.846Z","same_different-phon_sim-task_switching-rhyme","","null","same_different","<div style=""font-size:60px"">+</div>","null","","","","","","","","","","","","","","","","","","","","","","","","","","","","","","","","","","",""
"","","","","","html-keyboard-response","170","178596","0.0-5.0-1.41","AJF954955YWZG","2022-05-23T17:54:05.846Z","same_different-phon_sim-task_switching-rhyme","","1670.6000000238419","same_different","[""<img src=\""square.png\"" width=\""100\"" height=\""100\"" style=\""position: fixed;left:39%;top:47%\""><img src=\""square.png\"" width=\""100\"" height=\""100\"" style=\""position: fixed;left:54%;top:47%\""><img src=\""square.png\"" width=\""100\"" height=\""100\"" style=\""position: fixed;left:46.5%;top:32%\""><img src=\""square.png\"" width=\""100\"" height=\""100\"" style=\""position: fixed;left:46.5%;top:61%\""><div style=\""font-size:60px; text-align: center;margin-top:45.5%\"">+</div><div id=\""first\"" style=\""position: fixed;visibility: hidden;left:48%;top:62%\""><img src=\""same_diff_imgs/D11.gif\""></div><div id=\""delayed\"" style=\""position: fixed;visibility: hidden;left:48%;top:34%\""><img src=\""same_diff_imgs/D11.gif\""></div>""]","arrowup","identical_image","same_diff_imgs/D11.gif","same_diff_imgs/D11.gif","no","same","","true","1","","","","","","","","","","","","","","","","","","","","","","","","","","",""
"","","","","","html-keyboard-response","171","178598","0.0-5.0-2.41","AJF954955YWZG","2022-05-23T17:54:05.846Z","same_different-phon_sim-task_switching-rhyme","","null",""," ","null","","","","","","","","","","","","","","","","","","","","","","","","","","","","","","","","","","",""
"","","","","","html-keyboard-response","172","178903","0.0-5.0-3.41","AJF954955YWZG","2022-05-23T17:54:05.846Z","same_different-phon_sim-task_switching-rhyme","","null","same_different"," ","null","","","","","","","","","","","","","","","","","","","","","","","","","","","","","","","","","","",""
"","","","","","html-keyboard-response","173","179657","0.0-5.0-0.42","AJF954955YWZG","2022-05-23T17:54:05.846Z","same_different-phon_sim-task_switching-rhyme","","null","same_different","<div style=""font-size:60px"">+</div>","null","","","","","","","","","","","","","","","","","","","","","","","","","","","","","","","","","","",""
"","","","","","html-keyboard-response","174","183155","0.0-5.0-1.42","AJF954955YWZG","2022-05-23T17:54:05.846Z","same_different-phon_sim-task_switching-rhyme","","3496.3000000715256","same_different","[""<img src=\""square.png\"" width=\""100\"" height=\""100\"" style=\""position: fixed;left:39%;top:47%\""><img src=\""square.png\"" width=\""100\"" height=\""100\"" style=\""position: fixed;left:54%;top:47%\""><img src=\""square.png\"" width=\""100\"" height=\""100\"" style=\""position: fixed;left:46.5%;top:32%\""><img src=\""square.png\"" width=\""100\"" height=\""100\"" style=\""position: fixed;left:46.5%;top:61%\""><div style=\""font-size:60px;text-align: center;margin-top:45.5%\"">+</div><div id=\""first\"" style=\""position: fixed;visibility: hidden;left:55%;top:49%\""><img src=\""same_diff_imgs/C14.gif\"" style=\""-webkit-transform: scaleX(-1);transform: scaleX(-1);\""></div><div id=\""delayed\"" style=\""position: fixed;visibility: hidden;left:40%;top:48%\""><img src=\""same_diff_imgs/C04.gif\"" style=\""-webkit-transform: scaleX(-1);transform: scaleX(-1);\""></div>""]","arrowdown","identical_image","same_diff_imgs/C14.gif","same_diff_imgs/C04.gif","yes","different","1","true","","","","","","","","","","","","","","","","","","","","","","","","","","","",""
"","","","","","html-keyboard-response","175","183158","0.0-5.0-2.42","AJF954955YWZG","2022-05-23T17:54:05.846Z","same_different-phon_sim-task_switching-rhyme","","null",""," ","null","","","","","","","","","","","","","","","","","","","","","","","","","","","","","","","","","","",""
"","","","","","html-keyboard-response","176","183470","0.0-5.0-3.42","AJF954955YWZG","2022-05-23T17:54:05.846Z","same_different-phon_sim-task_switching-rhyme","","null","same_different"," ","null","","","","","","","","","","","","","","","","","","","","","","","","","","","","","","","","","","",""
"","","","","","html-keyboard-response","177","184224","0.0-5.0-0.43","AJF954955YWZG","2022-05-23T17:54:05.846Z","same_different-phon_sim-task_switching-rhyme","","null","same_different","<div style=""font-size:60px"">+</div>","null","","","","","","","","","","","","","","","","","","","","","","","","","","","","","","","","","","",""
"","","","","","html-keyboard-response","178","188963","0.0-5.0-1.43","AJF954955YWZG","2022-05-23T17:54:05.846Z","same_different-phon_sim-task_switching-rhyme","","4738.200000047684","same_different","[""<img src=\""square.png\"" width=\""100\"" height=\""100\"" style=\""position: fixed;left:39%;top:47%\""><img src=\""square.png\"" width=\""100\"" height=\""100\"" style=\""position: fixed;left:54%;top:47%\""><img src=\""square.png\"" width=\""100\"" height=\""100\"" style=\""position: fixed;left:46.5%;top:32%\""><img src=\""square.png\"" width=\""100\"" height=\""100\"" style=\""position: fixed;left:46.5%;top:61%\""><div style=\""font-size:60px; text-align: center;margin-top:45.5%\"">+</div><div id=\""first\"" style=\""position: fixed;visibility: hidden;left:48%;top:34%\""><img src=\""same_diff_imgs/D07.gif\""></div><div id=\""delayed\"" style=\""position: fixed;visibility: hidden;left:48%;top:62%\""><img src=\""same_diff_imgs/D11.gif\""></div>""]","arrowdown","identical_image","same_diff_imgs/D07.gif","same_diff_imgs/D11.gif","no","different","1","true","","","","","","","","","","","","","","","","","","","","","","","","","","","",""
"","","","","","html-keyboard-response","179","188965","0.0-5.0-2.43","AJF954955YWZG","2022-05-23T17:54:05.846Z","same_different-phon_sim-task_switching-rhyme","","null",""," ","null","","","","","","","","","","","","","","","","","","","","","","","","","","","","","","","","","","",""
"","","","","","html-keyboard-response","180","189270","0.0-5.0-3.43","AJF954955YWZG","2022-05-23T17:54:05.846Z","same_different-phon_sim-task_switching-rhyme","","null","same_different"," ","null","","","","","","","","","","","","","","","","","","","","","","","","","","","","","","","","","","",""
"","","","","","html-keyboard-response","181","190024","0.0-5.0-0.44","AJF954955YWZG","2022-05-23T17:54:05.846Z","same_different-phon_sim-task_switching-rhyme","","null","same_different","<div style=""font-size:60px"">+</div>","null","","","","","","","","","","","","","","","","","","","","","","","","","","","","","","","","","","",""
"","","","","","html-keyboard-response","182","192803","0.0-5.0-1.44","AJF954955YWZG","2022-05-23T17:54:05.846Z","same_different-phon_sim-task_switching-rhyme","","2778.2000000476837","same_different","[""<img src=\""square.png\"" width=\""100\"" height=\""100\"" style=\""position: fixed;left:39%;top:47%\""><img src=\""square.png\"" width=\""100\"" height=\""100\"" style=\""position: fixed;left:54%;top:47%\""><img src=\""square.png\"" width=\""100\"" height=\""100\"" style=\""position: fixed;left:46.5%;top:32%\""><img src=\""square.png\"" width=\""100\"" height=\""100\"" style=\""position: fixed;left:46.5%;top:61%\""><div style=\""font-size:60px;text-align: center;margin-top:45.5%\"">+</div><div id=\""first\"" style=\""position: fixed;visibility: hidden;left:40%;top:48%\""><img src=\""same_diff_imgs/C14.gif\"" style=\""-webkit-transform: scaleX(-1);transform: scaleX(-1);\""></div><div id=\""delayed\"" style=\""position: fixed;visibility: hidden;left:55%;top:49%\""><img src=\""same_diff_imgs/C09.gif\"" style=\""-webkit-transform: scaleX(-1);transform: scaleX(-1);\""></div>""]","arrowdown","identical_image","same_diff_imgs/C14.gif","same_diff_imgs/C09.gif","yes","different","1","true","","","","","","","","","","","","","","","","","","","","","","","","","","","",""
"","","","","","html-keyboard-response","183","192805","0.0-5.0-2.44","AJF954955YWZG","2022-05-23T17:54:05.846Z","same_different-phon_sim-task_switching-rhyme","","null",""," ","null","","","","","","","","","","","","","","","","","","","","","","","","","","","","","","","","","","",""
"","","","","","html-keyboard-response","184","193119","0.0-5.0-3.44","AJF954955YWZG","2022-05-23T17:54:05.846Z","same_different-phon_sim-task_switching-rhyme","","null","same_different"," ","null","","","","","","","","","","","","","","","","","","","","","","","","","","","","","","","","","","",""
"","","","","","html-keyboard-response","185","193873","0.0-5.0-0.45","AJF954955YWZG","2022-05-23T17:54:05.846Z","same_different-phon_sim-task_switching-rhyme","","null","same_different","<div style=""font-size:60px"">+</div>","null","","","","","","","","","","","","","","","","","","","","","","","","","","","","","","","","","","",""
"","","","","","html-keyboard-response","186","196627","0.0-5.0-1.45","AJF954955YWZG","2022-05-23T17:54:05.846Z","same_different-phon_sim-task_switching-rhyme","","2752.600000023842","same_different","[""<img src=\""square.png\"" width=\""100\"" height=\""100\"" style=\""position: fixed;left:39%;top:47%\""><img src=\""square.png\"" width=\""100\"" height=\""100\"" style=\""position: fixed;left:54%;top:47%\""><img src=\""square.png\"" width=\""100\"" height=\""100\"" style=\""position: fixed;left:46.5%;top:32%\""><img src=\""square.png\"" width=\""100\"" height=\""100\"" style=\""position: fixed;left:46.5%;top:61%\""><div style=\""font-size:60px; text-align: center;margin-top:45.5%\"">+</div><div id=\""first\"" style=\""position: fixed;visibility: hidden;left:48%;top:62%\""><img src=\""same_diff_imgs/D09.gif\""></div><div id=\""delayed\"" style=\""position: fixed;visibility: hidden;left:55%;top:49%\""><img src=\""same_diff_imgs/D07.gif\""></div>""]","arrowdown","identical_image","same_diff_imgs/D09.gif","same_diff_imgs/D07.gif","no","different","1","true","","","","","","","","","","","","","","","","","","","","","","","","","","","",""
"","","","","","html-keyboard-response","187","196629","0.0-5.0-2.45","AJF954955YWZG","2022-05-23T17:54:05.846Z","same_different-phon_sim-task_switching-rhyme","","null",""," ","null","","","","","","","","","","","","","","","","","","","","","","","","","","","","","","","","","","",""
"","","","","","html-keyboard-response","188","196936","0.0-5.0-3.45","AJF954955YWZG","2022-05-23T17:54:05.846Z","same_different-phon_sim-task_switching-rhyme","","null","same_different"," ","null","","","","","","","","","","","","","","","","","","","","","","","","","","","","","","","","","","",""
