"success","timeout","failed_images","failed_audio","failed_video","trial_type","trial_index","time_elapsed","internal_node_id","worker_id","start_time","experiment_order","view_history","rt","experiment","response","phase","stimulus","condition","answer","correct","operation","color_cue","trial_no","symbol_cue","question_order","talk_out_loud","strategy_free_ans","judgment_type","stim_1","stim_2","inverted","true_pos","true_neg","false_pos","false_neg","word_1","word_2","word_3","word_4","word_5","original_word_set","response_1","response_2","response_3","response_4","response_5","wait_time","image_1","image_2","cor_key","type"
"true","false","[]","[]","[]","preload","0","60","0.0-0.0","A337X6ZE9WIIU7","2022-05-24T03:50:46.200Z","task_switching-same_different-phon_sim-rhyme","","","","","","","","","","","","","","","","","","","","","","","","","","","","","","","","","","","","","","","",""
"","","","","","instructions","1","24289","0.0-1.0","A337X6ZE9WIIU7","2022-05-24T03:50:46.200Z","task_switching-same_different-phon_sim-rhyme","[{""page_index"":0,""viewing_time"":24228.80000001192}]","24229","","","","","","","","","","","","","","","","","","","","","","","","","","","","","","","","","","","","","",""
"true","","","","","fullscreen","2","28214","0.0-2.0","A337X6ZE9WIIU7","2022-05-24T03:50:46.200Z","task_switching-same_different-phon_sim-rhyme","","","","","","","","","","","","","","","","","","","","","","","","","","","","","","","","","","","","","","","",""
"","","","","","instructions","3","69024","0.0-3.0","A337X6ZE9WIIU7","2022-05-24T03:50:46.200Z","task_switching-same_different-phon_sim-rhyme","[{""page_index"":0,""viewing_time"":40808.39999997616}]","40808.59999999404","task_switching","","","","","","","","","","","","","","","","","","","","","","","","","","","","","","","","","","","","",""
"","","","","","instructions","4","72211","0.0-4.0","A337X6ZE9WIIU7","2022-05-24T03:50:46.200Z","task_switching-same_different-phon_sim-rhyme","[{""page_index"":0,""viewing_time"":3186.0999999940395}]","3186.300000011921","task_switching","","","","","","","","","","","","","","","","","","","","","","","","","","","","","","","","","","","","",""
"","","","","","survey-text","5","73908","0.0-5.0","A337X6ZE9WIIU7","2022-05-24T03:50:46.200Z","task_switching-same_different-phon_sim-rhyme","","1694.300000011921","task_switching","{""subtraction_ans"":""33""}","training","36","subtraction","33","true","subtract","","","","","","","","","","","","","","","","","","","","","","","","","","","","","",""
"","","","","","html-keyboard-response","6","74909","0.0-6.0","A337X6ZE9WIIU7","2022-05-24T03:50:46.200Z","task_switching-same_different-phon_sim-rhyme","","null","task_switching","null","training","<div style=""color:darkgreen; font-size:60px"">Well done!</div>","subtraction","","","","","","","","","","","","","","","","","","","","","","","","","","","","","","","","",""
"","","","","","survey-text","7","77479","0.0-7.0","A337X6ZE9WIIU7","2022-05-24T03:50:46.200Z","task_switching-same_different-phon_sim-rhyme","","2568.399999976158","task_switching","{""subtraction_ans"":""13""}","training","16","subtraction","13","true","subtract","","","","","","","","","","","","","","","","","","","","","","","","","","","","","",""
"","","","","","html-keyboard-response","8","78492","0.0-8.0","A337X6ZE9WIIU7","2022-05-24T03:50:46.200Z","task_switching-same_different-phon_sim-rhyme","","null","task_switching","null","training","<div style=""color:darkgreen; font-size:60px"">Well done!</div>","subtraction","","","","","","","","","","","","","","","","","","","","","","","","","","","","","","","","",""
"","","","","","survey-text","9","80221","0.0-9.0","A337X6ZE9WIIU7","2022-05-24T03:50:46.200Z","task_switching-same_different-phon_sim-rhyme","","1727.2000000178814","task_switching","{""subtraction_ans"":""55""}","training","58","subtraction","55","true","subtract","","","","","","","","","","","","","","","","","","","","","","","","","","","","","",""
"","","","","","html-keyboard-response","10","81222","0.0-10.0","A337X6ZE9WIIU7","2022-05-24T03:50:46.200Z","task_switching-same_different-phon_sim-rhyme","","null","task_switching","null","training","<div style=""color:darkgreen; font-size:60px"">Well done!</div>","subtraction","","","","","","","","","","","","","","","","","","","","","","","","","","","","","","","","",""
"","","","","","survey-text","11","83058","0.0-11.0","A337X6ZE9WIIU7","2022-05-24T03:50:46.200Z","task_switching-same_different-phon_sim-rhyme","","1834.5999999940395","task_switching","{""subtraction_ans"":""45""}","training","48","subtraction","45","true","subtract","","","","","","","","","","","","","","","","","","","","","","","","","","","","","",""
"","","","","","html-keyboard-response","12","84069","0.0-12.0","A337X6ZE9WIIU7","2022-05-24T03:50:46.200Z","task_switching-same_different-phon_sim-rhyme","","null","task_switching","null","training","<div style=""color:darkgreen; font-size:60px"">Well done!</div>","subtraction","","","","","","","","","","","","","","","","","","","","","","","","","","","","","","","","",""
"","","","","","survey-text","13","86167","0.0-13.0","A337X6ZE9WIIU7","2022-05-24T03:50:46.200Z","task_switching-same_different-phon_sim-rhyme","","2096.5","task_switching","{""subtraction_ans"":""21""}","training","24","subtraction","21","true","subtract","","","","","","","","","","","","","","","","","","","","","","","","","","","","","",""
"","","","","","html-keyboard-response","14","87173","0.0-14.0","A337X6ZE9WIIU7","2022-05-24T03:50:46.200Z","task_switching-same_different-phon_sim-rhyme","","null","task_switching","null","training","<div style=""color:darkgreen; font-size:60px"">Well done!</div>","subtraction","","","","","","","","","","","","","","","","","","","","","","","","","","","","","","","","",""
"","","","","","survey-text","15","88623","0.0-15.0","A337X6ZE9WIIU7","2022-05-24T03:50:46.200Z","task_switching-same_different-phon_sim-rhyme","","1448.4000000059605","task_switching","{""subtraction_ans"":""41""}","training","44","subtraction","41","true","subtract","","","","","","","","","","","","","","","","","","","","","","","","","","","","","",""
"","","","","","html-keyboard-response","16","89636","0.0-16.0","A337X6ZE9WIIU7","2022-05-24T03:50:46.200Z","task_switching-same_different-phon_sim-rhyme","","null","task_switching","null","training","<div style=""color:darkgreen; font-size:60px"">Well done!</div>","subtraction","","","","","","","","","","","","","","","","","","","","","","","","","","","","","","","","",""
"","","","","","survey-text","17","91278","0.0-17.0","A337X6ZE9WIIU7","2022-05-24T03:50:46.200Z","task_switching-same_different-phon_sim-rhyme","","1639.9000000059605","task_switching","{""subtraction_ans"":""66""}","training","69","subtraction","66","true","subtract","","","","","","","","","","","","","","","","","","","","","","","","","","","","","",""
"","","","","","html-keyboard-response","18","92289","0.0-18.0","A337X6ZE9WIIU7","2022-05-24T03:50:46.200Z","task_switching-same_different-phon_sim-rhyme","","null","task_switching","null","training","<div style=""color:darkgreen; font-size:60px"">Well done!</div>","subtraction","","","","","","","","","","","","","","","","","","","","","","","","","","","","","","","","",""
"","","","","","survey-text","19","93606","0.0-19.0","A337X6ZE9WIIU7","2022-05-24T03:50:46.200Z","task_switching-same_different-phon_sim-rhyme","","1316.0999999940395","task_switching","{""subtraction_ans"":""60""}","training","63","subtraction","60","true","subtract","","","","","","","","","","","","","","","","","","","","","","","","","","","","","",""
"","","","","","html-keyboard-response","20","94612","0.0-20.0","A337X6ZE9WIIU7","2022-05-24T03:50:46.200Z","task_switching-same_different-phon_sim-rhyme","","null","task_switching","null","training","<div style=""color:darkgreen; font-size:60px"">Well done!</div>","subtraction","","","","","","","","","","","","","","","","","","","","","","","","","","","","","","","","",""
"","","","","","survey-text","21","96644","0.0-21.0","A337X6ZE9WIIU7","2022-05-24T03:50:46.200Z","task_switching-same_different-phon_sim-rhyme","","2030.8999999761581","task_switching","{""subtraction_ans"":""32""}","training","35","subtraction","32","true","subtract","","","","","","","","","","","","","","","","","","","","","","","","","","","","","",""
"","","","","","html-keyboard-response","22","97654","0.0-22.0","A337X6ZE9WIIU7","2022-05-24T03:50:46.200Z","task_switching-same_different-phon_sim-rhyme","","null","task_switching","null","training","<div style=""color:darkgreen; font-size:60px"">Well done!</div>","subtraction","","","","","","","","","","","","","","","","","","","","","","","","","","","","","","","","",""
"","","","","","survey-text","23","98860","0.0-23.0","A337X6ZE9WIIU7","2022-05-24T03:50:46.200Z","task_switching-same_different-phon_sim-rhyme","","1205.300000011921","task_switching","{""subtraction_ans"":""91""}","training","94","subtraction","91","true","subtract","","","","","","","","","","","","","","","","","","","","","","","","","","","","","",""
"","","","","","html-keyboard-response","24","99866","0.0-24.0","A337X6ZE9WIIU7","2022-05-24T03:50:46.200Z","task_switching-same_different-phon_sim-rhyme","","null","task_switching","null","training","<div style=""color:darkgreen; font-size:60px"">Well done!</div>","subtraction","","","","","","","","","","","","","","","","","","","","","","","","","","","","","","","","",""
"","","","","","instructions","25","125287","0.0-25.0","A337X6ZE9WIIU7","2022-05-24T03:50:46.200Z","task_switching-same_different-phon_sim-rhyme","[{""page_index"":0,""viewing_time"":25420.19999998808}]","25420.40000000596","task_switching","","","","","","","","","","","","","","","","","","","","","","","","","","","","","","","","","","","","",""
"","","","","","survey-text","26","126975","0.0-26.0","A337X6ZE9WIIU7","2022-05-24T03:50:46.200Z","task_switching-same_different-phon_sim-rhyme","","1686.7999999821186","task_switching","{""subtraction_ans"":""51""}","experiment","54","subtraction","51","true","subtract","","","","","","","","","","","","","","","","","","","","","","","","","","","","","",""
"","","","","","survey-text","27","128472","0.0-27.0","A337X6ZE9WIIU7","2022-05-24T03:50:46.200Z","task_switching-same_different-phon_sim-rhyme","","1495.5","task_switching","{""subtraction_ans"":""61""}","experiment","64","subtraction","61","true","subtract","","","","","","","","","","","","","","","","","","","","","","","","","","","","","",""
"","","","","","survey-text","28","132241","0.0-28.0","A337X6ZE9WIIU7","2022-05-24T03:50:46.200Z","task_switching-same_different-phon_sim-rhyme","","3767.9000000059605","task_switching","{""subtraction_ans"":""68""}","experiment","71","subtraction","68","true","subtract","","","","","","","","","","","","","","","","","","","","","","","","","","","","","",""
"","","","","","survey-text","29","134310","0.0-29.0","A337X6ZE9WIIU7","2022-05-24T03:50:46.200Z","task_switching-same_different-phon_sim-rhyme","","2068.5","task_switching","{""subtraction_ans"":""24""}","experiment","27","subtraction","24","true","subtract","","","","","","","","","","","","","","","","","","","","","","","","","","","","","",""
"","","","","","survey-text","30","135953","0.0-30.0","A337X6ZE9WIIU7","2022-05-24T03:50:46.200Z","task_switching-same_different-phon_sim-rhyme","","1641.2999999821186","task_switching","{""subtraction_ans"":""40""}","experiment","43","subtraction","40","true","subtract","","","","","","","","","","","","","","","","","","","","","","","","","","","","","",""
"","","","","","survey-text","31","137055","0.0-31.0","A337X6ZE9WIIU7","2022-05-24T03:50:46.200Z","task_switching-same_different-phon_sim-rhyme","","1101.0999999940395","task_switching","{""subtraction_ans"":""10""}","experiment","13","subtraction","10","true","subtract","","","","","","","","","","","","","","","","","","","","","","","","","","","","","",""
"","","","","","survey-text","32","138248","0.0-32.0","A337X6ZE9WIIU7","2022-05-24T03:50:46.200Z","task_switching-same_different-phon_sim-rhyme","","1192","task_switching","{""subtraction_ans"":""35""}","experiment","38","subtraction","35","true","subtract","","","","","","","","","","","","","","","","","","","","","","","","","","","","","",""
"","","","","","survey-text","33","140002","0.0-33.0","A337X6ZE9WIIU7","2022-05-24T03:50:46.200Z","task_switching-same_different-phon_sim-rhyme","","1753.1000000238419","task_switching","{""subtraction_ans"":""69""}","experiment","72","subtraction","69","true","subtract","","","","","","","","","","","","","","","","","","","","","","","","","","","","","",""
"","","","","","survey-text","34","141668","0.0-34.0","A337X6ZE9WIIU7","2022-05-24T03:50:46.200Z","task_switching-same_different-phon_sim-rhyme","","1664.3999999761581","task_switching","{""subtraction_ans"":""96""}","experiment","99","subtraction","96","true","subtract","","","","","","","","","","","","","","","","","","","","","","","","","","","","","",""
"","","","","","survey-text","35","143434","0.0-35.0","A337X6ZE9WIIU7","2022-05-24T03:50:46.200Z","task_switching-same_different-phon_sim-rhyme","","1765.199999988079","task_switching","{""subtraction_ans"":""79""}","experiment","82","subtraction","79","true","subtract","","","","","","","","","","","","","","","","","","","","","","","","","","","","","",""
"","","","","","survey-text","36","145538","0.0-36.0","A337X6ZE9WIIU7","2022-05-24T03:50:46.200Z","task_switching-same_different-phon_sim-rhyme","","2102.800000011921","task_switching","{""subtraction_ans"":""14""}","experiment","17","subtraction","14","true","subtract","","","","","","","","","","","","","","","","","","","","","","","","","","","","","",""
"","","","","","survey-text","37","146786","0.0-37.0","A337X6ZE9WIIU7","2022-05-24T03:50:46.200Z","task_switching-same_different-phon_sim-rhyme","","1247","task_switching","{""subtraction_ans"":""12""}","experiment","15","subtraction","12","true","subtract","","","","","","","","","","","","","","","","","","","","","","","","","","","","","",""
"","","","","","survey-text","38","148272","0.0-38.0","A337X6ZE9WIIU7","2022-05-24T03:50:46.200Z","task_switching-same_different-phon_sim-rhyme","","1484.2999999821186","task_switching","{""subtraction_ans"":""43""}","experiment","46","subtraction","43","true","subtract","","","","","","","","","","","","","","","","","","","","","","","","","","","","","",""
"","","","","","survey-text","39","149858","0.0-39.0","A337X6ZE9WIIU7","2022-05-24T03:50:46.200Z","task_switching-same_different-phon_sim-rhyme","","1584.7000000178814","task_switching","{""subtraction_ans"":""66""}","experiment","69","subtraction","66","true","subtract","","","","","","","","","","","","","","","","","","","","","","","","","","","","","",""
"","","","","","survey-text","40","153121","0.0-40.0","A337X6ZE9WIIU7","2022-05-24T03:50:46.200Z","task_switching-same_different-phon_sim-rhyme","","3261.5","task_switching","{""subtraction_ans"":""74""}","experiment","77","subtraction","74","true","subtract","","","","","","","","","","","","","","","","","","","","","","","","","","","","","",""
"","","","","","survey-text","41","154470","0.0-41.0","A337X6ZE9WIIU7","2022-05-24T03:50:46.200Z","task_switching-same_different-phon_sim-rhyme","","1348.4000000059605","task_switching","{""subtraction_ans"":""42""}","experiment","45","subtraction","42","true","subtract","","","","","","","","","","","","","","","","","","","","","","","","","","","","","",""
"","","","","","survey-text","42","155618","0.0-42.0","A337X6ZE9WIIU7","2022-05-24T03:50:46.200Z","task_switching-same_different-phon_sim-rhyme","","1147.0999999940395","task_switching","{""subtraction_ans"":""50""}","experiment","53","subtraction","50","true","subtract","","","","","","","","","","","","","","","","","","","","","","","","","","","","","",""
"","","","","","survey-text","43","157789","0.0-43.0","A337X6ZE9WIIU7","2022-05-24T03:50:46.200Z","task_switching-same_different-phon_sim-rhyme","","2169.5999999940395","task_switching","{""subtraction_ans"":""57""}","experiment","60","subtraction","57","true","subtract","","","","","","","","","","","","","","","","","","","","","","","","","","","","","",""
"","","","","","survey-text","44","159365","0.0-44.0","A337X6ZE9WIIU7","2022-05-24T03:50:46.200Z","task_switching-same_different-phon_sim-rhyme","","1574.7000000178814","task_switching","{""subtraction_ans"":""64""}","experiment","67","subtraction","64","true","subtract","","","","","","","","","","","","","","","","","","","","","","","","","","","","","",""
"","","","","","survey-text","45","162166","0.0-45.0","A337X6ZE9WIIU7","2022-05-24T03:50:46.200Z","task_switching-same_different-phon_sim-rhyme","","2800","task_switching","{""subtraction_ans"":""89""}","experiment","92","subtraction","89","true","subtract","","","","","","","","","","","","","","","","","","","","","","","","","","","","","",""
"","","","","","survey-text","46","164427","0.0-46.0","A337X6ZE9WIIU7","2022-05-24T03:50:46.200Z","task_switching-same_different-phon_sim-rhyme","","2260","task_switching","{""subtraction_ans"":""63""}","experiment","66","subtraction","63","true","subtract","","","","","","","","","","","","","","","","","","","","","","","","","","","","","",""
"","","","","","survey-text","47","165844","0.0-47.0","A337X6ZE9WIIU7","2022-05-24T03:50:46.200Z","task_switching-same_different-phon_sim-rhyme","","1415.9000000059605","task_switching","{""subtraction_ans"":""31""}","experiment","34","subtraction","31","true","subtract","","","","","","","","","","","","","","","","","","","","","","","","","","","","","",""
"","","","","","survey-text","48","167655","0.0-48.0","A337X6ZE9WIIU7","2022-05-24T03:50:46.200Z","task_switching-same_different-phon_sim-rhyme","","1809.7000000178814","task_switching","{""subtraction_ans"":""34""}","experiment","37","subtraction","34","true","subtract","","","","","","","","","","","","","","","","","","","","","","","","","","","","","",""
"","","","","","survey-text","49","168836","0.0-49.0","A337X6ZE9WIIU7","2022-05-24T03:50:46.200Z","task_switching-same_different-phon_sim-rhyme","","1180.2000000178814","task_switching","{""subtraction_ans"":""72""}","experiment","75","subtraction","72","true","subtract","","","","","","","","","","","","","","","","","","","","","","","","","","","","","",""
"","","","","","survey-text","50","170671","0.0-50.0","A337X6ZE9WIIU7","2022-05-24T03:50:46.200Z","task_switching-same_different-phon_sim-rhyme","","1833","task_switching","{""subtraction_ans"":""31""}","experiment","24","subtraction","31","false","subtract","","","","","","","","","","","","","","","","","","","","","","","","","","","","","",""
"","","","","","survey-text","51","173078","0.0-51.0","A337X6ZE9WIIU7","2022-05-24T03:50:46.200Z","task_switching-same_different-phon_sim-rhyme","","2406.4000000059605","task_switching","{""subtraction_ans"":""16""}","experiment","18","subtraction","16","false","subtract","","","","","","","","","","","","","","","","","","","","","","","","","","","","","",""
"","","","","","survey-text","52","174394","0.0-52.0","A337X6ZE9WIIU7","2022-05-24T03:50:46.200Z","task_switching-same_different-phon_sim-rhyme","","1315","task_switching","{""subtraction_ans"":""65""}","experiment","68","subtraction","65","true","subtract","","","","","","","","","","","","","","","","","","","","","","","","","","","","","",""
"","","","","","survey-text","53","178265","0.0-53.0","A337X6ZE9WIIU7","2022-05-24T03:50:46.200Z","task_switching-same_different-phon_sim-rhyme","","3869.0999999940395","task_switching","{""subtraction_ans"":""28""}","experiment","31","subtraction","28","true","subtract","","","","","","","","","","","","","","","","","","","","","","","","","","","","","",""
"","","","","","survey-text","54","179356","0.0-54.0","A337X6ZE9WIIU7","2022-05-24T03:50:46.200Z","task_switching-same_different-phon_sim-rhyme","","1089.800000011921","task_switching","{""subtraction_ans"":""70""}","experiment","73","subtraction","70","true","subtract","","","","","","","","","","","","","","","","","","","","","","","","","","","","","",""
"","","","","","survey-text","55","180987","0.0-55.0","A337X6ZE9WIIU7","2022-05-24T03:50:46.200Z","task_switching-same_different-phon_sim-rhyme","","1630.5","task_switching","{""subtraction_ans"":""27""}","experiment","30","subtraction","27","true","subtract","","","","","","","","","","","","","","","","","","","","","","","","","","","","","",""
"","","","","","instructions","56","254199","0.0-56.0","A337X6ZE9WIIU7","2022-05-24T03:50:46.200Z","task_switching-same_different-phon_sim-rhyme","[{""page_index"":0,""viewing_time"":73211.20000001788}]","73211.30000001192","task_switching","","","","","","","","","","","","","","","","","","","","","","","","","","","","","","","","","","","","",""
"","","","","","survey-text","57","256399","0.0-57.0","A337X6ZE9WIIU7","2022-05-24T03:50:46.200Z","task_switching-same_different-phon_sim-rhyme","","2198.800000011921","task_switching","{""addition_ans"":""69""}","training","66","addition","69","true","add","","","","","","","","","","","","","","","","","","","","","","","","","","","","","",""
"","","","","","html-keyboard-response","58","257413","0.0-58.0","A337X6ZE9WIIU7","2022-05-24T03:50:46.200Z","task_switching-same_different-phon_sim-rhyme","","null","task_switching","null","training","<div style=""color:darkgreen; font-size:60px"">Well done!</div>","addition","","","","","","","","","","","","","","","","","","","","","","","","","","","","","","","","",""
"","","","","","survey-text","59","259245","0.0-59.0","A337X6ZE9WIIU7","2022-05-24T03:50:46.200Z","task_switching-same_different-phon_sim-rhyme","","1831","task_switching","{""addition_ans"":""90""}","training","87","addition","90","true","add","","","","","","","","","","","","","","","","","","","","","","","","","","","","","",""
"","","","","","html-keyboard-response","60","260253","0.0-60.0","A337X6ZE9WIIU7","2022-05-24T03:50:46.200Z","task_switching-same_different-phon_sim-rhyme","","null","task_switching","null","training","<div style=""color:darkgreen; font-size:60px"">Well done!</div>","addition","","","","","","","","","","","","","","","","","","","","","","","","","","","","","","","","",""
"","","","","","survey-text","61","261686","0.0-61.0","A337X6ZE9WIIU7","2022-05-24T03:50:46.200Z","task_switching-same_different-phon_sim-rhyme","","1432.5999999940395","task_switching","{""addition_ans"":""73""}","training","70","addition","73","true","add","","","","","","","","","","","","","","","","","","","","","","","","","","","","","",""
"","","","","","html-keyboard-response","62","262696","0.0-62.0","A337X6ZE9WIIU7","2022-05-24T03:50:46.200Z","task_switching-same_different-phon_sim-rhyme","","null","task_switching","null","training","<div style=""color:darkgreen; font-size:60px"">Well done!</div>","addition","","","","","","","","","","","","","","","","","","","","","","","","","","","","","","","","",""
"","","","","","survey-text","63","263791","0.0-63.0","A337X6ZE9WIIU7","2022-05-24T03:50:46.200Z","task_switching-same_different-phon_sim-rhyme","","1093.800000011921","task_switching","{""addition_ans"":""84""}","training","81","addition","84","true","add","","","","","","","","","","","","","","","","","","","","","","","","","","","","","",""
"","","","","","html-keyboard-response","64","264798","0.0-64.0","A337X6ZE9WIIU7","2022-05-24T03:50:46.200Z","task_switching-same_different-phon_sim-rhyme","","null","task_switching","null","training","<div style=""color:darkgreen; font-size:60px"">Well done!</div>","addition","","","","","","","","","","","","","","","","","","","","","","","","","","","","","","","","",""
"","","","","","survey-text","65","266221","0.0-65.0","A337X6ZE9WIIU7","2022-05-24T03:50:46.200Z","task_switching-same_different-phon_sim-rhyme","","1421.4000000059605","task_switching","{""addition_ans"":""59""}","training","56","addition","59","true","add","","","","","","","","","","","","","","","","","","","","","","","","","","","","","",""
"","","","","","html-keyboard-response","66","267227","0.0-66.0","A337X6ZE9WIIU7","2022-05-24T03:50:46.200Z","task_switching-same_different-phon_sim-rhyme","","null","task_switching","null","training","<div style=""color:darkgreen; font-size:60px"">Well done!</div>","addition","","","","","","","","","","","","","","","","","","","","","","","","","","","","","","","","",""
"","","","","","survey-text","67","268324","0.0-67.0","A337X6ZE9WIIU7","2022-05-24T03:50:46.200Z","task_switching-same_different-phon_sim-rhyme","","1096.4000000059605","task_switching","{""addition_ans"":""17""}","training","14","addition","17","true","add","","","","","","","","","","","","","","","","","","","","","","","","","","","","","",""
"","","","","","html-keyboard-response","68","269333","0.0-68.0","A337X6ZE9WIIU7","2022-05-24T03:50:46.200Z","task_switching-same_different-phon_sim-rhyme","","null","task_switching","null","training","<div style=""color:darkgreen; font-size:60px"">Well done!</div>","addition","","","","","","","","","","","","","","","","","","","","","","","","","","","","","","","","",""
"","","","","","survey-text","69","270473","0.0-69.0","A337X6ZE9WIIU7","2022-05-24T03:50:46.200Z","task_switching-same_different-phon_sim-rhyme","","1138.4000000059605","task_switching","{""addition_ans"":""95""}","training","92","addition","95","true","add","","","","","","","","","","","","","","","","","","","","","","","","","","","","","",""
"","","","","","html-keyboard-response","70","271483","0.0-70.0","A337X6ZE9WIIU7","2022-05-24T03:50:46.200Z","task_switching-same_different-phon_sim-rhyme","","null","task_switching","null","training","<div style=""color:darkgreen; font-size:60px"">Well done!</div>","addition","","","","","","","","","","","","","","","","","","","","","","","","","","","","","","","","",""
"","","","","","survey-text","71","272689","0.0-71.0","A337X6ZE9WIIU7","2022-05-24T03:50:46.200Z","task_switching-same_different-phon_sim-rhyme","","1205.4000000059605","task_switching","{""addition_ans"":""72""}","training","69","addition","72","true","add","","","","","","","","","","","","","","","","","","","","","","","","","","","","","",""
"","","","","","html-keyboard-response","72","273700","0.0-72.0","A337X6ZE9WIIU7","2022-05-24T03:50:46.200Z","task_switching-same_different-phon_sim-rhyme","","null","task_switching","null","training","<div style=""color:darkgreen; font-size:60px"">Well done!</div>","addition","","","","","","","","","","","","","","","","","","","","","","","","","","","","","","","","",""
"","","","","","survey-text","73","275085","0.0-73.0","A337X6ZE9WIIU7","2022-05-24T03:50:46.200Z","task_switching-same_different-phon_sim-rhyme","","1384","task_switching","{""addition_ans"":""16""}","training","13","addition","16","true","add","","","","","","","","","","","","","","","","","","","","","","","","","","","","","",""
"","","","","","html-keyboard-response","74","276088","0.0-74.0","A337X6ZE9WIIU7","2022-05-24T03:50:46.200Z","task_switching-same_different-phon_sim-rhyme","","null","task_switching","null","training","<div style=""color:darkgreen; font-size:60px"">Well done!</div>","addition","","","","","","","","","","","","","","","","","","","","","","","","","","","","","","","","",""
"","","","","","survey-text","75","277256","0.0-75.0","A337X6ZE9WIIU7","2022-05-24T03:50:46.200Z","task_switching-same_different-phon_sim-rhyme","","1167.4000000059605","task_switching","{""addition_ans"":""65""}","training","62","addition","65","true","add","","","","","","","","","","","","","","","","","","","","","","","","","","","","","",""
"","","","","","html-keyboard-response","76","278265","0.0-76.0","A337X6ZE9WIIU7","2022-05-24T03:50:46.200Z","task_switching-same_different-phon_sim-rhyme","","null","task_switching","null","training","<div style=""color:darkgreen; font-size:60px"">Well done!</div>","addition","","","","","","","","","","","","","","","","","","","","","","","","","","","","","","","","",""
"","","","","","instructions","77","281584","0.0-77.0","A337X6ZE9WIIU7","2022-05-24T03:50:46.200Z","task_switching-same_different-phon_sim-rhyme","[{""page_index"":0,""viewing_time"":3318.300000011921}]","3318.5","task_switching","","","","","","","","","","","","","","","","","","","","","","","","","","","","","","","","","","","","",""
"","","","","","survey-text","78","283445","0.0-78.0","A337X6ZE9WIIU7","2022-05-24T03:50:46.200Z","task_switching-same_different-phon_sim-rhyme","","1859.800000011921","task_switching","{""addition_ans"":""42""}","experiment","38","addition","42","false","add","","","","","","","","","","","","","","","","","","","","","","","","","","","","","",""
"","","","","","survey-text","79","285008","0.0-79.0","A337X6ZE9WIIU7","2022-05-24T03:50:46.200Z","task_switching-same_different-phon_sim-rhyme","","1562.2000000178814","task_switching","{""addition_ans"":""74""}","experiment","71","addition","74","true","add","","","","","","","","","","","","","","","","","","","","","","","","","","","","","",""
"","","","","","survey-text","80","286335","0.0-80.0","A337X6ZE9WIIU7","2022-05-24T03:50:46.200Z","task_switching-same_different-phon_sim-rhyme","","1325.9000000059605","task_switching","{""addition_ans"":""20""}","experiment","17","addition","20","true","add","","","","","","","","","","","","","","","","","","","","","","","","","","","","","",""
"","","","","","survey-text","81","288361","0.0-81.0","A337X6ZE9WIIU7","2022-05-24T03:50:46.200Z","task_switching-same_different-phon_sim-rhyme","","2024.5","task_switching","{""addition_ans"":""61""}","experiment","58","addition","61","true","add","","","","","","","","","","","","","","","","","","","","","","","","","","","","","",""
"","","","","","survey-text","82","291263","0.0-82.0","A337X6ZE9WIIU7","2022-05-24T03:50:46.200Z","task_switching-same_different-phon_sim-rhyme","","2900.800000011921","task_switching","{""addition_ans"":""62""}","experiment","59","addition","62","true","add","","","","","","","","","","","","","","","","","","","","","","","","","","","","","",""
"","","","","","survey-text","83","292916","0.0-83.0","A337X6ZE9WIIU7","2022-05-24T03:50:46.200Z","task_switching-same_different-phon_sim-rhyme","","1652.5999999940395","task_switching","{""addition_ans"":""48""}","experiment","45","addition","48","true","add","","","","","","","","","","","","","","","","","","","","","","","","","","","","","",""
"","","","","","survey-text","84","294222","0.0-84.0","A337X6ZE9WIIU7","2022-05-24T03:50:46.200Z","task_switching-same_different-phon_sim-rhyme","","1304.0999999940395","task_switching","{""addition_ans"":""50""}","experiment","47","addition","50","true","add","","","","","","","","","","","","","","","","","","","","","","","","","","","","","",""
"","","","","","survey-text","85","295358","0.0-85.0","A337X6ZE9WIIU7","2022-05-24T03:50:46.200Z","task_switching-same_different-phon_sim-rhyme","","1134.9000000059605","task_switching","{""addition_ans"":""84""}","experiment","81","addition","84","true","add","","","","","","","","","","","","","","","","","","","","","","","","","","","","","",""
"","","","","","survey-text","86","297068","0.0-86.0","A337X6ZE9WIIU7","2022-05-24T03:50:46.200Z","task_switching-same_different-phon_sim-rhyme","","1709.2999999821186","task_switching","{""addition_ans"":""58""}","experiment","55","addition","58","true","add","","","","","","","","","","","","","","","","","","","","","","","","","","","","","",""
"","","","","","survey-text","87","298081","0.0-87.0","A337X6ZE9WIIU7","2022-05-24T03:50:46.200Z","task_switching-same_different-phon_sim-rhyme","","1011.2999999821186","task_switching","{""addition_ans"":""73""}","experiment","70","addition","73","true","add","","","","","","","","","","","","","","","","","","","","","","","","","","","","","",""
"","","","","","survey-text","88","299475","0.0-88.0","A337X6ZE9WIIU7","2022-05-24T03:50:46.200Z","task_switching-same_different-phon_sim-rhyme","","1393.2999999821186","task_switching","{""addition_ans"":""52""}","experiment","48","addition","52","false","add","","","","","","","","","","","","","","","","","","","","","","","","","","","","","",""
"","","","","","survey-text","89","300600","0.0-89.0","A337X6ZE9WIIU7","2022-05-24T03:50:46.200Z","task_switching-same_different-phon_sim-rhyme","","1124.2999999821186","task_switching","{""addition_ans"":""17""}","experiment","14","addition","17","true","add","","","","","","","","","","","","","","","","","","","","","","","","","","","","","",""
"","","","","","survey-text","90","301737","0.0-90.0","A337X6ZE9WIIU7","2022-05-24T03:50:46.200Z","task_switching-same_different-phon_sim-rhyme","","1135.1000000238419","task_switching","{""addition_ans"":""18""}","experiment","15","addition","18","true","add","","","","","","","","","","","","","","","","","","","","","","","","","","","","","",""
"","","","","","survey-text","91","302975","0.0-91.0","A337X6ZE9WIIU7","2022-05-24T03:50:46.200Z","task_switching-same_different-phon_sim-rhyme","","1236.3999999761581","task_switching","{""addition_ans"":""89""}","experiment","86","addition","89","true","add","","","","","","","","","","","","","","","","","","","","","","","","","","","","","",""
"","","","","","survey-text","92","304325","0.0-92.0","A337X6ZE9WIIU7","2022-05-24T03:50:46.200Z","task_switching-same_different-phon_sim-rhyme","","1349","task_switching","{""addition_ans"":""69""}","experiment","66","addition","69","true","add","","","","","","","","","","","","","","","","","","","","","","","","","","","","","",""
"","","","","","survey-text","93","305494","0.0-93.0","A337X6ZE9WIIU7","2022-05-24T03:50:46.200Z","task_switching-same_different-phon_sim-rhyme","","1168.5999999940395","task_switching","{""addition_ans"":""49""}","experiment","46","addition","49","true","add","","","","","","","","","","","","","","","","","","","","","","","","","","","","","",""
"","","","","","survey-text","94","306541","0.0-94.0","A337X6ZE9WIIU7","2022-05-24T03:50:46.200Z","task_switching-same_different-phon_sim-rhyme","","1045.2000000178814","task_switching","{""addition_ans"":""13""}","experiment","10","addition","13","true","add","","","","","","","","","","","","","","","","","","","","","","","","","","","","","",""
"","","","","","survey-text","95","307800","0.0-95.0","A337X6ZE9WIIU7","2022-05-24T03:50:46.200Z","task_switching-same_different-phon_sim-rhyme","","1258.5999999940395","task_switching","{""addition_ans"":""44""}","experiment","41","addition","44","true","add","","","","","","","","","","","","","","","","","","","","","","","","","","","","","",""
"","","","","","survey-text","96","309129","0.0-96.0","A337X6ZE9WIIU7","2022-05-24T03:50:46.200Z","task_switching-same_different-phon_sim-rhyme","","1327.1000000238419","task_switching","{""addition_ans"":""32""}","experiment","29","addition","32","true","add","","","","","","","","","","","","","","","","","","","","","","","","","","","","","",""
"","","","","","survey-text","97","310479","0.0-97.0","A337X6ZE9WIIU7","2022-05-24T03:50:46.200Z","task_switching-same_different-phon_sim-rhyme","","1349.199999988079","task_switching","{""addition_ans"":""36""}","experiment","23","addition","36","false","add","","","","","","","","","","","","","","","","","","","","","","","","","","","","","",""
"","","","","","survey-text","98","312166","0.0-98.0","A337X6ZE9WIIU7","2022-05-24T03:50:46.200Z","task_switching-same_different-phon_sim-rhyme","","1686.199999988079","task_switching","{""addition_ans"":""14""}","experiment","11","addition","14","true","add","","","","","","","","","","","","","","","","","","","","","","","","","","","","","",""
"","","","","","survey-text","99","313887","0.0-99.0","A337X6ZE9WIIU7","2022-05-24T03:50:46.200Z","task_switching-same_different-phon_sim-rhyme","","1720.0999999940395","task_switching","{""addition_ans"":""67""}","experiment","63","addition","67","false","add","","","","","","","","","","","","","","","","","","","","","","","","","","","","","",""
"","","","","","survey-text","100","315226","0.0-100.0","A337X6ZE9WIIU7","2022-05-24T03:50:46.200Z","task_switching-same_different-phon_sim-rhyme","","1337.8999999761581","task_switching","{""addition_ans"":""43""}","experiment","40","addition","43","true","add","","","","","","","","","","","","","","","","","","","","","","","","","","","","","",""
"","","","","","survey-text","101","316722","0.0-101.0","A337X6ZE9WIIU7","2022-05-24T03:50:46.200Z","task_switching-same_different-phon_sim-rhyme","","1494.5999999940395","task_switching","{""addition_ans"":""75""}","experiment","72","addition","75","true","add","","","","","","","","","","","","","","","","","","","","","","","","","","","","","",""
"","","","","","survey-text","102","318162","0.0-102.0","A337X6ZE9WIIU7","2022-05-24T03:50:46.200Z","task_switching-same_different-phon_sim-rhyme","","1439.199999988079","task_switching","{""addition_ans"":""65""}","experiment","62","addition","65","true","add","","","","","","","","","","","","","","","","","","","","","","","","","","","","","",""
"","","","","","survey-text","103","319558","0.0-103.0","A337X6ZE9WIIU7","2022-05-24T03:50:46.200Z","task_switching-same_different-phon_sim-rhyme","","1393.8999999761581","task_switching","{""addition_ans"":""19""}","experiment","16","addition","19","true","add","","","","","","","","","","","","","","","","","","","","","","","","","","","","","",""
"","","","","","survey-text","104","320817","0.0-104.0","A337X6ZE9WIIU7","2022-05-24T03:50:46.200Z","task_switching-same_different-phon_sim-rhyme","","1258.5","task_switching","{""addition_ans"":""99""}","experiment","96","addition","99","true","add","","","","","","","","","","","","","","","","","","","","","","","","","","","","","",""
"","","","","","survey-text","105","322257","0.0-105.0","A337X6ZE9WIIU7","2022-05-24T03:50:46.200Z","task_switching-same_different-phon_sim-rhyme","","1439.0999999940395","task_switching","{""addition_ans"":""98""}","experiment","95","addition","98","true","add","","","","","","","","","","","","","","","","","","","","","","","","","","","","","",""
"","","","","","survey-text","106","324147","0.0-106.0","A337X6ZE9WIIU7","2022-05-24T03:50:46.200Z","task_switching-same_different-phon_sim-rhyme","","1888.5","task_switching","{""addition_ans"":""96""}","experiment","93","addition","96","true","add","","","","","","","","","","","","","","","","","","","","","","","","","","","","","",""
"","","","","","survey-text","107","325272","0.0-107.0","A337X6ZE9WIIU7","2022-05-24T03:50:46.200Z","task_switching-same_different-phon_sim-rhyme","","1124.0999999940395","task_switching","{""addition_ans"":""29""}","experiment","26","addition","29","true","add","","","","","","","","","","","","","","","","","","","","","","","","","","","","","",""
"","","","","","instructions","108","329901","0.0-108.0","A337X6ZE9WIIU7","2022-05-24T03:50:46.200Z","task_switching-same_different-phon_sim-rhyme","[{""page_index"":0,""viewing_time"":4628.5}]","4628.5999999940395","task_switching","","","","","","","","","","","","","","","","","","","","","","","","","","","","","","","","","","","","",""
"","","","","","survey-text","109","331787","0.0-109.0","A337X6ZE9WIIU7","2022-05-24T03:50:46.200Z","task_switching-same_different-phon_sim-rhyme","","1884.3999999761581","task_switching","{""colorcue_switch_ans"":""70""}","training","67","colorcue_switch","70","true","add","red","0","","","","","","","","","","","","","","","","","","","","","","","","","","","",""
"","","","","","html-keyboard-response","110","332797","0.0-110.0","A337X6ZE9WIIU7","2022-05-24T03:50:46.200Z","task_switching-same_different-phon_sim-rhyme","","null","task_switching","null","training","<div style=""color:darkgreen; font-size:60px"">Well done!</div>","colorcue_switch","","","","","","","","","","","","","","","","","","","","","","","","","","","","","","","","",""
"","","","","","survey-text","111","334329","0.0-111.0","A337X6ZE9WIIU7","2022-05-24T03:50:46.200Z","task_switching-same_different-phon_sim-rhyme","","1530.699999988079","task_switching","{""colorcue_switch_ans"":""67""}","training","70","colorcue_switch","67","true","subtract","blue","1","","","","","","","","","","","","","","","","","","","","","","","","","","","",""
"","","","","","html-keyboard-response","112","335337","0.0-112.0","A337X6ZE9WIIU7","2022-05-24T03:50:46.200Z","task_switching-same_different-phon_sim-rhyme","","null","task_switching","null","training","<div style=""color:darkgreen; font-size:60px"">Well done!</div>","colorcue_switch","","","","","","","","","","","","","","","","","","","","","","","","","","","","","","","","",""
"","","","","","survey-text","113","336950","0.0-113.0","A337X6ZE9WIIU7","2022-05-24T03:50:46.200Z","task_switching-same_different-phon_sim-rhyme","","1611.5999999940395","task_switching","{""colorcue_switch_ans"":""60""}","training","57","colorcue_switch","60","true","add","red","2","","","","","","","","","","","","","","","","","","","","","","","","","","","",""
"","","","","","html-keyboard-response","114","337955","0.0-114.0","A337X6ZE9WIIU7","2022-05-24T03:50:46.200Z","task_switching-same_different-phon_sim-rhyme","","null","task_switching","null","training","<div style=""color:darkgreen; font-size:60px"">Well done!</div>","colorcue_switch","","","","","","","","","","","","","","","","","","","","","","","","","","","","","","","","",""
"","","","","","survey-text","115","339942","0.0-115.0","A337X6ZE9WIIU7","2022-05-24T03:50:46.200Z","task_switching-same_different-phon_sim-rhyme","","1986.2999999821186","task_switching","{""colorcue_switch_ans"":""11""}","training","14","colorcue_switch","11","true","subtract","blue","3","","","","","","","","","","","","","","","","","","","","","","","","","","","",""
"","","","","","html-keyboard-response","116","340951","0.0-116.0","A337X6ZE9WIIU7","2022-05-24T03:50:46.200Z","task_switching-same_different-phon_sim-rhyme","","null","task_switching","null","training","<div style=""color:darkgreen; font-size:60px"">Well done!</div>","colorcue_switch","","","","","","","","","","","","","","","","","","","","","","","","","","","","","","","","",""
"","","","","","survey-text","117","342879","0.0-117.0","A337X6ZE9WIIU7","2022-05-24T03:50:46.200Z","task_switching-same_different-phon_sim-rhyme","","1926.5999999940395","task_switching","{""colorcue_switch_ans"":""65""}","training","68","colorcue_switch","65","false","add","red","4","","","","","","","","","","","","","","","","","","","","","","","","","","","",""
"","","","","","html-keyboard-response","118","347892","0.0-118.0","A337X6ZE9WIIU7","2022-05-24T03:50:46.200Z","task_switching-same_different-phon_sim-rhyme","","null","task_switching","null","training","<div style=""color:darkred; font-size:40px"">That was an <b>add</b> trial.<p> Correct answer: 71.</p><p> Next trial subtract 3.</p></div>","colorcue_switch","","","","","","","","","","","","","","","","","","","","","","","","","","","","","","","","",""
"","","","","","survey-text","119","351418","0.0-119.0","A337X6ZE9WIIU7","2022-05-24T03:50:46.200Z","task_switching-same_different-phon_sim-rhyme","","3524.7000000178814","task_switching","{""colorcue_switch_ans"":""39""}","training","42","colorcue_switch","39","true","subtract","blue","5","","","","","","","","","","","","","","","","","","","","","","","","","","","",""
"","","","","","html-keyboard-response","120","352429","0.0-120.0","A337X6ZE9WIIU7","2022-05-24T03:50:46.200Z","task_switching-same_different-phon_sim-rhyme","","null","task_switching","null","training","<div style=""color:darkgreen; font-size:60px"">Well done!</div>","colorcue_switch","","","","","","","","","","","","","","","","","","","","","","","","","","","","","","","","",""
"","","","","","survey-text","121","354500","0.0-121.0","A337X6ZE9WIIU7","2022-05-24T03:50:46.200Z","task_switching-same_different-phon_sim-rhyme","","2070.2000000178814","task_switching","{""colorcue_switch_ans"":""39""}","training","36","colorcue_switch","39","true","add","red","6","","","","","","","","","","","","","","","","","","","","","","","","","","","",""
"","","","","","html-keyboard-response","122","355502","0.0-122.0","A337X6ZE9WIIU7","2022-05-24T03:50:46.200Z","task_switching-same_different-phon_sim-rhyme","","null","task_switching","null","training","<div style=""color:darkgreen; font-size:60px"">Well done!</div>","colorcue_switch","","","","","","","","","","","","","","","","","","","","","","","","","","","","","","","","",""
"","","","","","survey-text","123","361341","0.0-123.0","A337X6ZE9WIIU7","2022-05-24T03:50:46.200Z","task_switching-same_different-phon_sim-rhyme","","5837","task_switching","{""colorcue_switch_ans"":""48""}","training","51","colorcue_switch","48","true","subtract","blue","7","","","","","","","","","","","","","","","","","","","","","","","","","","","",""
"","","","","","html-keyboard-response","124","362352","0.0-124.0","A337X6ZE9WIIU7","2022-05-24T03:50:46.200Z","task_switching-same_different-phon_sim-rhyme","","null","task_switching","null","training","<div style=""color:darkgreen; font-size:60px"">Well done!</div>","colorcue_switch","","","","","","","","","","","","","","","","","","","","","","","","","","","","","","","","",""
"","","","","","survey-text","125","364300","0.0-125.0","A337X6ZE9WIIU7","2022-05-24T03:50:46.200Z","task_switching-same_different-phon_sim-rhyme","","1947.0999999940395","task_switching","{""colorcue_switch_ans"":""20""}","training","17","colorcue_switch","20","true","add","red","8","","","","","","","","","","","","","","","","","","","","","","","","","","","",""
"","","","","","html-keyboard-response","126","365311","0.0-126.0","A337X6ZE9WIIU7","2022-05-24T03:50:46.200Z","task_switching-same_different-phon_sim-rhyme","","null","task_switching","null","training","<div style=""color:darkgreen; font-size:60px"">Well done!</div>","colorcue_switch","","","","","","","","","","","","","","","","","","","","","","","","","","","","","","","","",""
"","","","","","survey-text","127","368743","0.0-127.0","A337X6ZE9WIIU7","2022-05-24T03:50:46.200Z","task_switching-same_different-phon_sim-rhyme","","3431","task_switching","{""colorcue_switch_ans"":""42""}","training","45","colorcue_switch","42","true","subtract","blue","9","","","","","","","","","","","","","","","","","","","","","","","","","","","",""
"","","","","","html-keyboard-response","128","369745","0.0-128.0","A337X6ZE9WIIU7","2022-05-24T03:50:46.200Z","task_switching-same_different-phon_sim-rhyme","","null","task_switching","null","training","<div style=""color:darkgreen; font-size:60px"">Well done!</div>","colorcue_switch","","","","","","","","","","","","","","","","","","","","","","","","","","","","","","","","",""
"","","","","","instructions","129","374455","0.0-129.0","A337X6ZE9WIIU7","2022-05-24T03:50:46.200Z","task_switching-same_different-phon_sim-rhyme","[{""page_index"":0,""viewing_time"":4710}]","4710.199999988079","task_switching","","","","","","","","","","","","","","","","","","","","","","","","","","","","","","","","","","","","",""
"","","","","","survey-text","130","376719","0.0-130.0","A337X6ZE9WIIU7","2022-05-24T03:50:46.200Z","task_switching-same_different-phon_sim-rhyme","","2262.600000023842","task_switching","{""colorcue_switch_ans"":""81""}","experiment","78","colorcue_switch","81","true","add","red","0","","","","","","","","","","","","","","","","","","","","","","","","","","","",""
"","","","","","survey-text","131","379993","0.0-131.0","A337X6ZE9WIIU7","2022-05-24T03:50:46.200Z","task_switching-same_different-phon_sim-rhyme","","3272.9000000059605","task_switching","{""colorcue_switch_ans"":""38""}","experiment","41","colorcue_switch","38","true","subtract","blue","1","","","","","","","","","","","","","","","","","","","","","","","","","","","",""
"","","","","","survey-text","132","381703","0.0-132.0","A337X6ZE9WIIU7","2022-05-24T03:50:46.200Z","task_switching-same_different-phon_sim-rhyme","","1708.699999988079","task_switching","{""colorcue_switch_ans"":""88""}","experiment","85","colorcue_switch","88","true","add","red","2","","","","","","","","","","","","","","","","","","","","","","","","","","","",""
"","","","","","survey-text","133","384606","0.0-133.0","A337X6ZE9WIIU7","2022-05-24T03:50:46.200Z","task_switching-same_different-phon_sim-rhyme","","2901.5","task_switching","{""colorcue_switch_ans"":""84""}","experiment","87","colorcue_switch","84","true","subtract","blue","3","","","","","","","","","","","","","","","","","","","","","","","","","","","",""
"","","","","","survey-text","134","386327","0.0-134.0","A337X6ZE9WIIU7","2022-05-24T03:50:46.200Z","task_switching-same_different-phon_sim-rhyme","","1719.5999999940395","task_switching","{""colorcue_switch_ans"":""73""}","experiment","70","colorcue_switch","73","true","add","red","4","","","","","","","","","","","","","","","","","","","","","","","","","","","",""
"","","","","","survey-text","135","389027","0.0-135.0","A337X6ZE9WIIU7","2022-05-24T03:50:46.200Z","task_switching-same_different-phon_sim-rhyme","","2699.5","task_switching","{""colorcue_switch_ans"":""32""}","experiment","35","colorcue_switch","32","true","subtract","blue","5","","","","","","","","","","","","","","","","","","","","","","","","","","","",""
"","","","","","survey-text","136","390782","0.0-136.0","A337X6ZE9WIIU7","2022-05-24T03:50:46.200Z","task_switching-same_different-phon_sim-rhyme","","1753.0999999940395","task_switching","{""colorcue_switch_ans"":""23""}","experiment","20","colorcue_switch","23","true","add","red","6","","","","","","","","","","","","","","","","","","","","","","","","","","","",""
"","","","","","survey-text","137","393696","0.0-137.0","A337X6ZE9WIIU7","2022-05-24T03:50:46.200Z","task_switching-same_different-phon_sim-rhyme","","2912.9000000059605","task_switching","{""colorcue_switch_ans"":""69""}","experiment","72","colorcue_switch","69","true","subtract","blue","7","","","","","","","","","","","","","","","","","","","","","","","","","","","",""
"","","","","","survey-text","138","395968","0.0-138.0","A337X6ZE9WIIU7","2022-05-24T03:50:46.200Z","task_switching-same_different-phon_sim-rhyme","","2271.0999999940395","task_switching","{""colorcue_switch_ans"":""36""}","experiment","33","colorcue_switch","36","true","add","red","8","","","","","","","","","","","","","","","","","","","","","","","","","","","",""
"","","","","","survey-text","139","398004","0.0-139.0","A337X6ZE9WIIU7","2022-05-24T03:50:46.200Z","task_switching-same_different-phon_sim-rhyme","","2035.2000000178814","task_switching","{""colorcue_switch_ans"":""35""}","experiment","38","colorcue_switch","35","true","subtract","blue","9","","","","","","","","","","","","","","","","","","","","","","","","","","","",""
"","","","","","survey-text","140","399906","0.0-140.0","A337X6ZE9WIIU7","2022-05-24T03:50:46.200Z","task_switching-same_different-phon_sim-rhyme","","1900.5999999940395","task_switching","{""colorcue_switch_ans"":""36""}","experiment","23","colorcue_switch","36","false","add","red","10","","","","","","","","","","","","","","","","","","","","","","","","","","","",""
"","","","","","survey-text","141","402032","0.0-141.0","A337X6ZE9WIIU7","2022-05-24T03:50:46.200Z","task_switching-same_different-phon_sim-rhyme","","2125.0999999940395","task_switching","{""colorcue_switch_ans"":""33""}","experiment","36","colorcue_switch","33","true","subtract","blue","11","","","","","","","","","","","","","","","","","","","","","","","","","","","",""
"","","","","","survey-text","142","405250","0.0-142.0","A337X6ZE9WIIU7","2022-05-24T03:50:46.200Z","task_switching-same_different-phon_sim-rhyme","","3216.4000000059605","task_switching","{""colorcue_switch_ans"":""50""}","experiment","47","colorcue_switch","50","true","add","red","12","","","","","","","","","","","","","","","","","","","","","","","","","","","",""
"","","","","","survey-text","143","408175","0.0-143.0","A337X6ZE9WIIU7","2022-05-24T03:50:46.200Z","task_switching-same_different-phon_sim-rhyme","","2923.7999999821186","task_switching","{""colorcue_switch_ans"":""73""}","experiment","76","colorcue_switch","73","true","subtract","blue","13","","","","","","","","","","","","","","","","","","","","","","","","","","","",""
"","","","","","survey-text","144","410323","0.0-144.0","A337X6ZE9WIIU7","2022-05-24T03:50:46.200Z","task_switching-same_different-phon_sim-rhyme","","2147.7999999821186","task_switching","{""colorcue_switch_ans"":""47""}","experiment","44","colorcue_switch","47","true","add","red","14","","","","","","","","","","","","","","","","","","","","","","","","","","","",""
"","","","","","survey-text","145","412112","0.0-145.0","A337X6ZE9WIIU7","2022-05-24T03:50:46.200Z","task_switching-same_different-phon_sim-rhyme","","1787.9000000059605","task_switching","{""colorcue_switch_ans"":""90""}","experiment","93","colorcue_switch","90","true","subtract","blue","15","","","","","","","","","","","","","","","","","","","","","","","","","","","",""
"","","","","","survey-text","146","414081","0.0-146.0","A337X6ZE9WIIU7","2022-05-24T03:50:46.200Z","task_switching-same_different-phon_sim-rhyme","","1967.6000000238419","task_switching","{""colorcue_switch_ans"":""34""}","experiment","31","colorcue_switch","34","true","add","red","16","","","","","","","","","","","","","","","","","","","","","","","","","","","",""
"","","","","","survey-text","147","416634","0.0-147.0","A337X6ZE9WIIU7","2022-05-24T03:50:46.200Z","task_switching-same_different-phon_sim-rhyme","","2552.199999988079","task_switching","{""colorcue_switch_ans"":""46""}","experiment","49","colorcue_switch","46","true","subtract","blue","17","","","","","","","","","","","","","","","","","","","","","","","","","","","",""
"","","","","","survey-text","148","419245","0.0-148.0","A337X6ZE9WIIU7","2022-05-24T03:50:46.200Z","task_switching-same_different-phon_sim-rhyme","","2609.4000000059605","task_switching","{""colorcue_switch_ans"":""61""}","experiment","58","colorcue_switch","61","true","add","red","18","","","","","","","","","","","","","","","","","","","","","","","","","","","",""
"","","","","","survey-text","149","422215","0.0-149.0","A337X6ZE9WIIU7","2022-05-24T03:50:46.200Z","task_switching-same_different-phon_sim-rhyme","","2968.7999999821186","task_switching","{""colorcue_switch_ans"":""15""}","experiment","18","colorcue_switch","15","true","subtract","blue","19","","","","","","","","","","","","","","","","","","","","","","","","","","","",""
"","","","","","survey-text","150","424937","0.0-150.0","A337X6ZE9WIIU7","2022-05-24T03:50:46.200Z","task_switching-same_different-phon_sim-rhyme","","2721.399999976158","task_switching","{""colorcue_switch_ans"":""51""}","experiment","48","colorcue_switch","51","true","add","red","20","","","","","","","","","","","","","","","","","","","","","","","","","","","",""
"","","","","","survey-text","151","427154","0.0-151.0","A337X6ZE9WIIU7","2022-05-24T03:50:46.200Z","task_switching-same_different-phon_sim-rhyme","","2215.600000023842","task_switching","{""colorcue_switch_ans"":""31""}","experiment","34","colorcue_switch","31","true","subtract","blue","21","","","","","","","","","","","","","","","","","","","","","","","","","","","",""
"","","","","","survey-text","152","434027","0.0-152.0","A337X6ZE9WIIU7","2022-05-24T03:50:46.200Z","task_switching-same_different-phon_sim-rhyme","","6872.0999999940395","task_switching","{""colorcue_switch_ans"":""62""}","experiment","59","colorcue_switch","62","true","add","red","22","","","","","","","","","","","","","","","","","","","","","","","","","","","",""
"","","","","","survey-text","153","436504","0.0-153.0","A337X6ZE9WIIU7","2022-05-24T03:50:46.200Z","task_switching-same_different-phon_sim-rhyme","","2476","task_switching","{""colorcue_switch_ans"":""66""}","experiment","69","colorcue_switch","66","true","subtract","blue","23","","","","","","","","","","","","","","","","","","","","","","","","","","","",""
"","","","","","survey-text","154","439539","0.0-154.0","A337X6ZE9WIIU7","2022-05-24T03:50:46.200Z","task_switching-same_different-phon_sim-rhyme","","3034","task_switching","{""colorcue_switch_ans"":""91""}","experiment","88","colorcue_switch","91","true","add","red","24","","","","","","","","","","","","","","","","","","","","","","","","","","","",""
"","","","","","survey-text","155","441834","0.0-155.0","A337X6ZE9WIIU7","2022-05-24T03:50:46.200Z","task_switching-same_different-phon_sim-rhyme","","2294","task_switching","{""colorcue_switch_ans"":""64""}","experiment","67","colorcue_switch","64","true","subtract","blue","25","","","","","","","","","","","","","","","","","","","","","","","","","","","",""
"","","","","","survey-text","156","443815","0.0-156.0","A337X6ZE9WIIU7","2022-05-24T03:50:46.200Z","task_switching-same_different-phon_sim-rhyme","","1979","task_switching","{""colorcue_switch_ans"":""57""}","experiment","54","colorcue_switch","57","true","add","red","26","","","","","","","","","","","","","","","","","","","","","","","","","","","",""
"","","","","","survey-text","157","446109","0.0-157.0","A337X6ZE9WIIU7","2022-05-24T03:50:46.200Z","task_switching-same_different-phon_sim-rhyme","","2293.699999988079","task_switching","{""colorcue_switch_ans"":""37""}","experiment","40","colorcue_switch","37","true","subtract","blue","27","","","","","","","","","","","","","","","","","","","","","","","","","","","",""
"","","","","","survey-text","158","448281","0.0-158.0","A337X6ZE9WIIU7","2022-05-24T03:50:46.200Z","task_switching-same_different-phon_sim-rhyme","","2170.5999999940395","task_switching","{""colorcue_switch_ans"":""53""}","experiment","50","colorcue_switch","53","true","add","red","28","","","","","","","","","","","","","","","","","","","","","","","","","","","",""
"","","","","","survey-text","159","451341","0.0-159.0","A337X6ZE9WIIU7","2022-05-24T03:50:46.200Z","task_switching-same_different-phon_sim-rhyme","","3058.5","task_switching","{""colorcue_switch_ans"":""78""}","experiment","81","colorcue_switch","78","true","subtract","blue","29","","","","","","","","","","","","","","","","","","","","","","","","","","","",""
"","","","","","instructions","160","461766","0.0-160.0","A337X6ZE9WIIU7","2022-05-24T03:50:46.200Z","task_switching-same_different-phon_sim-rhyme","[{""page_index"":0,""viewing_time"":10425.199999988079}]","10425.40000000596","task_switching","","","","","","","","","","","","","","","","","","","","","","","","","","","","","","","","","","","","",""
"","","","","","survey-text","161","467676","0.0-161.0","A337X6ZE9WIIU7","2022-05-24T03:50:46.200Z","task_switching-same_different-phon_sim-rhyme","","5908.5","task_switching","{""uncued_switch_ans"":""92""}","training","89","uncued_switch","92","true","add","","0","","","","","","","","","","","","","","","","","","","","","","","","","","","",""
"","","","","","html-keyboard-response","162","468690","0.0-162.0","A337X6ZE9WIIU7","2022-05-24T03:50:46.200Z","task_switching-same_different-phon_sim-rhyme","","null","task_switching","null","training","<div style=""color:darkgreen; font-size:60px"">Well done!</div>","uncued_switch","","","","","","","","","","","","","","","","","","","","","","","","","","","","","","","","",""
"","","","","","survey-text","163","470073","0.0-163.0","A337X6ZE9WIIU7","2022-05-24T03:50:46.200Z","task_switching-same_different-phon_sim-rhyme","","1381.8999999761581","task_switching","{""uncued_switch_ans"":""15""}","training","18","uncued_switch","15","true","subtract","","1","","","","","","","","","","","","","","","","","","","","","","","","","","","",""
"","","","","","html-keyboard-response","164","471076","0.0-164.0","A337X6ZE9WIIU7","2022-05-24T03:50:46.200Z","task_switching-same_different-phon_sim-rhyme","","null","task_switching","null","training","<div style=""color:darkgreen; font-size:60px"">Well done!</div>","uncued_switch","","","","","","","","","","","","","","","","","","","","","","","","","","","","","","","","",""
"","","","","","survey-text","165","472852","0.0-165.0","A337X6ZE9WIIU7","2022-05-24T03:50:46.200Z","task_switching-same_different-phon_sim-rhyme","","1774","task_switching","{""uncued_switch_ans"":""99""}","training","96","uncued_switch","99","true","add","","2","","","","","","","","","","","","","","","","","","","","","","","","","","","",""
"","","","","","html-keyboard-response","166","473867","0.0-166.0","A337X6ZE9WIIU7","2022-05-24T03:50:46.200Z","task_switching-same_different-phon_sim-rhyme","","null","task_switching","null","training","<div style=""color:darkgreen; font-size:60px"">Well done!</div>","uncued_switch","","","","","","","","","","","","","","","","","","","","","","","","","","","","","","","","",""
"","","","","","survey-text","167","476429","0.0-167.0","A337X6ZE9WIIU7","2022-05-24T03:50:46.200Z","task_switching-same_different-phon_sim-rhyme","","2560.7999999821186","task_switching","{""uncued_switch_ans"":""88""}","training","91","uncued_switch","88","true","subtract","","3","","","","","","","","","","","","","","","","","","","","","","","","","","","",""
"","","","","","html-keyboard-response","168","477431","0.0-168.0","A337X6ZE9WIIU7","2022-05-24T03:50:46.200Z","task_switching-same_different-phon_sim-rhyme","","null","task_switching","null","training","<div style=""color:darkgreen; font-size:60px"">Well done!</div>","uncued_switch","","","","","","","","","","","","","","","","","","","","","","","","","","","","","","","","",""
"","","","","","survey-text","169","479106","0.0-169.0","A337X6ZE9WIIU7","2022-05-24T03:50:46.200Z","task_switching-same_different-phon_sim-rhyme","","1674.1000000238419","task_switching","{""uncued_switch_ans"":""37""}","training","34","uncued_switch","37","true","add","","4","","","","","","","","","","","","","","","","","","","","","","","","","","","",""
"","","","","","html-keyboard-response","170","480122","0.0-170.0","A337X6ZE9WIIU7","2022-05-24T03:50:46.200Z","task_switching-same_different-phon_sim-rhyme","","null","task_switching","null","training","<div style=""color:darkgreen; font-size:60px"">Well done!</div>","uncued_switch","","","","","","","","","","","","","","","","","","","","","","","","","","","","","","","","",""
"","","","","","survey-text","171","482504","0.0-171.0","A337X6ZE9WIIU7","2022-05-24T03:50:46.200Z","task_switching-same_different-phon_sim-rhyme","","2380.5999999940395","task_switching","{""uncued_switch_ans"":""77""}","training","80","uncued_switch","77","true","subtract","","5","","","","","","","","","","","","","","","","","","","","","","","","","","","",""
"","","","","","html-keyboard-response","172","483519","0.0-172.0","A337X6ZE9WIIU7","2022-05-24T03:50:46.200Z","task_switching-same_different-phon_sim-rhyme","","null","task_switching","null","training","<div style=""color:darkgreen; font-size:60px"">Well done!</div>","uncued_switch","","","","","","","","","","","","","","","","","","","","","","","","","","","","","","","","",""
"","","","","","survey-text","173","485317","0.0-173.0","A337X6ZE9WIIU7","2022-05-24T03:50:46.200Z","task_switching-same_different-phon_sim-rhyme","","1797","task_switching","{""uncued_switch_ans"":""96""}","training","93","uncued_switch","96","true","add","","6","","","","","","","","","","","","","","","","","","","","","","","","","","","",""
"","","","","","html-keyboard-response","174","486332","0.0-174.0","A337X6ZE9WIIU7","2022-05-24T03:50:46.200Z","task_switching-same_different-phon_sim-rhyme","","null","task_switching","null","training","<div style=""color:darkgreen; font-size:60px"">Well done!</div>","uncued_switch","","","","","","","","","","","","","","","","","","","","","","","","","","","","","","","","",""
"","","","","","survey-text","175","488748","0.0-175.0","A337X6ZE9WIIU7","2022-05-24T03:50:46.200Z","task_switching-same_different-phon_sim-rhyme","","2414.300000011921","task_switching","{""uncued_switch_ans"":""12""}","training","15","uncued_switch","12","true","subtract","","7","","","","","","","","","","","","","","","","","","","","","","","","","","","",""
"","","","","","html-keyboard-response","176","489761","0.0-176.0","A337X6ZE9WIIU7","2022-05-24T03:50:46.200Z","task_switching-same_different-phon_sim-rhyme","","null","task_switching","null","training","<div style=""color:darkgreen; font-size:60px"">Well done!</div>","uncued_switch","","","","","","","","","","","","","","","","","","","","","","","","","","","","","","","","",""
"","","","","","survey-text","177","492033","0.0-177.0","A337X6ZE9WIIU7","2022-05-24T03:50:46.200Z","task_switching-same_different-phon_sim-rhyme","","2271.199999988079","task_switching","{""uncued_switch_ans"":""45""}","training","42","uncued_switch","45","true","add","","8","","","","","","","","","","","","","","","","","","","","","","","","","","","",""
"","","","","","html-keyboard-response","178","493049","0.0-178.0","A337X6ZE9WIIU7","2022-05-24T03:50:46.200Z","task_switching-same_different-phon_sim-rhyme","","null","task_switching","null","training","<div style=""color:darkgreen; font-size:60px"">Well done!</div>","uncued_switch","","","","","","","","","","","","","","","","","","","","","","","","","","","","","","","","",""
"","","","","","survey-text","179","494485","0.0-179.0","A337X6ZE9WIIU7","2022-05-24T03:50:46.200Z","task_switching-same_different-phon_sim-rhyme","","1435.199999988079","task_switching","{""uncued_switch_ans"":""81""}","training","84","uncued_switch","81","true","subtract","","9","","","","","","","","","","","","","","","","","","","","","","","","","","","",""
"","","","","","html-keyboard-response","180","495495","0.0-180.0","A337X6ZE9WIIU7","2022-05-24T03:50:46.200Z","task_switching-same_different-phon_sim-rhyme","","null","task_switching","null","training","<div style=""color:darkgreen; font-size:60px"">Well done!</div>","uncued_switch","","","","","","","","","","","","","","","","","","","","","","","","","","","","","","","","",""
"","","","","","instructions","181","497279","0.0-181.0","A337X6ZE9WIIU7","2022-05-24T03:50:46.200Z","task_switching-same_different-phon_sim-rhyme","[{""page_index"":0,""viewing_time"":1783.699999988079}]","1783.7999999821186","task_switching","","","","","","","","","","","","","","","","","","","","","","","","","","","","","","","","","","","","",""
"","","","","","survey-text","182","498873","0.0-182.0","A337X6ZE9WIIU7","2022-05-24T03:50:46.200Z","task_switching-same_different-phon_sim-rhyme","","1593","task_switching","{""uncued_switch_ans"":""29""}","experiment","26","uncued_switch","29","true","add","","0","","","","","","","","","","","","","","","","","","","","","","","","","","","",""
"","","","","","survey-text","183","500426","0.0-183.0","A337X6ZE9WIIU7","2022-05-24T03:50:46.200Z","task_switching-same_different-phon_sim-rhyme","","1552","task_switching","{""uncued_switch_ans"":""61""}","experiment","64","uncued_switch","61","true","subtract","","1","","","","","","","","","","","","","","","","","","","","","","","","","","","",""
"","","","","","survey-text","184","502575","0.0-184.0","A337X6ZE9WIIU7","2022-05-24T03:50:46.200Z","task_switching-same_different-phon_sim-rhyme","","2148.199999988079","task_switching","{""uncued_switch_ans"":""50""}","experiment","47","uncued_switch","50","true","add","","2","","","","","","","","","","","","","","","","","","","","","","","","","","","",""
"","","","","","survey-text","185","506287","0.0-185.0","A337X6ZE9WIIU7","2022-05-24T03:50:46.200Z","task_switching-same_different-phon_sim-rhyme","","3710.0999999940395","task_switching","{""uncued_switch_ans"":""20""}","experiment","23","uncued_switch","20","true","subtract","","3","","","","","","","","","","","","","","","","","","","","","","","","","","","",""
"","","","","","survey-text","186","507918","0.0-186.0","A337X6ZE9WIIU7","2022-05-24T03:50:46.200Z","task_switching-same_different-phon_sim-rhyme","","1630.300000011921","task_switching","{""uncued_switch_ans"":""38""}","experiment","35","uncued_switch","38","true","add","","4","","","","","","","","","","","","","","","","","","","","","","","","","","","",""
"","","","","","survey-text","187","511822","0.0-187.0","A337X6ZE9WIIU7","2022-05-24T03:50:46.200Z","task_switching-same_different-phon_sim-rhyme","","3902.899999976158","task_switching","{""uncued_switch_ans"":""86""}","experiment","89","uncued_switch","86","true","subtract","","5","","","","","","","","","","","","","","","","","","","","","","","","","","","",""
"","","","","","survey-text","188","513949","0.0-188.0","A337X6ZE9WIIU7","2022-05-24T03:50:46.200Z","task_switching-same_different-phon_sim-rhyme","","2125.300000011921","task_switching","{""uncued_switch_ans"":""71""}","experiment","68","uncued_switch","71","true","add","","6","","","","","","","","","","","","","","","","","","","","","","","","","","","",""
"","","","","","survey-text","189","520305","0.0-189.0","A337X6ZE9WIIU7","2022-05-24T03:50:46.200Z","task_switching-same_different-phon_sim-rhyme","","6354.5999999940395","task_switching","{""uncued_switch_ans"":""38""}","experiment","41","uncued_switch","38","true","subtract","","7","","","","","","","","","","","","","","","","","","","","","","","","","","","",""
"","","","","","survey-text","190","522723","0.0-190.0","A337X6ZE9WIIU7","2022-05-24T03:50:46.200Z","task_switching-same_different-phon_sim-rhyme","","2417.5","task_switching","{""uncued_switch_ans"":""49""}","experiment","46","uncued_switch","49","true","add","","8","","","","","","","","","","","","","","","","","","","","","","","","","","","",""
"","","","","","survey-text","191","525491","0.0-191.0","A337X6ZE9WIIU7","2022-05-24T03:50:46.200Z","task_switching-same_different-phon_sim-rhyme","","2766.199999988079","task_switching","{""uncued_switch_ans"":""11""}","experiment","14","uncued_switch","11","true","subtract","","9","","","","","","","","","","","","","","","","","","","","","","","","","","","",""
"","","","","","survey-text","192","527460","0.0-192.0","A337X6ZE9WIIU7","2022-05-24T03:50:46.200Z","task_switching-same_different-phon_sim-rhyme","","1968.2000000178814","task_switching","{""uncued_switch_ans"":""23""}","experiment","20","uncued_switch","23","true","add","","10","","","","","","","","","","","","","","","","","","","","","","","","","","","",""
"","","","","","survey-text","193","529305","0.0-193.0","A337X6ZE9WIIU7","2022-05-24T03:50:46.200Z","task_switching-same_different-phon_sim-rhyme","","1843.5","task_switching","{""uncued_switch_ans"":""50""}","experiment","53","uncued_switch","50","true","subtract","","11","","","","","","","","","","","","","","","","","","","","","","","","","","","",""
"","","","","","survey-text","194","531645","0.0-194.0","A337X6ZE9WIIU7","2022-05-24T03:50:46.200Z","task_switching-same_different-phon_sim-rhyme","","2339.0999999940395","task_switching","{""uncued_switch_ans"":""86""}","experiment","83","uncued_switch","86","true","add","","12","","","","","","","","","","","","","","","","","","","","","","","","","","","",""
"","","","","","survey-text","195","533197","0.0-195.0","A337X6ZE9WIIU7","2022-05-24T03:50:46.200Z","task_switching-same_different-phon_sim-rhyme","","1551","task_switching","{""uncued_switch_ans"":""51""}","experiment","54","uncued_switch","51","true","subtract","","13","","","","","","","","","","","","","","","","","","","","","","","","","","","",""
"","","","","","survey-text","196","534997","0.0-196.0","A337X6ZE9WIIU7","2022-05-24T03:50:46.200Z","task_switching-same_different-phon_sim-rhyme","","1799.2000000178814","task_switching","{""uncued_switch_ans"":""96""}","experiment","93","uncued_switch","96","true","add","","14","","","","","","","","","","","","","","","","","","","","","","","","","","","",""
"","","","","","survey-text","197","537584","0.0-197.0","A337X6ZE9WIIU7","2022-05-24T03:50:46.200Z","task_switching-same_different-phon_sim-rhyme","","2586.0999999940395","task_switching","{""uncued_switch_ans"":""54""}","experiment","57","uncued_switch","54","true","subtract","","15","","","","","","","","","","","","","","","","","","","","","","","","","","","",""
"","","","","","survey-text","198","539126","0.0-198.0","A337X6ZE9WIIU7","2022-05-24T03:50:46.200Z","task_switching-same_different-phon_sim-rhyme","","1540.7000000178814","task_switching","{""uncued_switch_ans"":""78""}","experiment","74","uncued_switch","78","false","add","","16","","","","","","","","","","","","","","","","","","","","","","","","","","","",""
"","","","","","survey-text","199","542659","0.0-199.0","A337X6ZE9WIIU7","2022-05-24T03:50:46.200Z","task_switching-same_different-phon_sim-rhyme","","3531.699999988079","task_switching","{""uncued_switch_ans"":""87""}","experiment","90","uncued_switch","87","true","subtract","","17","","","","","","","","","","","","","","","","","","","","","","","","","","","",""
"","","","","","survey-text","200","544537","0.0-200.0","A337X6ZE9WIIU7","2022-05-24T03:50:46.200Z","task_switching-same_different-phon_sim-rhyme","","1877.0999999940395","task_switching","{""uncued_switch_ans"":""80""}","experiment","77","uncued_switch","80","true","add","","18","","","","","","","","","","","","","","","","","","","","","","","","","","","",""
"","","","","","survey-text","201","547092","0.0-201.0","A337X6ZE9WIIU7","2022-05-24T03:50:46.200Z","task_switching-same_different-phon_sim-rhyme","","2553.300000011921","task_switching","{""uncued_switch_ans"":""75""}","experiment","78","uncued_switch","75","true","subtract","","19","","","","","","","","","","","","","","","","","","","","","","","","","","","",""
"","","","","","survey-text","202","549172","0.0-202.0","A337X6ZE9WIIU7","2022-05-24T03:50:46.200Z","task_switching-same_different-phon_sim-rhyme","","2079.4000000059605","task_switching","{""uncued_switch_ans"":""95""}","experiment","92","uncued_switch","95","true","add","","20","","","","","","","","","","","","","","","","","","","","","","","","","","","",""
"","","","","","survey-text","203","551186","0.0-203.0","A337X6ZE9WIIU7","2022-05-24T03:50:46.200Z","task_switching-same_different-phon_sim-rhyme","","2012.5","task_switching","{""uncued_switch_ans"":""70""}","experiment","73","uncued_switch","70","true","subtract","","21","","","","","","","","","","","","","","","","","","","","","","","","","","","",""
"","","","","","survey-text","204","553087","0.0-204.0","A337X6ZE9WIIU7","2022-05-24T03:50:46.200Z","task_switching-same_different-phon_sim-rhyme","","1899.5999999940395","task_switching","{""uncued_switch_ans"":""68""}","experiment","65","uncued_switch","68","true","add","","22","","","","","","","","","","","","","","","","","","","","","","","","","","","",""
"","","","","","survey-text","205","554685","0.0-205.0","A337X6ZE9WIIU7","2022-05-24T03:50:46.200Z","task_switching-same_different-phon_sim-rhyme","","1596.5","task_switching","{""uncued_switch_ans"":""60""}","experiment","63","uncued_switch","60","true","subtract","","23","","","","","","","","","","","","","","","","","","","","","","","","","","","",""
"","","","","","survey-text","206","557452","0.0-206.0","A337X6ZE9WIIU7","2022-05-24T03:50:46.200Z","task_switching-same_different-phon_sim-rhyme","","2766.2000000178814","task_switching","{""uncued_switch_ans"":""89""}","experiment","86","uncued_switch","89","true","add","","24","","","","","","","","","","","","","","","","","","","","","","","","","","","",""
"","","","","","survey-text","207","560715","0.0-207.0","A337X6ZE9WIIU7","2022-05-24T03:50:46.200Z","task_switching-same_different-phon_sim-rhyme","","3261.5","task_switching","{""uncued_switch_ans"":""84""}","experiment","87","uncued_switch","84","true","subtract","","25","","","","","","","","","","","","","","","","","","","","","","","","","","","",""
"","","","","","survey-text","208","563685","0.0-208.0","A337X6ZE9WIIU7","2022-05-24T03:50:46.200Z","task_switching-same_different-phon_sim-rhyme","","2969.5","task_switching","{""uncued_switch_ans"":""82""}","experiment","79","uncued_switch","82","true","add","","26","","","","","","","","","","","","","","","","","","","","","","","","","","","",""
"","","","","","survey-text","209","566216","0.0-209.0","A337X6ZE9WIIU7","2022-05-24T03:50:46.200Z","task_switching-same_different-phon_sim-rhyme","","2529.800000011921","task_switching","{""uncued_switch_ans"":""47""}","experiment","51","uncued_switch","47","false","subtract","","27","","","","","","","","","","","","","","","","","","","","","","","","","","","",""
"","","","","","survey-text","210","571020","0.0-210.0","A337X6ZE9WIIU7","2022-05-24T03:50:46.200Z","task_switching-same_different-phon_sim-rhyme","","4802.300000011921","task_switching","{""uncued_switch_ans"":""28""}","experiment","24","uncued_switch","28","false","add","","28","","","","","","","","","","","","","","","","","","","","","","","","","","","",""
"","","","","","survey-text","211","573147","0.0-211.0","A337X6ZE9WIIU7","2022-05-24T03:50:46.200Z","task_switching-same_different-phon_sim-rhyme","","2125.600000023842","task_switching","{""uncued_switch_ans"":""24""}","experiment","67","uncued_switch","24","false","subtract","","29","","","","","","","","","","","","","","","","","","","","","","","","","","","",""
"","","","","","instructions","212","585616","0.0-212.0","A337X6ZE9WIIU7","2022-05-24T03:50:46.200Z","task_switching-same_different-phon_sim-rhyme","[{""page_index"":0,""viewing_time"":12468.799999982119}]","12469","task_switching","","","","","","","","","","","","","","","","","","","","","","","","","","","","","","","","","","","","",""
"","","","","","survey-text","213","588177","0.0-213.0","A337X6ZE9WIIU7","2022-05-24T03:50:46.200Z","task_switching-same_different-phon_sim-rhyme","","2559.7999999821186","task_switching","{""symbolcue_switch_ans"":""43""}","training","43","symbolcue_switch","43","false","add","","0","+","","","","","","","","","","","","","","","","","","","","","","","","","","",""
"","","","","","html-keyboard-response","214","593189","0.0-214.0","A337X6ZE9WIIU7","2022-05-24T03:50:46.200Z","task_switching-same_different-phon_sim-rhyme","","null","task_switching","null","training","<div style=""color:darkred; font-size:40px"">That was just the same number!<p> Correct answer: 46</p></div>","symbolcue_switch","","","","","","","","","","","","","","","","","","","","","","","","","","","","","","","","",""
"","","","","","survey-text","215","596187","0.0-215.0","A337X6ZE9WIIU7","2022-05-24T03:50:46.200Z","task_switching-same_different-phon_sim-rhyme","","2996.0999999940395","task_switching","{""symbolcue_switch_ans"":"" 37""}","training","40","symbolcue_switch"," 37","true","subtract","","1","-","","","","","","","","","","","","","","","","","","","","","","","","","","",""
"","","","","","html-keyboard-response","216","597198","0.0-216.0","A337X6ZE9WIIU7","2022-05-24T03:50:46.200Z","task_switching-same_different-phon_sim-rhyme","","null","task_switching","null","training","<div style=""color:darkgreen; font-size:60px"">Well done!</div>","symbolcue_switch","","","","","","","","","","","","","","","","","","","","","","","","","","","","","","","","",""
"","","","","","survey-text","217","598977","0.0-217.0","A337X6ZE9WIIU7","2022-05-24T03:50:46.200Z","task_switching-same_different-phon_sim-rhyme","","1778.5","task_switching","{""symbolcue_switch_ans"":""80""}","training","77","symbolcue_switch","80","true","add","","2","+","","","","","","","","","","","","","","","","","","","","","","","","","","",""
"","","","","","html-keyboard-response","218","599991","0.0-218.0","A337X6ZE9WIIU7","2022-05-24T03:50:46.200Z","task_switching-same_different-phon_sim-rhyme","","null","task_switching","null","training","<div style=""color:darkgreen; font-size:60px"">Well done!</div>","symbolcue_switch","","","","","","","","","","","","","","","","","","","","","","","","","","","","","","","","",""
"","","","","","survey-text","219","603646","0.0-219.0","A337X6ZE9WIIU7","2022-05-24T03:50:46.200Z","task_switching-same_different-phon_sim-rhyme","","3653.699999988079","task_switching","{""symbolcue_switch_ans"":""78""}","training","81","symbolcue_switch","78","true","subtract","","3","-","","","","","","","","","","","","","","","","","","","","","","","","","","",""
"","","","","","html-keyboard-response","220","604656","0.0-220.0","A337X6ZE9WIIU7","2022-05-24T03:50:46.200Z","task_switching-same_different-phon_sim-rhyme","","null","task_switching","null","training","<div style=""color:darkgreen; font-size:60px"">Well done!</div>","symbolcue_switch","","","","","","","","","","","","","","","","","","","","","","","","","","","","","","","","",""
"","","","","","survey-text","221","606245","0.0-221.0","A337X6ZE9WIIU7","2022-05-24T03:50:46.200Z","task_switching-same_different-phon_sim-rhyme","","1587.2999999821186","task_switching","{""symbolcue_switch_ans"":""83""}","training","80","symbolcue_switch","83","true","add","","4","+","","","","","","","","","","","","","","","","","","","","","","","","","","",""
"","","","","","html-keyboard-response","222","607259","0.0-222.0","A337X6ZE9WIIU7","2022-05-24T03:50:46.200Z","task_switching-same_different-phon_sim-rhyme","","null","task_switching","null","training","<div style=""color:darkgreen; font-size:60px"">Well done!</div>","symbolcue_switch","","","","","","","","","","","","","","","","","","","","","","","","","","","","","","","","",""
"","","","","","survey-text","223","611544","0.0-223.0","A337X6ZE9WIIU7","2022-05-24T03:50:46.200Z","task_switching-same_different-phon_sim-rhyme","","4284","task_switching","{""symbolcue_switch_ans"":""88""}","training","91","symbolcue_switch","88","true","subtract","","5","-","","","","","","","","","","","","","","","","","","","","","","","","","","",""
"","","","","","html-keyboard-response","224","612560","0.0-224.0","A337X6ZE9WIIU7","2022-05-24T03:50:46.200Z","task_switching-same_different-phon_sim-rhyme","","null","task_switching","null","training","<div style=""color:darkgreen; font-size:60px"">Well done!</div>","symbolcue_switch","","","","","","","","","","","","","","","","","","","","","","","","","","","","","","","","",""
"","","","","","survey-text","225","614345","0.0-225.0","A337X6ZE9WIIU7","2022-05-24T03:50:46.200Z","task_switching-same_different-phon_sim-rhyme","","1783.7999999821186","task_switching","{""symbolcue_switch_ans"":""48""}","training","45","symbolcue_switch","48","true","add","","6","+","","","","","","","","","","","","","","","","","","","","","","","","","","",""
"","","","","","html-keyboard-response","226","615357","0.0-226.0","A337X6ZE9WIIU7","2022-05-24T03:50:46.200Z","task_switching-same_different-phon_sim-rhyme","","null","task_switching","null","training","<div style=""color:darkgreen; font-size:60px"">Well done!</div>","symbolcue_switch","","","","","","","","","","","","","","","","","","","","","","","","","","","","","","","","",""
"","","","","","survey-text","227","617023","0.0-227.0","A337X6ZE9WIIU7","2022-05-24T03:50:46.200Z","task_switching-same_different-phon_sim-rhyme","","1664.800000011921","task_switching","{""symbolcue_switch_ans"":""22""}","training","25","symbolcue_switch","22","true","subtract","","7","-","","","","","","","","","","","","","","","","","","","","","","","","","","",""
"","","","","","html-keyboard-response","228","618029","0.0-228.0","A337X6ZE9WIIU7","2022-05-24T03:50:46.200Z","task_switching-same_different-phon_sim-rhyme","","null","task_switching","null","training","<div style=""color:darkgreen; font-size:60px"">Well done!</div>","symbolcue_switch","","","","","","","","","","","","","","","","","","","","","","","","","","","","","","","","",""
"","","","","","survey-text","229","619790","0.0-229.0","A337X6ZE9WIIU7","2022-05-24T03:50:46.200Z","task_switching-same_different-phon_sim-rhyme","","1759.2999999821186","task_switching","{""symbolcue_switch_ans"":""81""}","training","78","symbolcue_switch","81","true","add","","8","+","","","","","","","","","","","","","","","","","","","","","","","","","","",""
"","","","","","html-keyboard-response","230","620801","0.0-230.0","A337X6ZE9WIIU7","2022-05-24T03:50:46.200Z","task_switching-same_different-phon_sim-rhyme","","null","task_switching","null","training","<div style=""color:darkgreen; font-size:60px"">Well done!</div>","symbolcue_switch","","","","","","","","","","","","","","","","","","","","","","","","","","","","","","","","",""
"","","","","","survey-text","231","623086","0.0-231.0","A337X6ZE9WIIU7","2022-05-24T03:50:46.200Z","task_switching-same_different-phon_sim-rhyme","","2284.300000011921","task_switching","{""symbolcue_switch_ans"":""63""}","training","66","symbolcue_switch","63","true","subtract","","9","-","","","","","","","","","","","","","","","","","","","","","","","","","","",""
"","","","","","html-keyboard-response","232","624091","0.0-232.0","A337X6ZE9WIIU7","2022-05-24T03:50:46.200Z","task_switching-same_different-phon_sim-rhyme","","null","task_switching","null","training","<div style=""color:darkgreen; font-size:60px"">Well done!</div>","symbolcue_switch","","","","","","","","","","","","","","","","","","","","","","","","","","","","","","","","",""
"","","","","","instructions","233","625895","0.0-233.0","A337X6ZE9WIIU7","2022-05-24T03:50:46.200Z","task_switching-same_different-phon_sim-rhyme","[{""page_index"":0,""viewing_time"":1803.8999999761581}]","1804","task_switching","","","","","","","","","","","","","","","","","","","","","","","","","","","","","","","","","","","","",""
"","","","","","survey-text","234","627092","0.0-234.0","A337X6ZE9WIIU7","2022-05-24T03:50:46.200Z","task_switching-same_different-phon_sim-rhyme","","1195.199999988079","task_switching","{""symbolcue_switch_ans"":""95""}","experiment","92","symbolcue_switch","95","true","add","","0","+","","","","","","","","","","","","","","","","","","","","","","","","","","",""
"","","","","","survey-text","235","628936","0.0-235.0","A337X6ZE9WIIU7","2022-05-24T03:50:46.200Z","task_switching-same_different-phon_sim-rhyme","","1843.2999999821186","task_switching","{""symbolcue_switch_ans"":""34""}","experiment","37","symbolcue_switch","34","true","subtract","","1","-","","","","","","","","","","","","","","","","","","","","","","","","","","",""
"","","","","","survey-text","236","630219","0.0-236.0","A337X6ZE9WIIU7","2022-05-24T03:50:46.200Z","task_switching-same_different-phon_sim-rhyme","","1281.699999988079","task_switching","{""symbolcue_switch_ans"":""23""}","experiment","20","symbolcue_switch","23","true","add","","2","+","","","","","","","","","","","","","","","","","","","","","","","","","","",""
"","","","","","survey-text","237","632570","0.0-237.0","A337X6ZE9WIIU7","2022-05-24T03:50:46.200Z","task_switching-same_different-phon_sim-rhyme","","2350.0999999940395","task_switching","{""symbolcue_switch_ans"":""49""}","experiment","52","symbolcue_switch","49","true","subtract","","3","-","","","","","","","","","","","","","","","","","","","","","","","","","","",""
"","","","","","survey-text","238","634460","0.0-238.0","A337X6ZE9WIIU7","2022-05-24T03:50:46.200Z","task_switching-same_different-phon_sim-rhyme","","1888.5999999940395","task_switching","{""symbolcue_switch_ans"":""66""}","experiment","63","symbolcue_switch","66","true","add","","4","+","","","","","","","","","","","","","","","","","","","","","","","","","","",""
"","","","","","survey-text","239","635631","0.0-239.0","A337X6ZE9WIIU7","2022-05-24T03:50:46.200Z","task_switching-same_different-phon_sim-rhyme","","1169.4000000059605","task_switching","{""symbolcue_switch_ans"":""13""}","experiment","16","symbolcue_switch","13","true","subtract","","5","-","","","","","","","","","","","","","","","","","","","","","","","","","","",""
"","","","","","survey-text","240","636699","0.0-240.0","A337X6ZE9WIIU7","2022-05-24T03:50:46.200Z","task_switching-same_different-phon_sim-rhyme","","1067.4000000059605","task_switching","{""symbolcue_switch_ans"":""73""}","experiment","70","symbolcue_switch","73","true","add","","6","+","","","","","","","","","","","","","","","","","","","","","","","","","","",""
"","","","","","survey-text","241","638713","0.0-241.0","A337X6ZE9WIIU7","2022-05-24T03:50:46.200Z","task_switching-same_different-phon_sim-rhyme","","2012.300000011921","task_switching","{""symbolcue_switch_ans"":""25""}","experiment","28","symbolcue_switch","25","true","subtract","","7","-","","","","","","","","","","","","","","","","","","","","","","","","","","",""
"","","","","","survey-text","242","640726","0.0-242.0","A337X6ZE9WIIU7","2022-05-24T03:50:46.200Z","task_switching-same_different-phon_sim-rhyme","","2012.699999988079","task_switching","{""symbolcue_switch_ans"":""54""}","experiment","51","symbolcue_switch","54","true","add","","8","+","","","","","","","","","","","","","","","","","","","","","","","","","","",""
"","","","","","survey-text","243","643314","0.0-243.0","A337X6ZE9WIIU7","2022-05-24T03:50:46.200Z","task_switching-same_different-phon_sim-rhyme","","2586.5","task_switching","{""symbolcue_switch_ans"":""54""}","experiment","57","symbolcue_switch","54","true","subtract","","9","-","","","","","","","","","","","","","","","","","","","","","","","","","","",""
"","","","","","survey-text","244","645013","0.0-244.0","A337X6ZE9WIIU7","2022-05-24T03:50:46.200Z","task_switching-same_different-phon_sim-rhyme","","1697.699999988079","task_switching","{""symbolcue_switch_ans"":""52""}","experiment","49","symbolcue_switch","52","true","add","","10","+","","","","","","","","","","","","","","","","","","","","","","","","","","",""
"","","","","","survey-text","245","646531","0.0-245.0","A337X6ZE9WIIU7","2022-05-24T03:50:46.200Z","task_switching-same_different-phon_sim-rhyme","","1517.4000000059605","task_switching","{""symbolcue_switch_ans"":""70""}","experiment","73","symbolcue_switch","70","true","subtract","","11","-","","","","","","","","","","","","","","","","","","","","","","","","","","",""
"","","","","","survey-text","246","649255","0.0-246.0","A337X6ZE9WIIU7","2022-05-24T03:50:46.200Z","task_switching-same_different-phon_sim-rhyme","","2722.5999999940395","task_switching","{""symbolcue_switch_ans"":""96""}","experiment","93","symbolcue_switch","96","true","add","","12","+","","","","","","","","","","","","","","","","","","","","","","","","","","",""
"","","","","","survey-text","247","650548","0.0-247.0","A337X6ZE9WIIU7","2022-05-24T03:50:46.200Z","task_switching-same_different-phon_sim-rhyme","","1291.5","task_switching","{""symbolcue_switch_ans"":""73""}","experiment","76","symbolcue_switch","73","true","subtract","","13","-","","","","","","","","","","","","","","","","","","","","","","","","","","",""
"","","","","","survey-text","248","652033","0.0-248.0","A337X6ZE9WIIU7","2022-05-24T03:50:46.200Z","task_switching-same_different-phon_sim-rhyme","","1484","task_switching","{""symbolcue_switch_ans"":""50""}","experiment","47","symbolcue_switch","50","true","add","","14","+","","","","","","","","","","","","","","","","","","","","","","","","","","",""
"","","","","","survey-text","249","653383","0.0-249.0","A337X6ZE9WIIU7","2022-05-24T03:50:46.200Z","task_switching-same_different-phon_sim-rhyme","","1348.5999999940395","task_switching","{""symbolcue_switch_ans"":""72""}","experiment","75","symbolcue_switch","72","true","subtract","","15","-","","","","","","","","","","","","","","","","","","","","","","","","","","",""
"","","","","","survey-text","250","655577","0.0-250.0","A337X6ZE9WIIU7","2022-05-24T03:50:46.200Z","task_switching-same_different-phon_sim-rhyme","","2192.5999999940395","task_switching","{""symbolcue_switch_ans"":""37""}","experiment","34","symbolcue_switch","37","true","add","","16","+","","","","","","","","","","","","","","","","","","","","","","","","","","",""
"","","","","","survey-text","251","657320","0.0-251.0","A337X6ZE9WIIU7","2022-05-24T03:50:46.200Z","task_switching-same_different-phon_sim-rhyme","","1742.5999999940395","task_switching","{""symbolcue_switch_ans"":""37""}","experiment","40","symbolcue_switch","37","true","subtract","","17","-","","","","","","","","","","","","","","","","","","","","","","","","","","",""
"","","","","","survey-text","252","659676","0.0-252.0","A337X6ZE9WIIU7","2022-05-24T03:50:46.200Z","task_switching-same_different-phon_sim-rhyme","","2354.100000023842","task_switching","{""symbolcue_switch_ans"":""32""}","experiment","29","symbolcue_switch","32","true","add","","18","+","","","","","","","","","","","","","","","","","","","","","","","","","","",""
"","","","","","survey-text","253","661775","0.0-253.0","A337X6ZE9WIIU7","2022-05-24T03:50:46.200Z","task_switching-same_different-phon_sim-rhyme","","2098.5","task_switching","{""symbolcue_switch_ans"":""36""}","experiment","39","symbolcue_switch","36","true","subtract","","19","-","","","","","","","","","","","","","","","","","","","","","","","","","","",""
"","","","","","survey-text","254","663126","0.0-254.0","A337X6ZE9WIIU7","2022-05-24T03:50:46.200Z","task_switching-same_different-phon_sim-rhyme","","1349.300000011921","task_switching","{""symbolcue_switch_ans"":""36""}","experiment","33","symbolcue_switch","36","true","add","","20","+","","","","","","","","","","","","","","","","","","","","","","","","","","",""
"","","","","","survey-text","255","664948","0.0-255.0","A337X6ZE9WIIU7","2022-05-24T03:50:46.200Z","task_switching-same_different-phon_sim-rhyme","","1821.300000011921","task_switching","{""symbolcue_switch_ans"":""50""}","experiment","53","symbolcue_switch","50","true","subtract","","21","-","","","","","","","","","","","","","","","","","","","","","","","","","","",""
"","","","","","survey-text","256","666140","0.0-256.0","A337X6ZE9WIIU7","2022-05-24T03:50:46.200Z","task_switching-same_different-phon_sim-rhyme","","1190.9000000059605","task_switching","{""symbolcue_switch_ans"":""25""}","experiment","22","symbolcue_switch","25","true","add","","22","+","","","","","","","","","","","","","","","","","","","","","","","","","","",""
"","","","","","survey-text","257","668357","0.0-257.0","A337X6ZE9WIIU7","2022-05-24T03:50:46.200Z","task_switching-same_different-phon_sim-rhyme","","2215.5999999940395","task_switching","{""symbolcue_switch_ans"":""81""}","experiment","84","symbolcue_switch","81","true","subtract","","23","-","","","","","","","","","","","","","","","","","","","","","","","","","","",""
"","","","","","survey-text","258","669685","0.0-258.0","A337X6ZE9WIIU7","2022-05-24T03:50:46.200Z","task_switching-same_different-phon_sim-rhyme","","1326.7000000178814","task_switching","{""symbolcue_switch_ans"":""75""}","experiment","72","symbolcue_switch","75","true","add","","24","+","","","","","","","","","","","","","","","","","","","","","","","","","","",""
"","","","","","survey-text","259","671451","0.0-259.0","A337X6ZE9WIIU7","2022-05-24T03:50:46.200Z","task_switching-same_different-phon_sim-rhyme","","1764.699999988079","task_switching","{""symbolcue_switch_ans"":""12""}","experiment","15","symbolcue_switch","12","true","subtract","","25","-","","","","","","","","","","","","","","","","","","","","","","","","","","",""
"","","","","","survey-text","260","673599","0.0-260.0","A337X6ZE9WIIU7","2022-05-24T03:50:46.200Z","task_switching-same_different-phon_sim-rhyme","","2147.4000000059605","task_switching","{""symbolcue_switch_ans"":""92""}","experiment","89","symbolcue_switch","92","true","add","","26","+","","","","","","","","","","","","","","","","","","","","","","","","","","",""
"","","","","","survey-text","261","675939","0.0-261.0","A337X6ZE9WIIU7","2022-05-24T03:50:46.200Z","task_switching-same_different-phon_sim-rhyme","","2339.0999999940395","task_switching","{""symbolcue_switch_ans"":""63""}","experiment","66","symbolcue_switch","63","true","subtract","","27","-","","","","","","","","","","","","","","","","","","","","","","","","","","",""
"","","","","","survey-text","262","677302","0.0-262.0","A337X6ZE9WIIU7","2022-05-24T03:50:46.200Z","task_switching-same_different-phon_sim-rhyme","","1361.0999999940395","task_switching","{""symbolcue_switch_ans"":""35""}","experiment","32","symbolcue_switch","35","true","add","","28","+","","","","","","","","","","","","","","","","","","","","","","","","","","",""
"","","","","","survey-text","263","679123","0.0-263.0","A337X6ZE9WIIU7","2022-05-24T03:50:46.200Z","task_switching-same_different-phon_sim-rhyme","","1819.5999999940395","task_switching","{""symbolcue_switch_ans"":""62""}","experiment","65","symbolcue_switch","62","true","subtract","","29","-","","","","","","","","","","","","","","","","","","","","","","","","","","",""
"","","","","","survey-multi-choice","264","684316","0.0-264.0","A337X6ZE9WIIU7","2022-05-24T03:50:46.200Z","task_switching-same_different-phon_sim-rhyme","","5192.800000011921","task_switching","{""Q0"":""No""}","","","","","","","","","","[0]","No","","","","","","","","","","","","","","","","","","","","","","","","",""
"","","","","","survey-text","265","705663","0.0-265.0","A337X6ZE9WIIU7","2022-05-24T03:50:46.200Z","task_switching-same_different-phon_sim-rhyme","","21342","task_switching","{""Q0"":""Mainly, I tried to alternate between the two in my head and fixed my concentration.""}","","","","","","","","","","","","Mainly, I tried to alternate between the two in my head and fixed my concentration.","","","","","","","","","","","","","","","","","","","","","","","",""
"","","","","","instructions","266","707077","0.0-266.0","A337X6ZE9WIIU7","2022-05-24T03:50:46.200Z","task_switching-same_different-phon_sim-rhyme","[{""page_index"":0,""viewing_time"":1414}]","1414.199999988079","task_switching","","","","","","","","","","","","","","","","","","","","","","","","","","","","","","","","","","","","",""
"","","","","","instructions","267","714871","0.0-267.0","A337X6ZE9WIIU7","2022-05-24T03:50:46.200Z","task_switching-same_different-phon_sim-rhyme","[{""page_index"":0,""viewing_time"":7793.5999999940395}]","7793.799999982119","same_different","","","","","","","","","","","","","","","","","","","","","","","","","","","","","","","","","","","","",""
"","","","","","instructions","268","722032","0.0-268.0","A337X6ZE9WIIU7","2022-05-24T03:50:46.200Z","task_switching-same_different-phon_sim-rhyme","[{""page_index"":0,""viewing_time"":7160.300000011921}]","7160.5","","","","","","","","","","","","","","","","","","","","","","","","","","","","","","","","","","","","","",""
"","","","","","html-keyboard-response","269","722795","0.0-269.0-0.0","A337X6ZE9WIIU7","2022-05-24T03:50:46.200Z","task_switching-same_different-phon_sim-rhyme","","null","same_different","null","","<div style=""font-size:60px"">+</div>","","","","","","","","","","","","","","","","","","","","","","","","","","","","","","","","","",""
