"success","timeout","failed_images","failed_audio","failed_video","trial_type","trial_index","time_elapsed","internal_node_id","worker_id","start_time","experiment_order","view_history","rt","experiment","stimulus","response","wait_time","correct","phase","image_1","image_2","cor_key","type","question_order","talk_out_loud","strategy_free_ans","condition","answer","operation","symbol_cue","trial_no","color_cue","judgment_type","stim_1","stim_2","inverted","true_pos","true_neg","false_pos","false_neg","word_1","word_2","word_3","word_4","word_5","original_word_set","response_1","response_2","response_3","response_4","response_5"
"true","false","[]","[]","[]","preload","0","2508","0.0-0.0","A1CFMY4CEYOM8Y","2022-05-18T16:39:34.881Z","rhyme-task_switching-same_different-phon_sim","","","","","","","","","","","","","","","","","","","","","","","","","","","","","","","","","","","","","","","",""
"","","","","","instructions","1","13507","0.0-1.0","A1CFMY4CEYOM8Y","2022-05-18T16:39:34.881Z","rhyme-task_switching-same_different-phon_sim","[{""page_index"":0,""viewing_time"":10997.900000002235}]","10998.10000000149","","","","","","","","","","","","","","","","","","","","","","","","","","","","","","","","","","","","","",""
"true","","","","","fullscreen","2","17198","0.0-2.0","A1CFMY4CEYOM8Y","2022-05-18T16:39:34.881Z","rhyme-task_switching-same_different-phon_sim","","","","","","","","","","","","","","","","","","","","","","","","","","","","","","","","","","","","","","","",""
"","","","","","instructions","3","36715","0.0-3.0","A1CFMY4CEYOM8Y","2022-05-18T16:39:34.881Z","rhyme-task_switching-same_different-phon_sim","[{""page_index"":0,""viewing_time"":19516.29999999702}]","19516.5","rhyme","","","","","","","","","","","","","","","","","","","","","","","","","","","","","","","","","","","","",""
"","","","","","html-keyboard-response","4","37717","0.0-4.0-0.0","A1CFMY4CEYOM8Y","2022-05-18T16:39:34.881Z","rhyme-task_switching-same_different-phon_sim","","null","rhyme","<div style=""font-size:60px;"">+</div>","null","1000","","","","","","","","","","","","","","","","","","","","","","","","","","","","","","","","","",""
"","","","","","html-keyboard-response","5","38219","0.0-4.0-1.0","A1CFMY4CEYOM8Y","2022-05-18T16:39:34.881Z","rhyme-task_switching-same_different-phon_sim","","null","rhyme","<img src=""square.png"" width=""306"" height=""306"" style=""position: fixed;left:14%;top:30%""><img src=""square.png"" width=""306"" height=""306"" style=""position: fixed;left:64%;top:30%"">","null","","","","","","","","","","","","","","","","","","","","","","","","","","","","","","","","","","",""
"","","","","","categorize-html","6","41603","0.0-4.0-2.0","A1CFMY4CEYOM8Y","2022-05-18T16:39:34.881Z","rhyme-task_switching-same_different-phon_sim","","2375.699999999255","rhyme","<div style=""border: 3px solid #000000; position: fixed;left:14%;top:30%""><img src=""visual/house.png"" width=""300""></div><div style=""border: 3px solid #000000; position: fixed;left:64%;top:30%""><img src=""visual/mouse.png"" width=""300""></div>","arrowup","","true","training","visual/house.png","visual/mouse.png","ArrowUp","NA","","","","","","","","","","","","","","","","","","","","","","","","","","","",""
"","","","","","html-keyboard-response","7","41869","0.0-4.0-0.1","A1CFMY4CEYOM8Y","2022-05-18T16:39:34.881Z","rhyme-task_switching-same_different-phon_sim","","null","rhyme","<div style=""font-size:60px;"">+</div>","null","250","","","","","","","","","","","","","","","","","","","","","","","","","","","","","","","","","",""
"","","","","","html-keyboard-response","8","42371","0.0-4.0-1.1","A1CFMY4CEYOM8Y","2022-05-18T16:39:34.881Z","rhyme-task_switching-same_different-phon_sim","","null","rhyme","<img src=""square.png"" width=""306"" height=""306"" style=""position: fixed;left:14%;top:30%""><img src=""square.png"" width=""306"" height=""306"" style=""position: fixed;left:64%;top:30%"">","null","","","","","","","","","","","","","","","","","","","","","","","","","","","","","","","","","","",""
"","","","","","categorize-html","9","44769","0.0-4.0-2.1","A1CFMY4CEYOM8Y","2022-05-18T16:39:34.881Z","rhyme-task_switching-same_different-phon_sim","","1391.699999999255","rhyme","<div style=""border: 3px solid #000000; position: fixed;left:14%;top:30%""><img src=""visual/mouse.png"" width=""300""></div><div style=""border: 3px solid #000000; position: fixed;left:64%;top:30%""><img src=""visual/dress.png"" width=""300""></div>","arrowdown","","true","training","visual/mouse.png","visual/dress.png","ArrowDown","NA","","","","","","","","","","","","","","","","","","","","","","","","","","","",""
"","","","","","html-keyboard-response","10","45270","0.0-4.0-0.2","A1CFMY4CEYOM8Y","2022-05-18T16:39:34.881Z","rhyme-task_switching-same_different-phon_sim","","null","rhyme","<div style=""font-size:60px;"">+</div>","null","500","","","","","","","","","","","","","","","","","","","","","","","","","","","","","","","","","",""
"","","","","","html-keyboard-response","11","45771","0.0-4.0-1.2","A1CFMY4CEYOM8Y","2022-05-18T16:39:34.881Z","rhyme-task_switching-same_different-phon_sim","","null","rhyme","<img src=""square.png"" width=""306"" height=""306"" style=""position: fixed;left:14%;top:30%""><img src=""square.png"" width=""306"" height=""306"" style=""position: fixed;left:64%;top:30%"">","null","","","","","","","","","","","","","","","","","","","","","","","","","","","","","","","","","","",""
"","","","","","categorize-html","12","48628","0.0-4.0-2.2","A1CFMY4CEYOM8Y","2022-05-18T16:39:34.881Z","rhyme-task_switching-same_different-phon_sim","","1855","rhyme","<div style=""border: 3px solid #000000; position: fixed;left:14%;top:30%""><img src=""visual/dress.png"" width=""300""></div><div style=""border: 3px solid #000000; position: fixed;left:64%;top:30%""><img src=""visual/chess.png"" width=""300""></div>","arrowdown","","false","training","visual/dress.png","visual/chess.png","ArrowUp","NA","","","","","","","","","","","","","","","","","","","","","","","","","","","",""
"","","","","","html-keyboard-response","13","48886","0.0-4.0-0.3","A1CFMY4CEYOM8Y","2022-05-18T16:39:34.881Z","rhyme-task_switching-same_different-phon_sim","","null","rhyme","<div style=""font-size:60px;"">+</div>","null","250","","","","","","","","","","","","","","","","","","","","","","","","","","","","","","","","","",""
"","","","","","html-keyboard-response","14","49400","0.0-4.0-1.3","A1CFMY4CEYOM8Y","2022-05-18T16:39:34.881Z","rhyme-task_switching-same_different-phon_sim","","null","rhyme","<img src=""square.png"" width=""306"" height=""306"" style=""position: fixed;left:14%;top:30%""><img src=""square.png"" width=""306"" height=""306"" style=""position: fixed;left:64%;top:30%"">","null","","","","","","","","","","","","","","","","","","","","","","","","","","","","","","","","","","",""
"","","","","","categorize-html","15","52421","0.0-4.0-2.3","A1CFMY4CEYOM8Y","2022-05-18T16:39:34.881Z","rhyme-task_switching-same_different-phon_sim","","2018.6000000014901","rhyme","<div style=""border: 3px solid #000000; position: fixed;left:14%;top:30%""><img src=""visual/chess.png"" width=""300""></div><div style=""border: 3px solid #000000; position: fixed;left:64%;top:30%""><img src=""visual/suit.png"" width=""300""></div>","arrowdown","","true","training","visual/chess.png","visual/suit.png","ArrowDown","NA","","","","","","","","","","","","","","","","","","","","","","","","","","","",""
"","","","","","instructions","16","56147","0.0-5.0","A1CFMY4CEYOM8Y","2022-05-18T16:39:34.881Z","rhyme-task_switching-same_different-phon_sim","[{""page_index"":0,""viewing_time"":3725.2999999970198}]","3725.5","","","","","","","","","","","","","","","","","","","","","","","","","","","","","","","","","","","","","",""
"","","","","","html-keyboard-response","17","57151","0.0-6.0-0.0","A1CFMY4CEYOM8Y","2022-05-18T16:39:34.881Z","rhyme-task_switching-same_different-phon_sim","","null","rhyme","<div style=""font-size:60px;"">+</div>","null","1000","","","","","","","","","","","","","","","","","","","","","","","","","","","","","","","","","",""
"","","","","","html-keyboard-response","18","57659","0.0-6.0-1.0","A1CFMY4CEYOM8Y","2022-05-18T16:39:34.881Z","rhyme-task_switching-same_different-phon_sim","","null","rhyme","<img src=""square.png"" width=""306"" height=""306"" style=""position: fixed;left:14%;top:30%""><img src=""square.png"" width=""306"" height=""306"" style=""position: fixed;left:64%;top:30%"">","null","","","","","","","","","","","","","","","","","","","","","","","","","","","","","","","","","","",""
"","","","","","html-keyboard-response","19","58964","0.0-6.0-2.0","A1CFMY4CEYOM8Y","2022-05-18T16:39:34.881Z","rhyme-task_switching-same_different-phon_sim","","1303.1000000014901","rhyme","<div style=""border: 3px solid #000000; position: fixed;left:14%;top:30%""><img src=""visual/king.png"" width=""300""></div><div style=""border: 3px solid #000000; position: fixed;left:64%;top:30%""><img src=""visual/ring.png"" width=""300""></div>","arrowup","","true","experiment","visual/king.png","visual/ring.png","ArrowUp","ortho","","","","","","","","","","","","","","","","","","","","","","","","","","","",""
"","","","","","html-keyboard-response","20","59722","0.0-6.0-0.1","A1CFMY4CEYOM8Y","2022-05-18T16:39:34.881Z","rhyme-task_switching-same_different-phon_sim","","null","rhyme","<div style=""font-size:60px;"">+</div>","null","750","","","","","","","","","","","","","","","","","","","","","","","","","","","","","","","","","",""
"","","","","","html-keyboard-response","21","60237","0.0-6.0-1.1","A1CFMY4CEYOM8Y","2022-05-18T16:39:34.881Z","rhyme-task_switching-same_different-phon_sim","","null","rhyme","<img src=""square.png"" width=""306"" height=""306"" style=""position: fixed;left:14%;top:30%""><img src=""square.png"" width=""306"" height=""306"" style=""position: fixed;left:64%;top:30%"">","null","","","","","","","","","","","","","","","","","","","","","","","","","","","","","","","","","","",""
"","","","","","html-keyboard-response","22","61540","0.0-6.0-2.1","A1CFMY4CEYOM8Y","2022-05-18T16:39:34.881Z","rhyme-task_switching-same_different-phon_sim","","1302.5","rhyme","<div style=""border: 3px solid #000000; position: fixed;left:14%;top:30%""><img src=""visual/soap.png"" width=""300""></div><div style=""border: 3px solid #000000; position: fixed;left:64%;top:30%""><img src=""visual/rope.png"" width=""300""></div>","arrowup","","true","experiment","visual/soap.png","visual/rope.png","ArrowUp","non-ortho","","","","","","","","","","","","","","","","","","","","","","","","","","","",""
"","","","","","html-keyboard-response","23","62054","0.0-6.0-0.2","A1CFMY4CEYOM8Y","2022-05-18T16:39:34.881Z","rhyme-task_switching-same_different-phon_sim","","null","rhyme","<div style=""font-size:60px;"">+</div>","null","500","","","","","","","","","","","","","","","","","","","","","","","","","","","","","","","","","",""
"","","","","","html-keyboard-response","24","62555","0.0-6.0-1.2","A1CFMY4CEYOM8Y","2022-05-18T16:39:34.881Z","rhyme-task_switching-same_different-phon_sim","","null","rhyme","<img src=""square.png"" width=""306"" height=""306"" style=""position: fixed;left:14%;top:30%""><img src=""square.png"" width=""306"" height=""306"" style=""position: fixed;left:64%;top:30%"">","null","","","","","","","","","","","","","","","","","","","","","","","","","","","","","","","","","","",""
"","","","","","html-keyboard-response","25","64300","0.0-6.0-2.2","A1CFMY4CEYOM8Y","2022-05-18T16:39:34.881Z","rhyme-task_switching-same_different-phon_sim","","1743.6000000014901","rhyme","<div style=""border: 3px solid #000000; position: fixed;left:14%;top:30%""><img src=""visual/wheel.png"" width=""300""></div><div style=""border: 3px solid #000000; position: fixed;left:64%;top:30%""><img src=""visual/seal.png"" width=""300""></div>","arrowdown","","false","experiment","visual/wheel.png","visual/seal.png","ArrowUp","non-ortho","","","","","","","","","","","","","","","","","","","","","","","","","","","",""
"","","","","","html-keyboard-response","26","64805","0.0-6.0-0.3","A1CFMY4CEYOM8Y","2022-05-18T16:39:34.881Z","rhyme-task_switching-same_different-phon_sim","","null","rhyme","<div style=""font-size:60px;"">+</div>","null","500","","","","","","","","","","","","","","","","","","","","","","","","","","","","","","","","","",""
"","","","","","html-keyboard-response","27","65320","0.0-6.0-1.3","A1CFMY4CEYOM8Y","2022-05-18T16:39:34.881Z","rhyme-task_switching-same_different-phon_sim","","null","rhyme","<img src=""square.png"" width=""306"" height=""306"" style=""position: fixed;left:14%;top:30%""><img src=""square.png"" width=""306"" height=""306"" style=""position: fixed;left:64%;top:30%"">","null","","","","","","","","","","","","","","","","","","","","","","","","","","","","","","","","","","",""
"","","","","","html-keyboard-response","28","67012","0.0-6.0-2.3","A1CFMY4CEYOM8Y","2022-05-18T16:39:34.881Z","rhyme-task_switching-same_different-phon_sim","","1690.6000000014901","rhyme","<div style=""border: 3px solid #000000; position: fixed;left:14%;top:30%""><img src=""visual/egg.png"" width=""300""></div><div style=""border: 3px solid #000000; position: fixed;left:64%;top:30%""><img src=""visual/ring.png"" width=""300""></div>","arrowdown","","true","experiment","visual/egg.png","visual/ring.png","ArrowDown","NR","","","","","","","","","","","","","","","","","","","","","","","","","","","",""
"","","","","","html-keyboard-response","29","68020","0.0-6.0-0.4","A1CFMY4CEYOM8Y","2022-05-18T16:39:34.881Z","rhyme-task_switching-same_different-phon_sim","","null","rhyme","<div style=""font-size:60px;"">+</div>","null","1000","","","","","","","","","","","","","","","","","","","","","","","","","","","","","","","","","",""
"","","","","","html-keyboard-response","30","68524","0.0-6.0-1.4","A1CFMY4CEYOM8Y","2022-05-18T16:39:34.881Z","rhyme-task_switching-same_different-phon_sim","","null","rhyme","<img src=""square.png"" width=""306"" height=""306"" style=""position: fixed;left:14%;top:30%""><img src=""square.png"" width=""306"" height=""306"" style=""position: fixed;left:64%;top:30%"">","null","","","","","","","","","","","","","","","","","","","","","","","","","","","","","","","","","","",""
"","","","","","html-keyboard-response","31","70308","0.0-6.0-2.4","A1CFMY4CEYOM8Y","2022-05-18T16:39:34.881Z","rhyme-task_switching-same_different-phon_sim","","1783.300000000745","rhyme","<div style=""border: 3px solid #000000; position: fixed;left:14%;top:30%""><img src=""visual/star.png"" width=""300""></div><div style=""border: 3px solid #000000; position: fixed;left:64%;top:30%""><img src=""visual/jar.png"" width=""300""></div>","arrowup","","true","experiment","visual/star.png","visual/jar.png","ArrowUp","ortho","","","","","","","","","","","","","","","","","","","","","","","","","","","",""
"","","","","","html-keyboard-response","32","71320","0.0-6.0-0.5","A1CFMY4CEYOM8Y","2022-05-18T16:39:34.881Z","rhyme-task_switching-same_different-phon_sim","","null","rhyme","<div style=""font-size:60px;"">+</div>","null","1000","","","","","","","","","","","","","","","","","","","","","","","","","","","","","","","","","",""
"","","","","","html-keyboard-response","33","71832","0.0-6.0-1.5","A1CFMY4CEYOM8Y","2022-05-18T16:39:34.881Z","rhyme-task_switching-same_different-phon_sim","","null","rhyme","<img src=""square.png"" width=""306"" height=""306"" style=""position: fixed;left:14%;top:30%""><img src=""square.png"" width=""306"" height=""306"" style=""position: fixed;left:64%;top:30%"">","null","","","","","","","","","","","","","","","","","","","","","","","","","","","","","","","","","","",""
"","","","","","html-keyboard-response","34","73836","0.0-6.0-2.5","A1CFMY4CEYOM8Y","2022-05-18T16:39:34.881Z","rhyme-task_switching-same_different-phon_sim","","2002.8999999985099","rhyme","<div style=""border: 3px solid #000000; position: fixed;left:14%;top:30%""><img src=""visual/bin.png"" width=""300""></div><div style=""border: 3px solid #000000; position: fixed;left:64%;top:30%""><img src=""visual/chin.png"" width=""300""></div>","arrowdown","","false","experiment","visual/bin.png","visual/chin.png","ArrowUp","ortho","","","","","","","","","","","","","","","","","","","","","","","","","","","",""
"","","","","","html-keyboard-response","35","74087","0.0-6.0-0.6","A1CFMY4CEYOM8Y","2022-05-18T16:39:34.881Z","rhyme-task_switching-same_different-phon_sim","","null","rhyme","<div style=""font-size:60px;"">+</div>","null","250","","","","","","","","","","","","","","","","","","","","","","","","","","","","","","","","","",""
"","","","","","html-keyboard-response","36","74603","0.0-6.0-1.6","A1CFMY4CEYOM8Y","2022-05-18T16:39:34.881Z","rhyme-task_switching-same_different-phon_sim","","null","rhyme","<img src=""square.png"" width=""306"" height=""306"" style=""position: fixed;left:14%;top:30%""><img src=""square.png"" width=""306"" height=""306"" style=""position: fixed;left:64%;top:30%"">","null","","","","","","","","","","","","","","","","","","","","","","","","","","","","","","","","","","",""
"","","","","","html-keyboard-response","37","77292","0.0-6.0-2.6","A1CFMY4CEYOM8Y","2022-05-18T16:39:34.881Z","rhyme-task_switching-same_different-phon_sim","","2687.39999999851","rhyme","<div style=""border: 3px solid #000000; position: fixed;left:14%;top:30%""><img src=""visual/drawer.png"" width=""300""></div><div style=""border: 3px solid #000000; position: fixed;left:64%;top:30%""><img src=""visual/chair.png"" width=""300""></div>","arrowdown","","true","experiment","visual/drawer.png","visual/chair.png","ArrowDown","NR","","","","","","","","","","","","","","","","","","","","","","","","","","","",""
"","","","","","html-keyboard-response","38","77804","0.0-6.0-0.7","A1CFMY4CEYOM8Y","2022-05-18T16:39:34.881Z","rhyme-task_switching-same_different-phon_sim","","null","rhyme","<div style=""font-size:60px;"">+</div>","null","500","","","","","","","","","","","","","","","","","","","","","","","","","","","","","","","","","",""
"","","","","","html-keyboard-response","39","78320","0.0-6.0-1.7","A1CFMY4CEYOM8Y","2022-05-18T16:39:34.881Z","rhyme-task_switching-same_different-phon_sim","","null","rhyme","<img src=""square.png"" width=""306"" height=""306"" style=""position: fixed;left:14%;top:30%""><img src=""square.png"" width=""306"" height=""306"" style=""position: fixed;left:64%;top:30%"">","null","","","","","","","","","","","","","","","","","","","","","","","","","","","","","","","","","","",""
"","","","","","html-keyboard-response","40","80732","0.0-6.0-2.7","A1CFMY4CEYOM8Y","2022-05-18T16:39:34.881Z","rhyme-task_switching-same_different-phon_sim","","2410.39999999851","rhyme","<div style=""border: 3px solid #000000; position: fixed;left:14%;top:30%""><img src=""visual/well.png"" width=""300""></div><div style=""border: 3px solid #000000; position: fixed;left:64%;top:30%""><img src=""visual/rose.png"" width=""300""></div>","arrowdown","","true","experiment","visual/well.png","visual/rose.png","ArrowDown","NR","","","","","","","","","","","","","","","","","","","","","","","","","","","",""
"","","","","","html-keyboard-response","41","81486","0.0-6.0-0.8","A1CFMY4CEYOM8Y","2022-05-18T16:39:34.881Z","rhyme-task_switching-same_different-phon_sim","","null","rhyme","<div style=""font-size:60px;"">+</div>","null","750","","","","","","","","","","","","","","","","","","","","","","","","","","","","","","","","","",""
"","","","","","html-keyboard-response","42","81988","0.0-6.0-1.8","A1CFMY4CEYOM8Y","2022-05-18T16:39:34.881Z","rhyme-task_switching-same_different-phon_sim","","null","rhyme","<img src=""square.png"" width=""306"" height=""306"" style=""position: fixed;left:14%;top:30%""><img src=""square.png"" width=""306"" height=""306"" style=""position: fixed;left:64%;top:30%"">","null","","","","","","","","","","","","","","","","","","","","","","","","","","","","","","","","","","",""
"","","","","","html-keyboard-response","43","84348","0.0-6.0-2.8","A1CFMY4CEYOM8Y","2022-05-18T16:39:34.881Z","rhyme-task_switching-same_different-phon_sim","","2359.300000000745","rhyme","<div style=""border: 3px solid #000000; position: fixed;left:14%;top:30%""><img src=""visual/wave.png"" width=""300""></div><div style=""border: 3px solid #000000; position: fixed;left:64%;top:30%""><img src=""visual/cave.png"" width=""300""></div>","arrowup","","true","experiment","visual/wave.png","visual/cave.png","ArrowUp","ortho","","","","","","","","","","","","","","","","","","","","","","","","","","","",""
"","","","","","html-keyboard-response","44","85113","0.0-6.0-0.9","A1CFMY4CEYOM8Y","2022-05-18T16:39:34.881Z","rhyme-task_switching-same_different-phon_sim","","null","rhyme","<div style=""font-size:60px;"">+</div>","null","750","","","","","","","","","","","","","","","","","","","","","","","","","","","","","","","","","",""
"","","","","","html-keyboard-response","45","85620","0.0-6.0-1.9","A1CFMY4CEYOM8Y","2022-05-18T16:39:34.881Z","rhyme-task_switching-same_different-phon_sim","","null","rhyme","<img src=""square.png"" width=""306"" height=""306"" style=""position: fixed;left:14%;top:30%""><img src=""square.png"" width=""306"" height=""306"" style=""position: fixed;left:64%;top:30%"">","null","","","","","","","","","","","","","","","","","","","","","","","","","","","","","","","","","","",""
"","","","","","html-keyboard-response","46","87100","0.0-6.0-2.9","A1CFMY4CEYOM8Y","2022-05-18T16:39:34.881Z","rhyme-task_switching-same_different-phon_sim","","1478.5999999977648","rhyme","<div style=""border: 3px solid #000000; position: fixed;left:14%;top:30%""><img src=""visual/chair.png"" width=""300""></div><div style=""border: 3px solid #000000; position: fixed;left:64%;top:30%""><img src=""visual/pear.png"" width=""300""></div>","arrowup","","true","experiment","visual/chair.png","visual/pear.png","ArrowUp","non-ortho","","","","","","","","","","","","","","","","","","","","","","","","","","","",""
"","","","","","html-keyboard-response","47","87607","0.0-6.0-0.10","A1CFMY4CEYOM8Y","2022-05-18T16:39:34.881Z","rhyme-task_switching-same_different-phon_sim","","null","rhyme","<div style=""font-size:60px;"">+</div>","null","500","","","","","","","","","","","","","","","","","","","","","","","","","","","","","","","","","",""
"","","","","","html-keyboard-response","48","88120","0.0-6.0-1.10","A1CFMY4CEYOM8Y","2022-05-18T16:39:34.881Z","rhyme-task_switching-same_different-phon_sim","","null","rhyme","<img src=""square.png"" width=""306"" height=""306"" style=""position: fixed;left:14%;top:30%""><img src=""square.png"" width=""306"" height=""306"" style=""position: fixed;left:64%;top:30%"">","null","","","","","","","","","","","","","","","","","","","","","","","","","","","","","","","","","","",""
"","","","","","html-keyboard-response","49","89148","0.0-6.0-2.10","A1CFMY4CEYOM8Y","2022-05-18T16:39:34.881Z","rhyme-task_switching-same_different-phon_sim","","1026.9000000022352","rhyme","<div style=""border: 3px solid #000000; position: fixed;left:14%;top:30%""><img src=""visual/pear.png"" width=""300""></div><div style=""border: 3px solid #000000; position: fixed;left:64%;top:30%""><img src=""visual/rope.png"" width=""300""></div>","arrowdown","","true","experiment","visual/pear.png","visual/rope.png","ArrowDown","NR","","","","","","","","","","","","","","","","","","","","","","","","","","","",""
"","","","","","html-keyboard-response","50","89653","0.0-6.0-0.11","A1CFMY4CEYOM8Y","2022-05-18T16:39:34.881Z","rhyme-task_switching-same_different-phon_sim","","null","rhyme","<div style=""font-size:60px;"">+</div>","null","500","","","","","","","","","","","","","","","","","","","","","","","","","","","","","","","","","",""
"","","","","","html-keyboard-response","51","90170","0.0-6.0-1.11","A1CFMY4CEYOM8Y","2022-05-18T16:39:34.881Z","rhyme-task_switching-same_different-phon_sim","","null","rhyme","<img src=""square.png"" width=""306"" height=""306"" style=""position: fixed;left:14%;top:30%""><img src=""square.png"" width=""306"" height=""306"" style=""position: fixed;left:64%;top:30%"">","null","","","","","","","","","","","","","","","","","","","","","","","","","","","","","","","","","","",""
"","","","","","html-keyboard-response","52","92748","0.0-6.0-2.11","A1CFMY4CEYOM8Y","2022-05-18T16:39:34.881Z","rhyme-task_switching-same_different-phon_sim","","2577.099999997765","rhyme","<div style=""border: 3px solid #000000; position: fixed;left:14%;top:30%""><img src=""visual/dart.png"" width=""300""></div><div style=""border: 3px solid #000000; position: fixed;left:64%;top:30%""><img src=""visual/heart.png"" width=""300""></div>","arrowup","","true","experiment","visual/dart.png","visual/heart.png","ArrowUp","non-ortho","","","","","","","","","","","","","","","","","","","","","","","","","","","",""
"","","","","","html-keyboard-response","53","93253","0.0-6.0-0.12","A1CFMY4CEYOM8Y","2022-05-18T16:39:34.881Z","rhyme-task_switching-same_different-phon_sim","","null","rhyme","<div style=""font-size:60px;"">+</div>","null","500","","","","","","","","","","","","","","","","","","","","","","","","","","","","","","","","","",""
"","","","","","html-keyboard-response","54","93755","0.0-6.0-1.12","A1CFMY4CEYOM8Y","2022-05-18T16:39:34.881Z","rhyme-task_switching-same_different-phon_sim","","null","rhyme","<img src=""square.png"" width=""306"" height=""306"" style=""position: fixed;left:14%;top:30%""><img src=""square.png"" width=""306"" height=""306"" style=""position: fixed;left:64%;top:30%"">","null","","","","","","","","","","","","","","","","","","","","","","","","","","","","","","","","","","",""
"","","","","","html-keyboard-response","55","95580","0.0-6.0-2.12","A1CFMY4CEYOM8Y","2022-05-18T16:39:34.881Z","rhyme-task_switching-same_different-phon_sim","","1824.300000000745","rhyme","<div style=""border: 3px solid #000000; position: fixed;left:14%;top:30%""><img src=""visual/shark.png"" width=""300""></div><div style=""border: 3px solid #000000; position: fixed;left:64%;top:30%""><img src=""visual/moon.png"" width=""300""></div>","arrowdown","","true","experiment","visual/shark.png","visual/moon.png","ArrowDown","NR","","","","","","","","","","","","","","","","","","","","","","","","","","","",""
"","","","","","html-keyboard-response","56","96087","0.0-6.0-0.13","A1CFMY4CEYOM8Y","2022-05-18T16:39:34.881Z","rhyme-task_switching-same_different-phon_sim","","null","rhyme","<div style=""font-size:60px;"">+</div>","null","500","","","","","","","","","","","","","","","","","","","","","","","","","","","","","","","","","",""
"","","","","","html-keyboard-response","57","96597","0.0-6.0-1.13","A1CFMY4CEYOM8Y","2022-05-18T16:39:34.881Z","rhyme-task_switching-same_different-phon_sim","","null","rhyme","<img src=""square.png"" width=""306"" height=""306"" style=""position: fixed;left:14%;top:30%""><img src=""square.png"" width=""306"" height=""306"" style=""position: fixed;left:64%;top:30%"">","null","","","","","","","","","","","","","","","","","","","","","","","","","","","","","","","","","","",""
"","","","","","html-keyboard-response","58","99108","0.0-6.0-2.13","A1CFMY4CEYOM8Y","2022-05-18T16:39:34.881Z","rhyme-task_switching-same_different-phon_sim","","2510.10000000149","rhyme","<div style=""border: 3px solid #000000; position: fixed;left:14%;top:30%""><img src=""visual/pope.png"" width=""300""></div><div style=""border: 3px solid #000000; position: fixed;left:64%;top:30%""><img src=""visual/soap.png"" width=""300""></div>","arrowup","","true","experiment","visual/pope.png","visual/soap.png","ArrowUp","non-ortho","","","","","","","","","","","","","","","","","","","","","","","","","","","",""
"","","","","","html-keyboard-response","59","99612","0.0-6.0-0.14","A1CFMY4CEYOM8Y","2022-05-18T16:39:34.881Z","rhyme-task_switching-same_different-phon_sim","","null","rhyme","<div style=""font-size:60px;"">+</div>","null","500","","","","","","","","","","","","","","","","","","","","","","","","","","","","","","","","","",""
"","","","","","html-keyboard-response","60","100120","0.0-6.0-1.14","A1CFMY4CEYOM8Y","2022-05-18T16:39:34.881Z","rhyme-task_switching-same_different-phon_sim","","null","rhyme","<img src=""square.png"" width=""306"" height=""306"" style=""position: fixed;left:14%;top:30%""><img src=""square.png"" width=""306"" height=""306"" style=""position: fixed;left:64%;top:30%"">","null","","","","","","","","","","","","","","","","","","","","","","","","","","","","","","","","","","",""
"","","","","","html-keyboard-response","61","101404","0.0-6.0-2.14","A1CFMY4CEYOM8Y","2022-05-18T16:39:34.881Z","rhyme-task_switching-same_different-phon_sim","","1282.0999999977648","rhyme","<div style=""border: 3px solid #000000; position: fixed;left:14%;top:30%""><img src=""visual/tree.png"" width=""300""></div><div style=""border: 3px solid #000000; position: fixed;left:64%;top:30%""><img src=""visual/door.png"" width=""300""></div>","arrowdown","","true","experiment","visual/tree.png","visual/door.png","ArrowDown","NR","","","","","","","","","","","","","","","","","","","","","","","","","","","",""
"","","","","","html-keyboard-response","62","102409","0.0-6.0-0.15","A1CFMY4CEYOM8Y","2022-05-18T16:39:34.881Z","rhyme-task_switching-same_different-phon_sim","","null","rhyme","<div style=""font-size:60px;"">+</div>","null","1000","","","","","","","","","","","","","","","","","","","","","","","","","","","","","","","","","",""
"","","","","","html-keyboard-response","63","102920","0.0-6.0-1.15","A1CFMY4CEYOM8Y","2022-05-18T16:39:34.881Z","rhyme-task_switching-same_different-phon_sim","","null","rhyme","<img src=""square.png"" width=""306"" height=""306"" style=""position: fixed;left:14%;top:30%""><img src=""square.png"" width=""306"" height=""306"" style=""position: fixed;left:64%;top:30%"">","null","","","","","","","","","","","","","","","","","","","","","","","","","","","","","","","","","","",""
"","","","","","html-keyboard-response","64","104667","0.0-6.0-2.15","A1CFMY4CEYOM8Y","2022-05-18T16:39:34.881Z","rhyme-task_switching-same_different-phon_sim","","1746.699999999255","rhyme","<div style=""border: 3px solid #000000; position: fixed;left:14%;top:30%""><img src=""visual/well.png"" width=""300""></div><div style=""border: 3px solid #000000; position: fixed;left:64%;top:30%""><img src=""visual/bell.png"" width=""300""></div>","arrowup","","true","experiment","visual/well.png","visual/bell.png","ArrowUp","ortho","","","","","","","","","","","","","","","","","","","","","","","","","","","",""
"","","","","","html-keyboard-response","65","105171","0.0-6.0-0.16","A1CFMY4CEYOM8Y","2022-05-18T16:39:34.881Z","rhyme-task_switching-same_different-phon_sim","","null","rhyme","<div style=""font-size:60px;"">+</div>","null","500","","","","","","","","","","","","","","","","","","","","","","","","","","","","","","","","","",""
"","","","","","html-keyboard-response","66","105675","0.0-6.0-1.16","A1CFMY4CEYOM8Y","2022-05-18T16:39:34.881Z","rhyme-task_switching-same_different-phon_sim","","null","rhyme","<img src=""square.png"" width=""306"" height=""306"" style=""position: fixed;left:14%;top:30%""><img src=""square.png"" width=""306"" height=""306"" style=""position: fixed;left:64%;top:30%"">","null","","","","","","","","","","","","","","","","","","","","","","","","","","","","","","","","","","",""
"","","","","","html-keyboard-response","67","106972","0.0-6.0-2.16","A1CFMY4CEYOM8Y","2022-05-18T16:39:34.881Z","rhyme-task_switching-same_different-phon_sim","","1296.5","rhyme","<div style=""border: 3px solid #000000; position: fixed;left:14%;top:30%""><img src=""visual/plane.png"" width=""300""></div><div style=""border: 3px solid #000000; position: fixed;left:64%;top:30%""><img src=""visual/train.png"" width=""300""></div>","arrowup","","true","experiment","visual/plane.png","visual/train.png","ArrowUp","non-ortho","","","","","","","","","","","","","","","","","","","","","","","","","","","",""
"","","","","","html-keyboard-response","68","107487","0.0-6.0-0.17","A1CFMY4CEYOM8Y","2022-05-18T16:39:34.881Z","rhyme-task_switching-same_different-phon_sim","","null","rhyme","<div style=""font-size:60px;"">+</div>","null","500","","","","","","","","","","","","","","","","","","","","","","","","","","","","","","","","","",""
"","","","","","html-keyboard-response","69","107988","0.0-6.0-1.17","A1CFMY4CEYOM8Y","2022-05-18T16:39:34.881Z","rhyme-task_switching-same_different-phon_sim","","null","rhyme","<img src=""square.png"" width=""306"" height=""306"" style=""position: fixed;left:14%;top:30%""><img src=""square.png"" width=""306"" height=""306"" style=""position: fixed;left:64%;top:30%"">","null","","","","","","","","","","","","","","","","","","","","","","","","","","","","","","","","","","",""
"","","","","","html-keyboard-response","70","109300","0.0-6.0-2.17","A1CFMY4CEYOM8Y","2022-05-18T16:39:34.881Z","rhyme-task_switching-same_different-phon_sim","","1310.5","rhyme","<div style=""border: 3px solid #000000; position: fixed;left:14%;top:30%""><img src=""visual/nose.png"" width=""300""></div><div style=""border: 3px solid #000000; position: fixed;left:64%;top:30%""><img src=""visual/bell.png"" width=""300""></div>","arrowdown","","true","experiment","visual/nose.png","visual/bell.png","ArrowDown","NR","","","","","","","","","","","","","","","","","","","","","","","","","","","",""
"","","","","","html-keyboard-response","71","109551","0.0-6.0-0.18","A1CFMY4CEYOM8Y","2022-05-18T16:39:34.881Z","rhyme-task_switching-same_different-phon_sim","","null","rhyme","<div style=""font-size:60px;"">+</div>","null","250","","","","","","","","","","","","","","","","","","","","","","","","","","","","","","","","","",""
"","","","","","html-keyboard-response","72","110055","0.0-6.0-1.18","A1CFMY4CEYOM8Y","2022-05-18T16:39:34.881Z","rhyme-task_switching-same_different-phon_sim","","null","rhyme","<img src=""square.png"" width=""306"" height=""306"" style=""position: fixed;left:14%;top:30%""><img src=""square.png"" width=""306"" height=""306"" style=""position: fixed;left:64%;top:30%"">","null","","","","","","","","","","","","","","","","","","","","","","","","","","","","","","","","","","",""
"","","","","","html-keyboard-response","73","111476","0.0-6.0-2.18","A1CFMY4CEYOM8Y","2022-05-18T16:39:34.881Z","rhyme-task_switching-same_different-phon_sim","","1420.199999999255","rhyme","<div style=""border: 3px solid #000000; position: fixed;left:14%;top:30%""><img src=""visual/rose.png"" width=""300""></div><div style=""border: 3px solid #000000; position: fixed;left:64%;top:30%""><img src=""visual/nose.png"" width=""300""></div>","arrowup","","true","experiment","visual/rose.png","visual/nose.png","ArrowUp","ortho","","","","","","","","","","","","","","","","","","","","","","","","","","","",""
"","","","","","html-keyboard-response","74","111989","0.0-6.0-0.19","A1CFMY4CEYOM8Y","2022-05-18T16:39:34.881Z","rhyme-task_switching-same_different-phon_sim","","null","rhyme","<div style=""font-size:60px;"">+</div>","null","500","","","","","","","","","","","","","","","","","","","","","","","","","","","","","","","","","",""
"","","","","","html-keyboard-response","75","112493","0.0-6.0-1.19","A1CFMY4CEYOM8Y","2022-05-18T16:39:34.881Z","rhyme-task_switching-same_different-phon_sim","","null","rhyme","<img src=""square.png"" width=""306"" height=""306"" style=""position: fixed;left:14%;top:30%""><img src=""square.png"" width=""306"" height=""306"" style=""position: fixed;left:64%;top:30%"">","null","","","","","","","","","","","","","","","","","","","","","","","","","","","","","","","","","","",""
"","","","","","html-keyboard-response","76","113684","0.0-6.0-2.19","A1CFMY4CEYOM8Y","2022-05-18T16:39:34.881Z","rhyme-task_switching-same_different-phon_sim","","1190.1000000014901","rhyme","<div style=""border: 3px solid #000000; position: fixed;left:14%;top:30%""><img src=""visual/spoon.png"" width=""300""></div><div style=""border: 3px solid #000000; position: fixed;left:64%;top:30%""><img src=""visual/crab.png"" width=""300""></div>","arrowdown","","true","experiment","visual/spoon.png","visual/crab.png","ArrowDown","NR","","","","","","","","","","","","","","","","","","","","","","","","","","","",""
"","","","","","html-keyboard-response","77","114688","0.0-6.0-0.20","A1CFMY4CEYOM8Y","2022-05-18T16:39:34.881Z","rhyme-task_switching-same_different-phon_sim","","null","rhyme","<div style=""font-size:60px;"">+</div>","null","1000","","","","","","","","","","","","","","","","","","","","","","","","","","","","","","","","","",""
"","","","","","html-keyboard-response","78","115203","0.0-6.0-1.20","A1CFMY4CEYOM8Y","2022-05-18T16:39:34.881Z","rhyme-task_switching-same_different-phon_sim","","null","rhyme","<img src=""square.png"" width=""306"" height=""306"" style=""position: fixed;left:14%;top:30%""><img src=""square.png"" width=""306"" height=""306"" style=""position: fixed;left:64%;top:30%"">","null","","","","","","","","","","","","","","","","","","","","","","","","","","","","","","","","","","",""
"","","","","","html-keyboard-response","79","116564","0.0-6.0-2.20","A1CFMY4CEYOM8Y","2022-05-18T16:39:34.881Z","rhyme-task_switching-same_different-phon_sim","","1359.5999999977648","rhyme","<div style=""border: 3px solid #000000; position: fixed;left:14%;top:30%""><img src=""visual/sock.png"" width=""300""></div><div style=""border: 3px solid #000000; position: fixed;left:64%;top:30%""><img src=""visual/clock.png"" width=""300""></div>","arrowup","","true","experiment","visual/sock.png","visual/clock.png","ArrowUp","ortho","","","","","","","","","","","","","","","","","","","","","","","","","","","",""
"","","","","","html-keyboard-response","80","117320","0.0-6.0-0.21","A1CFMY4CEYOM8Y","2022-05-18T16:39:34.881Z","rhyme-task_switching-same_different-phon_sim","","null","rhyme","<div style=""font-size:60px;"">+</div>","null","750","","","","","","","","","","","","","","","","","","","","","","","","","","","","","","","","","",""
"","","","","","html-keyboard-response","81","117832","0.0-6.0-1.21","A1CFMY4CEYOM8Y","2022-05-18T16:39:34.881Z","rhyme-task_switching-same_different-phon_sim","","null","rhyme","<img src=""square.png"" width=""306"" height=""306"" style=""position: fixed;left:14%;top:30%""><img src=""square.png"" width=""306"" height=""306"" style=""position: fixed;left:64%;top:30%"">","null","","","","","","","","","","","","","","","","","","","","","","","","","","","","","","","","","","",""
"","","","","","html-keyboard-response","82","121051","0.0-6.0-2.21","A1CFMY4CEYOM8Y","2022-05-18T16:39:34.881Z","rhyme-task_switching-same_different-phon_sim","","3219.2999999970198","rhyme","<div style=""border: 3px solid #000000; position: fixed;left:14%;top:30%""><img src=""visual/train.png"" width=""300""></div><div style=""border: 3px solid #000000; position: fixed;left:64%;top:30%""><img src=""visual/crane.png"" width=""300""></div>","arrowdown","","false","experiment","visual/train.png","visual/crane.png","ArrowUp","non-ortho","","","","","","","","","","","","","","","","","","","","","","","","","","","",""
"","","","","","html-keyboard-response","83","121302","0.0-6.0-0.22","A1CFMY4CEYOM8Y","2022-05-18T16:39:34.881Z","rhyme-task_switching-same_different-phon_sim","","null","rhyme","<div style=""font-size:60px;"">+</div>","null","250","","","","","","","","","","","","","","","","","","","","","","","","","","","","","","","","","",""
"","","","","","html-keyboard-response","84","121818","0.0-6.0-1.22","A1CFMY4CEYOM8Y","2022-05-18T16:39:34.881Z","rhyme-task_switching-same_different-phon_sim","","null","rhyme","<img src=""square.png"" width=""306"" height=""306"" style=""position: fixed;left:14%;top:30%""><img src=""square.png"" width=""306"" height=""306"" style=""position: fixed;left:64%;top:30%"">","null","","","","","","","","","","","","","","","","","","","","","","","","","","","","","","","","","","",""
"","","","","","html-keyboard-response","85","123274","0.0-6.0-2.22","A1CFMY4CEYOM8Y","2022-05-18T16:39:34.881Z","rhyme-task_switching-same_different-phon_sim","","1454.8999999985099","rhyme","<div style=""border: 3px solid #000000; position: fixed;left:14%;top:30%""><img src=""visual/train.png"" width=""300""></div><div style=""border: 3px solid #000000; position: fixed;left:64%;top:30%""><img src=""visual/screw.png"" width=""300""></div>","arrowdown","","true","experiment","visual/train.png","visual/screw.png","ArrowDown","NR","","","","","","","","","","","","","","","","","","","","","","","","","","","",""
"","","","","","html-keyboard-response","86","123785","0.0-6.0-0.23","A1CFMY4CEYOM8Y","2022-05-18T16:39:34.881Z","rhyme-task_switching-same_different-phon_sim","","null","rhyme","<div style=""font-size:60px;"">+</div>","null","500","","","","","","","","","","","","","","","","","","","","","","","","","","","","","","","","","",""
"","","","","","html-keyboard-response","87","124286","0.0-6.0-1.23","A1CFMY4CEYOM8Y","2022-05-18T16:39:34.881Z","rhyme-task_switching-same_different-phon_sim","","null","rhyme","<img src=""square.png"" width=""306"" height=""306"" style=""position: fixed;left:14%;top:30%""><img src=""square.png"" width=""306"" height=""306"" style=""position: fixed;left:64%;top:30%"">","null","","","","","","","","","","","","","","","","","","","","","","","","","","","","","","","","","","",""
"","","","","","html-keyboard-response","88","125626","0.0-6.0-2.23","A1CFMY4CEYOM8Y","2022-05-18T16:39:34.881Z","rhyme-task_switching-same_different-phon_sim","","1338.699999999255","rhyme","<div style=""border: 3px solid #000000; position: fixed;left:14%;top:30%""><img src=""visual/bone.png"" width=""300""></div><div style=""border: 3px solid #000000; position: fixed;left:64%;top:30%""><img src=""visual/cone.png"" width=""300""></div>","arrowup","","true","experiment","visual/bone.png","visual/cone.png","ArrowUp","ortho","","","","","","","","","","","","","","","","","","","","","","","","","","","",""
"","","","","","html-keyboard-response","89","125885","0.0-6.0-0.24","A1CFMY4CEYOM8Y","2022-05-18T16:39:34.881Z","rhyme-task_switching-same_different-phon_sim","","null","rhyme","<div style=""font-size:60px;"">+</div>","null","250","","","","","","","","","","","","","","","","","","","","","","","","","","","","","","","","","",""
"","","","","","html-keyboard-response","90","126401","0.0-6.0-1.24","A1CFMY4CEYOM8Y","2022-05-18T16:39:34.881Z","rhyme-task_switching-same_different-phon_sim","","null","rhyme","<img src=""square.png"" width=""306"" height=""306"" style=""position: fixed;left:14%;top:30%""><img src=""square.png"" width=""306"" height=""306"" style=""position: fixed;left:64%;top:30%"">","null","","","","","","","","","","","","","","","","","","","","","","","","","","","","","","","","","","",""
"","","","","","html-keyboard-response","91","127490","0.0-6.0-2.24","A1CFMY4CEYOM8Y","2022-05-18T16:39:34.881Z","rhyme-task_switching-same_different-phon_sim","","1087.6000000014901","rhyme","<div style=""border: 3px solid #000000; position: fixed;left:14%;top:30%""><img src=""visual/soap.png"" width=""300""></div><div style=""border: 3px solid #000000; position: fixed;left:64%;top:30%""><img src=""visual/shoe.png"" width=""300""></div>","arrowdown","","true","experiment","visual/soap.png","visual/shoe.png","ArrowDown","NR","","","","","","","","","","","","","","","","","","","","","","","","","","","",""
"","","","","","html-keyboard-response","92","128252","0.0-6.0-0.25","A1CFMY4CEYOM8Y","2022-05-18T16:39:34.881Z","rhyme-task_switching-same_different-phon_sim","","null","rhyme","<div style=""font-size:60px;"">+</div>","null","750","","","","","","","","","","","","","","","","","","","","","","","","","","","","","","","","","",""
"","","","","","html-keyboard-response","93","128753","0.0-6.0-1.25","A1CFMY4CEYOM8Y","2022-05-18T16:39:34.881Z","rhyme-task_switching-same_different-phon_sim","","null","rhyme","<img src=""square.png"" width=""306"" height=""306"" style=""position: fixed;left:14%;top:30%""><img src=""square.png"" width=""306"" height=""306"" style=""position: fixed;left:64%;top:30%"">","null","","","","","","","","","","","","","","","","","","","","","","","","","","","","","","","","","","",""
"","","","","","html-keyboard-response","94","130514","0.0-6.0-2.25","A1CFMY4CEYOM8Y","2022-05-18T16:39:34.881Z","rhyme-task_switching-same_different-phon_sim","","1759.699999999255","rhyme","<div style=""border: 3px solid #000000; position: fixed;left:14%;top:30%""><img src=""visual/plane.png"" width=""300""></div><div style=""border: 3px solid #000000; position: fixed;left:64%;top:30%""><img src=""visual/chain.png"" width=""300""></div>","arrowup","","true","experiment","visual/plane.png","visual/chain.png","ArrowUp","non-ortho","","","","","","","","","","","","","","","","","","","","","","","","","","","",""
"","","","","","html-keyboard-response","95","131520","0.0-6.0-0.26","A1CFMY4CEYOM8Y","2022-05-18T16:39:34.881Z","rhyme-task_switching-same_different-phon_sim","","null","rhyme","<div style=""font-size:60px;"">+</div>","null","1000","","","","","","","","","","","","","","","","","","","","","","","","","","","","","","","","","",""
"","","","","","html-keyboard-response","96","132035","0.0-6.0-1.26","A1CFMY4CEYOM8Y","2022-05-18T16:39:34.881Z","rhyme-task_switching-same_different-phon_sim","","null","rhyme","<img src=""square.png"" width=""306"" height=""306"" style=""position: fixed;left:14%;top:30%""><img src=""square.png"" width=""306"" height=""306"" style=""position: fixed;left:64%;top:30%"">","null","","","","","","","","","","","","","","","","","","","","","","","","","","","","","","","","","","",""
"","","","","","html-keyboard-response","97","133875","0.0-6.0-2.26","A1CFMY4CEYOM8Y","2022-05-18T16:39:34.881Z","rhyme-task_switching-same_different-phon_sim","","1838.800000000745","rhyme","<div style=""border: 3px solid #000000; position: fixed;left:14%;top:30%""><img src=""visual/bear.png"" width=""300""></div><div style=""border: 3px solid #000000; position: fixed;left:64%;top:30%""><img src=""visual/square_rhyme.png"" width=""300""></div>","arrowup","","true","experiment","visual/bear.png","visual/square_rhyme.png","ArrowUp","non-ortho","","","","","","","","","","","","","","","","","","","","","","","","","","","",""
"","","","","","html-keyboard-response","98","134876","0.0-6.0-0.27","A1CFMY4CEYOM8Y","2022-05-18T16:39:34.881Z","rhyme-task_switching-same_different-phon_sim","","null","rhyme","<div style=""font-size:60px;"">+</div>","null","1000","","","","","","","","","","","","","","","","","","","","","","","","","","","","","","","","","",""
"","","","","","html-keyboard-response","99","135385","0.0-6.0-1.27","A1CFMY4CEYOM8Y","2022-05-18T16:39:34.881Z","rhyme-task_switching-same_different-phon_sim","","null","rhyme","<img src=""square.png"" width=""306"" height=""306"" style=""position: fixed;left:14%;top:30%""><img src=""square.png"" width=""306"" height=""306"" style=""position: fixed;left:64%;top:30%"">","null","","","","","","","","","","","","","","","","","","","","","","","","","","","","","","","","","","",""
"","","","","","html-keyboard-response","100","137146","0.0-6.0-2.27","A1CFMY4CEYOM8Y","2022-05-18T16:39:34.881Z","rhyme-task_switching-same_different-phon_sim","","1759.300000000745","rhyme","<div style=""border: 3px solid #000000; position: fixed;left:14%;top:30%""><img src=""visual/rake.png"" width=""300""></div><div style=""border: 3px solid #000000; position: fixed;left:64%;top:30%""><img src=""visual/park.png"" width=""300""></div>","arrowdown","","true","experiment","visual/rake.png","visual/park.png","ArrowDown","NR","","","","","","","","","","","","","","","","","","","","","","","","","","","",""
"","","","","","html-keyboard-response","101","137651","0.0-6.0-0.28","A1CFMY4CEYOM8Y","2022-05-18T16:39:34.881Z","rhyme-task_switching-same_different-phon_sim","","null","rhyme","<div style=""font-size:60px;"">+</div>","null","500","","","","","","","","","","","","","","","","","","","","","","","","","","","","","","","","","",""
"","","","","","html-keyboard-response","102","138153","0.0-6.0-1.28","A1CFMY4CEYOM8Y","2022-05-18T16:39:34.881Z","rhyme-task_switching-same_different-phon_sim","","null","rhyme","<img src=""square.png"" width=""306"" height=""306"" style=""position: fixed;left:14%;top:30%""><img src=""square.png"" width=""306"" height=""306"" style=""position: fixed;left:64%;top:30%"">","null","","","","","","","","","","","","","","","","","","","","","","","","","","","","","","","","","","",""
"","","","","","html-keyboard-response","103","140034","0.0-6.0-2.28","A1CFMY4CEYOM8Y","2022-05-18T16:39:34.881Z","rhyme-task_switching-same_different-phon_sim","","1880.300000000745","rhyme","<div style=""border: 3px solid #000000; position: fixed;left:14%;top:30%""><img src=""visual/jar.png"" width=""300""></div><div style=""border: 3px solid #000000; position: fixed;left:64%;top:30%""><img src=""visual/whale.png"" width=""300""></div>","arrowdown","","true","experiment","visual/jar.png","visual/whale.png","ArrowDown","NR","","","","","","","","","","","","","","","","","","","","","","","","","","","",""
"","","","","","html-keyboard-response","104","141048","0.0-6.0-0.29","A1CFMY4CEYOM8Y","2022-05-18T16:39:34.881Z","rhyme-task_switching-same_different-phon_sim","","null","rhyme","<div style=""font-size:60px;"">+</div>","null","1000","","","","","","","","","","","","","","","","","","","","","","","","","","","","","","","","","",""
"","","","","","html-keyboard-response","105","141554","0.0-6.0-1.29","A1CFMY4CEYOM8Y","2022-05-18T16:39:34.881Z","rhyme-task_switching-same_different-phon_sim","","null","rhyme","<img src=""square.png"" width=""306"" height=""306"" style=""position: fixed;left:14%;top:30%""><img src=""square.png"" width=""306"" height=""306"" style=""position: fixed;left:64%;top:30%"">","null","","","","","","","","","","","","","","","","","","","","","","","","","","","","","","","","","","",""
"","","","","","html-keyboard-response","106","143090","0.0-6.0-2.29","A1CFMY4CEYOM8Y","2022-05-18T16:39:34.881Z","rhyme-task_switching-same_different-phon_sim","","1534.3999999985099","rhyme","<div style=""border: 3px solid #000000; position: fixed;left:14%;top:30%""><img src=""visual/saw.png"" width=""300""></div><div style=""border: 3px solid #000000; position: fixed;left:64%;top:30%""><img src=""visual/claw.png"" width=""300""></div>","arrowup","","true","experiment","visual/saw.png","visual/claw.png","ArrowUp","ortho","","","","","","","","","","","","","","","","","","","","","","","","","","","",""
"","","","","","html-keyboard-response","107","143851","0.0-6.0-0.30","A1CFMY4CEYOM8Y","2022-05-18T16:39:34.881Z","rhyme-task_switching-same_different-phon_sim","","null","rhyme","<div style=""font-size:60px;"">+</div>","null","750","","","","","","","","","","","","","","","","","","","","","","","","","","","","","","","","","",""
"","","","","","html-keyboard-response","108","144368","0.0-6.0-1.30","A1CFMY4CEYOM8Y","2022-05-18T16:39:34.881Z","rhyme-task_switching-same_different-phon_sim","","null","rhyme","<img src=""square.png"" width=""306"" height=""306"" style=""position: fixed;left:14%;top:30%""><img src=""square.png"" width=""306"" height=""306"" style=""position: fixed;left:64%;top:30%"">","null","","","","","","","","","","","","","","","","","","","","","","","","","","","","","","","","","","",""
"","","","","","html-keyboard-response","109","145811","0.0-6.0-2.30","A1CFMY4CEYOM8Y","2022-05-18T16:39:34.881Z","rhyme-task_switching-same_different-phon_sim","","1441.5999999977648","rhyme","<div style=""border: 3px solid #000000; position: fixed;left:14%;top:30%""><img src=""visual/bear.png"" width=""300""></div><div style=""border: 3px solid #000000; position: fixed;left:64%;top:30%""><img src=""visual/hair.png"" width=""300""></div>","arrowup","","true","experiment","visual/bear.png","visual/hair.png","ArrowUp","non-ortho","","","","","","","","","","","","","","","","","","","","","","","","","","","",""
"","","","","","html-keyboard-response","110","146568","0.0-6.0-0.31","A1CFMY4CEYOM8Y","2022-05-18T16:39:34.881Z","rhyme-task_switching-same_different-phon_sim","","null","rhyme","<div style=""font-size:60px;"">+</div>","null","750","","","","","","","","","","","","","","","","","","","","","","","","","","","","","","","","","",""
"","","","","","html-keyboard-response","111","147069","0.0-6.0-1.31","A1CFMY4CEYOM8Y","2022-05-18T16:39:34.881Z","rhyme-task_switching-same_different-phon_sim","","null","rhyme","<img src=""square.png"" width=""306"" height=""306"" style=""position: fixed;left:14%;top:30%""><img src=""square.png"" width=""306"" height=""306"" style=""position: fixed;left:64%;top:30%"">","null","","","","","","","","","","","","","","","","","","","","","","","","","","","","","","","","","","",""
"","","","","","html-keyboard-response","112","149650","0.0-6.0-2.31","A1CFMY4CEYOM8Y","2022-05-18T16:39:34.881Z","rhyme-task_switching-same_different-phon_sim","","2579.699999999255","rhyme","<div style=""border: 3px solid #000000; position: fixed;left:14%;top:30%""><img src=""visual/king.png"" width=""300""></div><div style=""border: 3px solid #000000; position: fixed;left:64%;top:30%""><img src=""visual/cab.png"" width=""300""></div>","arrowdown","","true","experiment","visual/king.png","visual/cab.png","ArrowDown","NR","","","","","","","","","","","","","","","","","","","","","","","","","","","",""
"","","","","","html-keyboard-response","113","150653","0.0-6.0-0.32","A1CFMY4CEYOM8Y","2022-05-18T16:39:34.881Z","rhyme-task_switching-same_different-phon_sim","","null","rhyme","<div style=""font-size:60px;"">+</div>","null","1000","","","","","","","","","","","","","","","","","","","","","","","","","","","","","","","","","",""
"","","","","","html-keyboard-response","114","151168","0.0-6.0-1.32","A1CFMY4CEYOM8Y","2022-05-18T16:39:34.881Z","rhyme-task_switching-same_different-phon_sim","","null","rhyme","<img src=""square.png"" width=""306"" height=""306"" style=""position: fixed;left:14%;top:30%""><img src=""square.png"" width=""306"" height=""306"" style=""position: fixed;left:64%;top:30%"">","null","","","","","","","","","","","","","","","","","","","","","","","","","","","","","","","","","","",""
"","","","","","html-keyboard-response","115","152930","0.0-6.0-2.32","A1CFMY4CEYOM8Y","2022-05-18T16:39:34.881Z","rhyme-task_switching-same_different-phon_sim","","1760.7999999970198","rhyme","<div style=""border: 3px solid #000000; position: fixed;left:14%;top:30%""><img src=""visual/dart.png"" width=""300""></div><div style=""border: 3px solid #000000; position: fixed;left:64%;top:30%""><img src=""visual/tie.png"" width=""300""></div>","arrowdown","","true","experiment","visual/dart.png","visual/tie.png","ArrowDown","NR","","","","","","","","","","","","","","","","","","","","","","","","","","","",""
"","","","","","html-keyboard-response","116","153186","0.0-6.0-0.33","A1CFMY4CEYOM8Y","2022-05-18T16:39:34.881Z","rhyme-task_switching-same_different-phon_sim","","null","rhyme","<div style=""font-size:60px;"">+</div>","null","250","","","","","","","","","","","","","","","","","","","","","","","","","","","","","","","","","",""
"","","","","","html-keyboard-response","117","153688","0.0-6.0-1.33","A1CFMY4CEYOM8Y","2022-05-18T16:39:34.881Z","rhyme-task_switching-same_different-phon_sim","","null","rhyme","<img src=""square.png"" width=""306"" height=""306"" style=""position: fixed;left:14%;top:30%""><img src=""square.png"" width=""306"" height=""306"" style=""position: fixed;left:64%;top:30%"">","null","","","","","","","","","","","","","","","","","","","","","","","","","","","","","","","","","","",""
"","","","","","html-keyboard-response","118","155330","0.0-6.0-2.33","A1CFMY4CEYOM8Y","2022-05-18T16:39:34.881Z","rhyme-task_switching-same_different-phon_sim","","1641","rhyme","<div style=""border: 3px solid #000000; position: fixed;left:14%;top:30%""><img src=""visual/claw.png"" width=""300""></div><div style=""border: 3px solid #000000; position: fixed;left:64%;top:30%""><img src=""visual/beer.png"" width=""300""></div>","arrowdown","","true","experiment","visual/claw.png","visual/beer.png","ArrowDown","NR","","","","","","","","","","","","","","","","","","","","","","","","","","","",""
"","","","","","html-keyboard-response","119","156096","0.0-6.0-0.34","A1CFMY4CEYOM8Y","2022-05-18T16:39:34.881Z","rhyme-task_switching-same_different-phon_sim","","null","rhyme","<div style=""font-size:60px;"">+</div>","null","750","","","","","","","","","","","","","","","","","","","","","","","","","","","","","","","","","",""
"","","","","","html-keyboard-response","120","156598","0.0-6.0-1.34","A1CFMY4CEYOM8Y","2022-05-18T16:39:34.881Z","rhyme-task_switching-same_different-phon_sim","","null","rhyme","<img src=""square.png"" width=""306"" height=""306"" style=""position: fixed;left:14%;top:30%""><img src=""square.png"" width=""306"" height=""306"" style=""position: fixed;left:64%;top:30%"">","null","","","","","","","","","","","","","","","","","","","","","","","","","","","","","","","","","","",""
"","","","","","html-keyboard-response","121","157690","0.0-6.0-2.34","A1CFMY4CEYOM8Y","2022-05-18T16:39:34.881Z","rhyme-task_switching-same_different-phon_sim","","1091.3999999985099","rhyme","<div style=""border: 3px solid #000000; position: fixed;left:14%;top:30%""><img src=""visual/screw.png"" width=""300""></div><div style=""border: 3px solid #000000; position: fixed;left:64%;top:30%""><img src=""visual/shoe.png"" width=""300""></div>","arrowdown","","false","experiment","visual/screw.png","visual/shoe.png","ArrowUp","non-ortho","","","","","","","","","","","","","","","","","","","","","","","","","","","",""
"","","","","","html-keyboard-response","122","158202","0.0-6.0-0.35","A1CFMY4CEYOM8Y","2022-05-18T16:39:34.881Z","rhyme-task_switching-same_different-phon_sim","","null","rhyme","<div style=""font-size:60px;"">+</div>","null","500","","","","","","","","","","","","","","","","","","","","","","","","","","","","","","","","","",""
"","","","","","html-keyboard-response","123","158705","0.0-6.0-1.35","A1CFMY4CEYOM8Y","2022-05-18T16:39:34.881Z","rhyme-task_switching-same_different-phon_sim","","null","rhyme","<img src=""square.png"" width=""306"" height=""306"" style=""position: fixed;left:14%;top:30%""><img src=""square.png"" width=""306"" height=""306"" style=""position: fixed;left:64%;top:30%"">","null","","","","","","","","","","","","","","","","","","","","","","","","","","","","","","","","","","",""
"","","","","","html-keyboard-response","124","161858","0.0-6.0-2.35","A1CFMY4CEYOM8Y","2022-05-18T16:39:34.881Z","rhyme-task_switching-same_different-phon_sim","","3151.7999999970198","rhyme","<div style=""border: 3px solid #000000; position: fixed;left:14%;top:30%""><img src=""visual/bear.png"" width=""300""></div><div style=""border: 3px solid #000000; position: fixed;left:64%;top:30%""><img src=""visual/crane.png"" width=""300""></div>","arrowdown","","true","experiment","visual/bear.png","visual/crane.png","ArrowDown","NR","","","","","","","","","","","","","","","","","","","","","","","","","","","",""
"","","","","","html-keyboard-response","125","162119","0.0-6.0-0.36","A1CFMY4CEYOM8Y","2022-05-18T16:39:34.881Z","rhyme-task_switching-same_different-phon_sim","","null","rhyme","<div style=""font-size:60px;"">+</div>","null","250","","","","","","","","","","","","","","","","","","","","","","","","","","","","","","","","","",""
"","","","","","html-keyboard-response","126","162627","0.0-6.0-1.36","A1CFMY4CEYOM8Y","2022-05-18T16:39:34.881Z","rhyme-task_switching-same_different-phon_sim","","null","rhyme","<img src=""square.png"" width=""306"" height=""306"" style=""position: fixed;left:14%;top:30%""><img src=""square.png"" width=""306"" height=""306"" style=""position: fixed;left:64%;top:30%"">","null","","","","","","","","","","","","","","","","","","","","","","","","","","","","","","","","","","",""
"","","","","","html-keyboard-response","127","164922","0.0-6.0-2.36","A1CFMY4CEYOM8Y","2022-05-18T16:39:34.881Z","rhyme-task_switching-same_different-phon_sim","","2293.599999997765","rhyme","<div style=""border: 3px solid #000000; position: fixed;left:14%;top:30%""><img src=""visual/nail.png"" width=""300""></div><div style=""border: 3px solid #000000; position: fixed;left:64%;top:30%""><img src=""visual/whale.png"" width=""300""></div>","arrowup","","true","experiment","visual/nail.png","visual/whale.png","ArrowUp","non-orthoh","","","","","","","","","","","","","","","","","","","","","","","","","","","",""
"","","","","","html-keyboard-response","128","165673","0.0-6.0-0.37","A1CFMY4CEYOM8Y","2022-05-18T16:39:34.881Z","rhyme-task_switching-same_different-phon_sim","","null","rhyme","<div style=""font-size:60px;"">+</div>","null","750","","","","","","","","","","","","","","","","","","","","","","","","","","","","","","","","","",""
"","","","","","html-keyboard-response","129","166185","0.0-6.0-1.37","A1CFMY4CEYOM8Y","2022-05-18T16:39:34.881Z","rhyme-task_switching-same_different-phon_sim","","null","rhyme","<img src=""square.png"" width=""306"" height=""306"" style=""position: fixed;left:14%;top:30%""><img src=""square.png"" width=""306"" height=""306"" style=""position: fixed;left:64%;top:30%"">","null","","","","","","","","","","","","","","","","","","","","","","","","","","","","","","","","","","",""
"","","","","","html-keyboard-response","130","168210","0.0-6.0-2.37","A1CFMY4CEYOM8Y","2022-05-18T16:39:34.881Z","rhyme-task_switching-same_different-phon_sim","","2024.199999999255","rhyme","<div style=""border: 3px solid #000000; position: fixed;left:14%;top:30%""><img src=""visual/key.png"" width=""300""></div><div style=""border: 3px solid #000000; position: fixed;left:64%;top:30%""><img src=""visual/tree.png"" width=""300""></div>","arrowup","","true","experiment","visual/key.png","visual/tree.png","ArrowUp","non-ortho","","","","","","","","","","","","","","","","","","","","","","","","","","","",""
"","","","","","html-keyboard-response","131","168971","0.0-6.0-0.38","A1CFMY4CEYOM8Y","2022-05-18T16:39:34.881Z","rhyme-task_switching-same_different-phon_sim","","null","rhyme","<div style=""font-size:60px;"">+</div>","null","750","","","","","","","","","","","","","","","","","","","","","","","","","","","","","","","","","",""
"","","","","","html-keyboard-response","132","169485","0.0-6.0-1.38","A1CFMY4CEYOM8Y","2022-05-18T16:39:34.881Z","rhyme-task_switching-same_different-phon_sim","","null","rhyme","<img src=""square.png"" width=""306"" height=""306"" style=""position: fixed;left:14%;top:30%""><img src=""square.png"" width=""306"" height=""306"" style=""position: fixed;left:64%;top:30%"">","null","","","","","","","","","","","","","","","","","","","","","","","","","","","","","","","","","","",""
"","","","","","html-keyboard-response","133","170554","0.0-6.0-2.38","A1CFMY4CEYOM8Y","2022-05-18T16:39:34.881Z","rhyme-task_switching-same_different-phon_sim","","1068.199999999255","rhyme","<div style=""border: 3px solid #000000; position: fixed;left:14%;top:30%""><img src=""visual/box.png"" width=""300""></div><div style=""border: 3px solid #000000; position: fixed;left:64%;top:30%""><img src=""visual/fox.png"" width=""300""></div>","arrowup","","true","experiment","visual/box.png","visual/fox.png","ArrowUp","ortho","","","","","","","","","","","","","","","","","","","","","","","","","","","",""
"","","","","","html-keyboard-response","134","171568","0.0-6.0-0.39","A1CFMY4CEYOM8Y","2022-05-18T16:39:34.881Z","rhyme-task_switching-same_different-phon_sim","","null","rhyme","<div style=""font-size:60px;"">+</div>","null","1000","","","","","","","","","","","","","","","","","","","","","","","","","","","","","","","","","",""
"","","","","","html-keyboard-response","135","172069","0.0-6.0-1.39","A1CFMY4CEYOM8Y","2022-05-18T16:39:34.881Z","rhyme-task_switching-same_different-phon_sim","","null","rhyme","<img src=""square.png"" width=""306"" height=""306"" style=""position: fixed;left:14%;top:30%""><img src=""square.png"" width=""306"" height=""306"" style=""position: fixed;left:64%;top:30%"">","null","","","","","","","","","","","","","","","","","","","","","","","","","","","","","","","","","","",""
"","","","","","html-keyboard-response","136","174786","0.0-6.0-2.39","A1CFMY4CEYOM8Y","2022-05-18T16:39:34.881Z","rhyme-task_switching-same_different-phon_sim","","2715.900000002235","rhyme","<div style=""border: 3px solid #000000; position: fixed;left:14%;top:30%""><img src=""visual/fan.png"" width=""300""></div><div style=""border: 3px solid #000000; position: fixed;left:64%;top:30%""><img src=""visual/man.png"" width=""300""></div>","arrowup","","true","experiment","visual/fan.png","visual/man.png","ArrowUp","ortho","","","","","","","","","","","","","","","","","","","","","","","","","","","",""
"","","","","","html-keyboard-response","137","175547","0.0-6.0-0.40","A1CFMY4CEYOM8Y","2022-05-18T16:39:34.881Z","rhyme-task_switching-same_different-phon_sim","","null","rhyme","<div style=""font-size:60px;"">+</div>","null","750","","","","","","","","","","","","","","","","","","","","","","","","","","","","","","","","","",""
"","","","","","html-keyboard-response","138","176052","0.0-6.0-1.40","A1CFMY4CEYOM8Y","2022-05-18T16:39:34.881Z","rhyme-task_switching-same_different-phon_sim","","null","rhyme","<img src=""square.png"" width=""306"" height=""306"" style=""position: fixed;left:14%;top:30%""><img src=""square.png"" width=""306"" height=""306"" style=""position: fixed;left:64%;top:30%"">","null","","","","","","","","","","","","","","","","","","","","","","","","","","","","","","","","","","",""
"","","","","","html-keyboard-response","139","177114","0.0-6.0-2.40","A1CFMY4CEYOM8Y","2022-05-18T16:39:34.881Z","rhyme-task_switching-same_different-phon_sim","","1060.5999999977648","rhyme","<div style=""border: 3px solid #000000; position: fixed;left:14%;top:30%""><img src=""visual/cat.png"" width=""300""></div><div style=""border: 3px solid #000000; position: fixed;left:64%;top:30%""><img src=""visual/hat.png"" width=""300""></div>","arrowup","","true","experiment","visual/cat.png","visual/hat.png","ArrowUp","ortho","","","","","","","","","","","","","","","","","","","","","","","","","","","",""
"","","","","","html-keyboard-response","140","178135","0.0-6.0-0.41","A1CFMY4CEYOM8Y","2022-05-18T16:39:34.881Z","rhyme-task_switching-same_different-phon_sim","","null","rhyme","<div style=""font-size:60px;"">+</div>","null","1000","","","","","","","","","","","","","","","","","","","","","","","","","","","","","","","","","",""
"","","","","","html-keyboard-response","141","178647","0.0-6.0-1.41","A1CFMY4CEYOM8Y","2022-05-18T16:39:34.881Z","rhyme-task_switching-same_different-phon_sim","","null","rhyme","<img src=""square.png"" width=""306"" height=""306"" style=""position: fixed;left:14%;top:30%""><img src=""square.png"" width=""306"" height=""306"" style=""position: fixed;left:64%;top:30%"">","null","","","","","","","","","","","","","","","","","","","","","","","","","","","","","","","","","","",""
"","","","","","html-keyboard-response","142","182292","0.0-6.0-2.41","A1CFMY4CEYOM8Y","2022-05-18T16:39:34.881Z","rhyme-task_switching-same_different-phon_sim","","3641","rhyme","<div style=""border: 3px solid #000000; position: fixed;left:14%;top:30%""><img src=""visual/key.png"" width=""300""></div><div style=""border: 3px solid #000000; position: fixed;left:64%;top:30%""><img src=""visual/snail.png"" width=""300""></div>","arrowdown","","true","experiment","visual/key.png","visual/snail.png","ArrowDown","NR","","","","","","","","","","","","","","","","","","","","","","","","","","","",""
"","","","","","html-keyboard-response","143","183047","0.0-6.0-0.42","A1CFMY4CEYOM8Y","2022-05-18T16:39:34.881Z","rhyme-task_switching-same_different-phon_sim","","null","rhyme","<div style=""font-size:60px;"">+</div>","null","750","","","","","","","","","","","","","","","","","","","","","","","","","","","","","","","","","",""
"","","","","","html-keyboard-response","144","183553","0.0-6.0-1.42","A1CFMY4CEYOM8Y","2022-05-18T16:39:34.881Z","rhyme-task_switching-same_different-phon_sim","","null","rhyme","<img src=""square.png"" width=""306"" height=""306"" style=""position: fixed;left:14%;top:30%""><img src=""square.png"" width=""306"" height=""306"" style=""position: fixed;left:64%;top:30%"">","null","","","","","","","","","","","","","","","","","","","","","","","","","","","","","","","","","","",""
"","","","","","html-keyboard-response","145","185244","0.0-6.0-2.42","A1CFMY4CEYOM8Y","2022-05-18T16:39:34.881Z","rhyme-task_switching-same_different-phon_sim","","1690","rhyme","<div style=""border: 3px solid #000000; position: fixed;left:14%;top:30%""><img src=""visual/egg.png"" width=""300""></div><div style=""border: 3px solid #000000; position: fixed;left:64%;top:30%""><img src=""visual/leg.png"" width=""300""></div>","arrowup","","true","experiment","visual/egg.png","visual/leg.png","ArrowUp","ortho","","","","","","","","","","","","","","","","","","","","","","","","","","","",""
"","","","","","html-keyboard-response","146","186257","0.0-6.0-0.43","A1CFMY4CEYOM8Y","2022-05-18T16:39:34.881Z","rhyme-task_switching-same_different-phon_sim","","null","rhyme","<div style=""font-size:60px;"">+</div>","null","1000","","","","","","","","","","","","","","","","","","","","","","","","","","","","","","","","","",""
"","","","","","html-keyboard-response","147","186778","0.0-6.0-1.43","A1CFMY4CEYOM8Y","2022-05-18T16:39:34.881Z","rhyme-task_switching-same_different-phon_sim","","null","rhyme","<img src=""square.png"" width=""306"" height=""306"" style=""position: fixed;left:14%;top:30%""><img src=""square.png"" width=""306"" height=""306"" style=""position: fixed;left:64%;top:30%"">","null","","","","","","","","","","","","","","","","","","","","","","","","","","","","","","","","","","",""
"","","","","","html-keyboard-response","148","188076","0.0-6.0-2.43","A1CFMY4CEYOM8Y","2022-05-18T16:39:34.881Z","rhyme-task_switching-same_different-phon_sim","","1297.300000000745","rhyme","<div style=""border: 3px solid #000000; position: fixed;left:14%;top:30%""><img src=""visual/spoon.png"" width=""300""></div><div style=""border: 3px solid #000000; position: fixed;left:64%;top:30%""><img src=""visual/moon.png"" width=""300""></div>","arrowdown","","false","experiment","visual/spoon.png","visual/moon.png","ArrowUp","ortho","","","","","","","","","","","","","","","","","","","","","","","","","","","",""
"","","","","","html-keyboard-response","149","188338","0.0-6.0-0.44","A1CFMY4CEYOM8Y","2022-05-18T16:39:34.881Z","rhyme-task_switching-same_different-phon_sim","","null","rhyme","<div style=""font-size:60px;"">+</div>","null","250","","","","","","","","","","","","","","","","","","","","","","","","","","","","","","","","","",""
"","","","","","html-keyboard-response","150","188859","0.0-6.0-1.44","A1CFMY4CEYOM8Y","2022-05-18T16:39:34.881Z","rhyme-task_switching-same_different-phon_sim","","null","rhyme","<img src=""square.png"" width=""306"" height=""306"" style=""position: fixed;left:14%;top:30%""><img src=""square.png"" width=""306"" height=""306"" style=""position: fixed;left:64%;top:30%"">","null","","","","","","","","","","","","","","","","","","","","","","","","","","","","","","","","","","",""
"","","","","","html-keyboard-response","151","190820","0.0-6.0-2.44","A1CFMY4CEYOM8Y","2022-05-18T16:39:34.881Z","rhyme-task_switching-same_different-phon_sim","","1960.3999999985099","rhyme","<div style=""border: 3px solid #000000; position: fixed;left:14%;top:30%""><img src=""visual/drawer.png"" width=""300""></div><div style=""border: 3px solid #000000; position: fixed;left:64%;top:30%""><img src=""visual/door.png"" width=""300""></div>","arrowup","","true","experiment","visual/drawer.png","visual/door.png","ArrowUp","non-ortho","","","","","","","","","","","","","","","","","","","","","","","","","","","",""
"","","","","","html-keyboard-response","152","191829","0.0-6.0-0.45","A1CFMY4CEYOM8Y","2022-05-18T16:39:34.881Z","rhyme-task_switching-same_different-phon_sim","","null","rhyme","<div style=""font-size:60px;"">+</div>","null","1000","","","","","","","","","","","","","","","","","","","","","","","","","","","","","","","","","",""
"","","","","","html-keyboard-response","153","192330","0.0-6.0-1.45","A1CFMY4CEYOM8Y","2022-05-18T16:39:34.881Z","rhyme-task_switching-same_different-phon_sim","","null","rhyme","<img src=""square.png"" width=""306"" height=""306"" style=""position: fixed;left:14%;top:30%""><img src=""square.png"" width=""306"" height=""306"" style=""position: fixed;left:64%;top:30%"">","null","","","","","","","","","","","","","","","","","","","","","","","","","","","","","","","","","","",""
"","","","","","html-keyboard-response","154","194029","0.0-6.0-2.45","A1CFMY4CEYOM8Y","2022-05-18T16:39:34.881Z","rhyme-task_switching-same_different-phon_sim","","1697.6000000014901","rhyme","<div style=""border: 3px solid #000000; position: fixed;left:14%;top:30%""><img src=""visual/shark.png"" width=""300""></div><div style=""border: 3px solid #000000; position: fixed;left:64%;top:30%""><img src=""visual/park.png"" width=""300""></div>","arrowdown","","false","experiment","visual/shark.png","visual/park.png","ArrowUp","ortho","","","","","","","","","","","","","","","","","","","","","","","","","","","",""
"","","","","","html-keyboard-response","155","194286","0.0-6.0-0.46","A1CFMY4CEYOM8Y","2022-05-18T16:39:34.881Z","rhyme-task_switching-same_different-phon_sim","","null","rhyme","<div style=""font-size:60px;"">+</div>","null","250","","","","","","","","","","","","","","","","","","","","","","","","","","","","","","","","","",""
"","","","","","html-keyboard-response","156","194788","0.0-6.0-1.46","A1CFMY4CEYOM8Y","2022-05-18T16:39:34.881Z","rhyme-task_switching-same_different-phon_sim","","null","rhyme","<img src=""square.png"" width=""306"" height=""306"" style=""position: fixed;left:14%;top:30%""><img src=""square.png"" width=""306"" height=""306"" style=""position: fixed;left:64%;top:30%"">","null","","","","","","","","","","","","","","","","","","","","","","","","","","","","","","","","","","",""
"","","","","","html-keyboard-response","157","195796","0.0-6.0-2.46","A1CFMY4CEYOM8Y","2022-05-18T16:39:34.881Z","rhyme-task_switching-same_different-phon_sim","","1007.2999999970198","rhyme","<div style=""border: 3px solid #000000; position: fixed;left:14%;top:30%""><img src=""visual/socks.png"" width=""300""></div><div style=""border: 3px solid #000000; position: fixed;left:64%;top:30%""><img src=""visual/fox.png"" width=""300""></div>","arrowup","","true","experiment","visual/socks.png","visual/fox.png","ArrowUp","non-ortho","","","","","","","","","","","","","","","","","","","","","","","","","","","",""
"","","","","","html-keyboard-response","158","196053","0.0-6.0-0.47","A1CFMY4CEYOM8Y","2022-05-18T16:39:34.881Z","rhyme-task_switching-same_different-phon_sim","","null","rhyme","<div style=""font-size:60px;"">+</div>","null","250","","","","","","","","","","","","","","","","","","","","","","","","","","","","","","","","","",""
"","","","","","html-keyboard-response","159","196554","0.0-6.0-1.47","A1CFMY4CEYOM8Y","2022-05-18T16:39:34.881Z","rhyme-task_switching-same_different-phon_sim","","null","rhyme","<img src=""square.png"" width=""306"" height=""306"" style=""position: fixed;left:14%;top:30%""><img src=""square.png"" width=""306"" height=""306"" style=""position: fixed;left:64%;top:30%"">","null","","","","","","","","","","","","","","","","","","","","","","","","","","","","","","","","","","",""
"","","","","","html-keyboard-response","160","198852","0.0-6.0-2.47","A1CFMY4CEYOM8Y","2022-05-18T16:39:34.881Z","rhyme-task_switching-same_different-phon_sim","","2296.300000000745","rhyme","<div style=""border: 3px solid #000000; position: fixed;left:14%;top:30%""><img src=""visual/deer.png"" width=""300""></div><div style=""border: 3px solid #000000; position: fixed;left:64%;top:30%""><img src=""visual/beer.png"" width=""300""></div>","arrowup","","true","experiment","visual/deer.png","visual/beer.png","ArrowUp","ortho","","","","","","","","","","","","","","","","","","","","","","","","","","","",""
"","","","","","html-keyboard-response","161","199355","0.0-6.0-0.48","A1CFMY4CEYOM8Y","2022-05-18T16:39:34.881Z","rhyme-task_switching-same_different-phon_sim","","null","rhyme","<div style=""font-size:60px;"">+</div>","null","500","","","","","","","","","","","","","","","","","","","","","","","","","","","","","","","","","",""
"","","","","","html-keyboard-response","162","199863","0.0-6.0-1.48","A1CFMY4CEYOM8Y","2022-05-18T16:39:34.881Z","rhyme-task_switching-same_different-phon_sim","","null","rhyme","<img src=""square.png"" width=""306"" height=""306"" style=""position: fixed;left:14%;top:30%""><img src=""square.png"" width=""306"" height=""306"" style=""position: fixed;left:64%;top:30%"">","null","","","","","","","","","","","","","","","","","","","","","","","","","","","","","","","","","","",""
"","","","","","html-keyboard-response","163","203252","0.0-6.0-2.48","A1CFMY4CEYOM8Y","2022-05-18T16:39:34.881Z","rhyme-task_switching-same_different-phon_sim","","3388.5","rhyme","<div style=""border: 3px solid #000000; position: fixed;left:14%;top:30%""><img src=""visual/cake.png"" width=""300""></div><div style=""border: 3px solid #000000; position: fixed;left:64%;top:30%""><img src=""visual/rake.png"" width=""300""></div>","arrowdown","","false","experiment","visual/cake.png","visual/rake.png","ArrowUp","ortho","","","","","","","","","","","","","","","","","","","","","","","","","","","",""
"","","","","","html-keyboard-response","164","204263","0.0-6.0-0.49","A1CFMY4CEYOM8Y","2022-05-18T16:39:34.881Z","rhyme-task_switching-same_different-phon_sim","","null","rhyme","<div style=""font-size:60px;"">+</div>","null","1000","","","","","","","","","","","","","","","","","","","","","","","","","","","","","","","","","",""
"","","","","","html-keyboard-response","165","204783","0.0-6.0-1.49","A1CFMY4CEYOM8Y","2022-05-18T16:39:34.881Z","rhyme-task_switching-same_different-phon_sim","","null","rhyme","<img src=""square.png"" width=""306"" height=""306"" style=""position: fixed;left:14%;top:30%""><img src=""square.png"" width=""306"" height=""306"" style=""position: fixed;left:64%;top:30%"">","null","","","","","","","","","","","","","","","","","","","","","","","","","","","","","","","","","","",""
"","","","","","html-keyboard-response","166","205941","0.0-6.0-2.49","A1CFMY4CEYOM8Y","2022-05-18T16:39:34.881Z","rhyme-task_switching-same_different-phon_sim","","1156","rhyme","<div style=""border: 3px solid #000000; position: fixed;left:14%;top:30%""><img src=""visual/cab.png"" width=""300""></div><div style=""border: 3px solid #000000; position: fixed;left:64%;top:30%""><img src=""visual/crab.png"" width=""300""></div>","arrowdown","","false","experiment","visual/cab.png","visual/crab.png","ArrowUp","ortho","","","","","","","","","","","","","","","","","","","","","","","","","","","",""
"","","","","","html-keyboard-response","167","206204","0.0-6.0-0.50","A1CFMY4CEYOM8Y","2022-05-18T16:39:34.881Z","rhyme-task_switching-same_different-phon_sim","","null","rhyme","<div style=""font-size:60px;"">+</div>","null","250","","","","","","","","","","","","","","","","","","","","","","","","","","","","","","","","","",""
"","","","","","html-keyboard-response","168","206714","0.0-6.0-1.50","A1CFMY4CEYOM8Y","2022-05-18T16:39:34.881Z","rhyme-task_switching-same_different-phon_sim","","null","rhyme","<img src=""square.png"" width=""306"" height=""306"" style=""position: fixed;left:14%;top:30%""><img src=""square.png"" width=""306"" height=""306"" style=""position: fixed;left:64%;top:30%"">","null","","","","","","","","","","","","","","","","","","","","","","","","","","","","","","","","","","",""
"","","","","","html-keyboard-response","169","208580","0.0-6.0-2.50","A1CFMY4CEYOM8Y","2022-05-18T16:39:34.881Z","rhyme-task_switching-same_different-phon_sim","","1865.300000000745","rhyme","<div style=""border: 3px solid #000000; position: fixed;left:14%;top:30%""><img src=""visual/eye.png"" width=""300""></div><div style=""border: 3px solid #000000; position: fixed;left:64%;top:30%""><img src=""visual/tie.png"" width=""300""></div>","arrowup","","true","experiment","visual/eye.png","visual/tie.png","ArrowUp","non-ortho","","","","","","","","","","","","","","","","","","","","","","","","","","","",""
"","","","","","html-keyboard-response","170","209331","0.0-6.0-0.51","A1CFMY4CEYOM8Y","2022-05-18T16:39:34.881Z","rhyme-task_switching-same_different-phon_sim","","null","rhyme","<div style=""font-size:60px;"">+</div>","null","750","","","","","","","","","","","","","","","","","","","","","","","","","","","","","","","","","",""
"","","","","","html-keyboard-response","171","209844","0.0-6.0-1.51","A1CFMY4CEYOM8Y","2022-05-18T16:39:34.881Z","rhyme-task_switching-same_different-phon_sim","","null","rhyme","<img src=""square.png"" width=""306"" height=""306"" style=""position: fixed;left:14%;top:30%""><img src=""square.png"" width=""306"" height=""306"" style=""position: fixed;left:64%;top:30%"">","null","","","","","","","","","","","","","","","","","","","","","","","","","","","","","","","","","","",""
"","","","","","html-keyboard-response","172","211372","0.0-6.0-2.51","A1CFMY4CEYOM8Y","2022-05-18T16:39:34.881Z","rhyme-task_switching-same_different-phon_sim","","1527.3999999985099","rhyme","<div style=""border: 3px solid #000000; position: fixed;left:14%;top:30%""><img src=""visual/snail.png"" width=""300""></div><div style=""border: 3px solid #000000; position: fixed;left:64%;top:30%""><img src=""visual/whale.png"" width=""300""></div>","arrowup","","true","experiment","visual/snail.png","visual/whale.png","ArrowUp","non-ortho","","","","","","","","","","","","","","","","","","","","","","","","","","","",""
"","","","","","html-keyboard-response","173","211633","0.0-6.0-0.52","A1CFMY4CEYOM8Y","2022-05-18T16:39:34.881Z","rhyme-task_switching-same_different-phon_sim","","null","rhyme","<div style=""font-size:60px;"">+</div>","null","250","","","","","","","","","","","","","","","","","","","","","","","","","","","","","","","","","",""
"","","","","","html-keyboard-response","174","212142","0.0-6.0-1.52","A1CFMY4CEYOM8Y","2022-05-18T16:39:34.881Z","rhyme-task_switching-same_different-phon_sim","","null","rhyme","<img src=""square.png"" width=""306"" height=""306"" style=""position: fixed;left:14%;top:30%""><img src=""square.png"" width=""306"" height=""306"" style=""position: fixed;left:64%;top:30%"">","null","","","","","","","","","","","","","","","","","","","","","","","","","","","","","","","","","","",""
"","","","","","html-keyboard-response","175","215164","0.0-6.0-2.52","A1CFMY4CEYOM8Y","2022-05-18T16:39:34.881Z","rhyme-task_switching-same_different-phon_sim","","3020.699999999255","rhyme","<div style=""border: 3px solid #000000; position: fixed;left:14%;top:30%""><img src=""visual/tie.png"" width=""300""></div><div style=""border: 3px solid #000000; position: fixed;left:64%;top:30%""><img src=""visual/fly.png"" width=""300""></div>","arrowup","","true","experiment","visual/tie.png","visual/fly.png","ArrowUp","non-ortho","","","","","","","","","","","","","","","","","","","","","","","","","","","",""
"","","","","","html-keyboard-response","176","216169","0.0-6.0-0.53","A1CFMY4CEYOM8Y","2022-05-18T16:39:34.881Z","rhyme-task_switching-same_different-phon_sim","","null","rhyme","<div style=""font-size:60px;"">+</div>","null","1000","","","","","","","","","","","","","","","","","","","","","","","","","","","","","","","","","",""
"","","","","","html-keyboard-response","177","216671","0.0-6.0-1.53","A1CFMY4CEYOM8Y","2022-05-18T16:39:34.881Z","rhyme-task_switching-same_different-phon_sim","","null","rhyme","<img src=""square.png"" width=""306"" height=""306"" style=""position: fixed;left:14%;top:30%""><img src=""square.png"" width=""306"" height=""306"" style=""position: fixed;left:64%;top:30%"">","null","","","","","","","","","","","","","","","","","","","","","","","","","","","","","","","","","","",""
"","","","","","html-keyboard-response","178","218973","0.0-6.0-2.53","A1CFMY4CEYOM8Y","2022-05-18T16:39:34.881Z","rhyme-task_switching-same_different-phon_sim","","2300.900000002235","rhyme","<div style=""border: 3px solid #000000; position: fixed;left:14%;top:30%""><img src=""visual/flag.png"" width=""300""></div><div style=""border: 3px solid #000000; position: fixed;left:64%;top:30%""><img src=""visual/bag.png"" width=""300""></div>","arrowdown","","false","experiment","visual/flag.png","visual/bag.png","ArrowUp","ortho","","","","","","","","","","","","","","","","","","","","","","","","","","","",""
"","","","","","html-keyboard-response","179","219738","0.0-6.0-0.54","A1CFMY4CEYOM8Y","2022-05-18T16:39:34.881Z","rhyme-task_switching-same_different-phon_sim","","null","rhyme","<div style=""font-size:60px;"">+</div>","null","750","","","","","","","","","","","","","","","","","","","","","","","","","","","","","","","","","",""
"","","","","","html-keyboard-response","180","220253","0.0-6.0-1.54","A1CFMY4CEYOM8Y","2022-05-18T16:39:34.881Z","rhyme-task_switching-same_different-phon_sim","","null","rhyme","<img src=""square.png"" width=""306"" height=""306"" style=""position: fixed;left:14%;top:30%""><img src=""square.png"" width=""306"" height=""306"" style=""position: fixed;left:64%;top:30%"">","null","","","","","","","","","","","","","","","","","","","","","","","","","","","","","","","","","","",""
"","","","","","html-keyboard-response","181","221428","0.0-6.0-2.54","A1CFMY4CEYOM8Y","2022-05-18T16:39:34.881Z","rhyme-task_switching-same_different-phon_sim","","1173.5999999977648","rhyme","<div style=""border: 3px solid #000000; position: fixed;left:14%;top:30%""><img src=""visual/cat.png"" width=""300""></div><div style=""border: 3px solid #000000; position: fixed;left:64%;top:30%""><img src=""visual/sock.png"" width=""300""></div>","arrowdown","","true","experiment","visual/cat.png","visual/sock.png","ArrowDown","NR","","","","","","","","","","","","","","","","","","","","","","","","","","","",""
"","","","","","html-keyboard-response","182","222191","0.0-6.0-0.55","A1CFMY4CEYOM8Y","2022-05-18T16:39:34.881Z","rhyme-task_switching-same_different-phon_sim","","null","rhyme","<div style=""font-size:60px;"">+</div>","null","750","","","","","","","","","","","","","","","","","","","","","","","","","","","","","","","","","",""
"","","","","","html-keyboard-response","183","222705","0.0-6.0-1.55","A1CFMY4CEYOM8Y","2022-05-18T16:39:34.881Z","rhyme-task_switching-same_different-phon_sim","","null","rhyme","<img src=""square.png"" width=""306"" height=""306"" style=""position: fixed;left:14%;top:30%""><img src=""square.png"" width=""306"" height=""306"" style=""position: fixed;left:64%;top:30%"">","null","","","","","","","","","","","","","","","","","","","","","","","","","","","","","","","","","","",""
"","","","","","html-keyboard-response","184","224899","0.0-6.0-2.55","A1CFMY4CEYOM8Y","2022-05-18T16:39:34.881Z","rhyme-task_switching-same_different-phon_sim","","2193.400000002235","rhyme","<div style=""border: 3px solid #000000; position: fixed;left:14%;top:30%""><img src=""visual/fly.png"" width=""300""></div><div style=""border: 3px solid #000000; position: fixed;left:64%;top:30%""><img src=""visual/plane.png"" width=""300""></div>","arrowdown","","true","experiment","visual/fly.png","visual/plane.png","ArrowDown","NR","","","","","","","","","","","","","","","","","","","","","","","","","","","",""
"","","","","","html-keyboard-response","185","225909","0.0-6.0-0.56","A1CFMY4CEYOM8Y","2022-05-18T16:39:34.881Z","rhyme-task_switching-same_different-phon_sim","","null","rhyme","<div style=""font-size:60px;"">+</div>","null","1000","","","","","","","","","","","","","","","","","","","","","","","","","","","","","","","","","",""
"","","","","","html-keyboard-response","186","226420","0.0-6.0-1.56","A1CFMY4CEYOM8Y","2022-05-18T16:39:34.881Z","rhyme-task_switching-same_different-phon_sim","","null","rhyme","<img src=""square.png"" width=""306"" height=""306"" style=""position: fixed;left:14%;top:30%""><img src=""square.png"" width=""306"" height=""306"" style=""position: fixed;left:64%;top:30%"">","null","","","","","","","","","","","","","","","","","","","","","","","","","","","","","","","","","","",""
"","","","","","html-keyboard-response","187","227692","0.0-6.0-2.56","A1CFMY4CEYOM8Y","2022-05-18T16:39:34.881Z","rhyme-task_switching-same_different-phon_sim","","1271.1000000014901","rhyme","<div style=""border: 3px solid #000000; position: fixed;left:14%;top:30%""><img src=""visual/drum.png"" width=""300""></div><div style=""border: 3px solid #000000; position: fixed;left:64%;top:30%""><img src=""visual/thumb.png"" width=""300""></div>","arrowup","","true","experiment","visual/drum.png","visual/thumb.png","ArrowUp","non-ortho","","","","","","","","","","","","","","","","","","","","","","","","","","","",""
"","","","","","html-keyboard-response","188","227953","0.0-6.0-0.57","A1CFMY4CEYOM8Y","2022-05-18T16:39:34.881Z","rhyme-task_switching-same_different-phon_sim","","null","rhyme","<div style=""font-size:60px;"">+</div>","null","250","","","","","","","","","","","","","","","","","","","","","","","","","","","","","","","","","",""
"","","","","","html-keyboard-response","189","228462","0.0-6.0-1.57","A1CFMY4CEYOM8Y","2022-05-18T16:39:34.881Z","rhyme-task_switching-same_different-phon_sim","","null","rhyme","<img src=""square.png"" width=""306"" height=""306"" style=""position: fixed;left:14%;top:30%""><img src=""square.png"" width=""306"" height=""306"" style=""position: fixed;left:64%;top:30%"">","null","","","","","","","","","","","","","","","","","","","","","","","","","","","","","","","","","","",""
"","","","","","html-keyboard-response","190","230269","0.0-6.0-2.57","A1CFMY4CEYOM8Y","2022-05-18T16:39:34.881Z","rhyme-task_switching-same_different-phon_sim","","1805.199999999255","rhyme","<div style=""border: 3px solid #000000; position: fixed;left:14%;top:30%""><img src=""visual/bed.png"" width=""300""></div><div style=""border: 3px solid #000000; position: fixed;left:64%;top:30%""><img src=""visual/bread.png"" width=""300""></div>","arrowup","","true","experiment","visual/bed.png","visual/bread.png","ArrowUp","non-ortho","","","","","","","","","","","","","","","","","","","","","","","","","","","",""
"","","","","","html-keyboard-response","191","230522","0.0-6.0-0.58","A1CFMY4CEYOM8Y","2022-05-18T16:39:34.881Z","rhyme-task_switching-same_different-phon_sim","","null","rhyme","<div style=""font-size:60px;"">+</div>","null","250","","","","","","","","","","","","","","","","","","","","","","","","","","","","","","","","","",""
"","","","","","html-keyboard-response","192","231037","0.0-6.0-1.58","A1CFMY4CEYOM8Y","2022-05-18T16:39:34.881Z","rhyme-task_switching-same_different-phon_sim","","null","rhyme","<img src=""square.png"" width=""306"" height=""306"" style=""position: fixed;left:14%;top:30%""><img src=""square.png"" width=""306"" height=""306"" style=""position: fixed;left:64%;top:30%"">","null","","","","","","","","","","","","","","","","","","","","","","","","","","","","","","","","","","",""
"","","","","","html-keyboard-response","193","232796","0.0-6.0-2.58","A1CFMY4CEYOM8Y","2022-05-18T16:39:34.881Z","rhyme-task_switching-same_different-phon_sim","","1757.7999999970198","rhyme","<div style=""border: 3px solid #000000; position: fixed;left:14%;top:30%""><img src=""visual/chain.png"" width=""300""></div><div style=""border: 3px solid #000000; position: fixed;left:64%;top:30%""><img src=""visual/brain.png"" width=""300""></div>","arrowup","","true","experiment","visual/chain.png","visual/brain.png","ArrowUp","ortho","","","","","","","","","","","","","","","","","","","","","","","","","","","",""
"","","","","","html-keyboard-response","194","233815","0.0-6.0-0.59","A1CFMY4CEYOM8Y","2022-05-18T16:39:34.881Z","rhyme-task_switching-same_different-phon_sim","","null","rhyme","<div style=""font-size:60px;"">+</div>","null","1000","","","","","","","","","","","","","","","","","","","","","","","","","","","","","","","","","",""
"","","","","","html-keyboard-response","195","234335","0.0-6.0-1.59","A1CFMY4CEYOM8Y","2022-05-18T16:39:34.881Z","rhyme-task_switching-same_different-phon_sim","","null","rhyme","<img src=""square.png"" width=""306"" height=""306"" style=""position: fixed;left:14%;top:30%""><img src=""square.png"" width=""306"" height=""306"" style=""position: fixed;left:64%;top:30%"">","null","","","","","","","","","","","","","","","","","","","","","","","","","","","","","","","","","","",""
"","","","","","html-keyboard-response","196","235604","0.0-6.0-2.59","A1CFMY4CEYOM8Y","2022-05-18T16:39:34.881Z","rhyme-task_switching-same_different-phon_sim","","1268","rhyme","<div style=""border: 3px solid #000000; position: fixed;left:14%;top:30%""><img src=""visual/brain.png"" width=""300""></div><div style=""border: 3px solid #000000; position: fixed;left:64%;top:30%""><img src=""visual/clock.png"" width=""300""></div>","arrowdown","","true","experiment","visual/brain.png","visual/clock.png","ArrowDown","NR","","","","","","","","","","","","","","","","","","","","","","","","","","","",""
"","","","","","survey-multi-choice","197","242212","0.0-7.0","A1CFMY4CEYOM8Y","2022-05-18T16:39:34.881Z","rhyme-task_switching-same_different-phon_sim","","6607.29999999702","rhyme","","{""Q0"":""No""}","","","","","","","","[0]","No","","","","","","","","","","","","","","","","","","","","","","","","","",""
"","","","","","survey-text","198","247676","0.0-8.0","A1CFMY4CEYOM8Y","2022-05-18T16:39:34.881Z","rhyme-task_switching-same_different-phon_sim","","5462.599999997765","rhyme","","{""Q0"":""np""}","","","","","","","","","","np","","","","","","","","","","","","","","","","","","","","","","","","",""
"","","","","","instructions","199","250700","0.0-9.0","A1CFMY4CEYOM8Y","2022-05-18T16:39:34.881Z","rhyme-task_switching-same_different-phon_sim","[{""page_index"":0,""viewing_time"":3023.10000000149}]","3023.39999999851","rhyme","","","","","","","","","","","","","","","","","","","","","","","","","","","","","","","","","","","","",""
"","","","","","instructions","200","258948","0.0-10.0","A1CFMY4CEYOM8Y","2022-05-18T16:39:34.881Z","rhyme-task_switching-same_different-phon_sim","[{""page_index"":0,""viewing_time"":8247.5}]","8247.699999999255","task_switching","","","","","","","","","","","","","","","","","","","","","","","","","","","","","","","","","","","","",""
"","","","","","instructions","201","267604","0.0-11.0","A1CFMY4CEYOM8Y","2022-05-18T16:39:34.881Z","rhyme-task_switching-same_different-phon_sim","[{""page_index"":0,""viewing_time"":8655.300000000745}]","8655.599999997765","task_switching","","","","","","","","","","","","","","","","","","","","","","","","","","","","","","","","","","","","",""
"","","","","","survey-text","202","269851","0.0-12.0","A1CFMY4CEYOM8Y","2022-05-18T16:39:34.881Z","rhyme-task_switching-same_different-phon_sim","","2246.2000000029802","task_switching","48","{""subtraction_ans"":""45""}","","true","training","","","","","","","","subtraction","45","subtract","","","","","","","","","","","","","","","","","","","","","",""
"","","","","","html-keyboard-response","203","270853","0.0-13.0","A1CFMY4CEYOM8Y","2022-05-18T16:39:34.881Z","rhyme-task_switching-same_different-phon_sim","","null","task_switching","<div style=""color:darkgreen; font-size:60px"">Well done!</div>","null","","","training","","","","","","","","subtraction","","","","","","","","","","","","","","","","","","","","","","","",""
"","","","","","survey-text","204","275060","0.0-14.0","A1CFMY4CEYOM8Y","2022-05-18T16:39:34.881Z","rhyme-task_switching-same_different-phon_sim","","4205.300000000745","task_switching","27","{""subtraction_ans"":""24""}","","true","training","","","","","","","","subtraction","24","subtract","","","","","","","","","","","","","","","","","","","","","",""
"","","","","","html-keyboard-response","205","276067","0.0-15.0","A1CFMY4CEYOM8Y","2022-05-18T16:39:34.881Z","rhyme-task_switching-same_different-phon_sim","","null","task_switching","<div style=""color:darkgreen; font-size:60px"">Well done!</div>","null","","","training","","","","","","","","subtraction","","","","","","","","","","","","","","","","","","","","","","","",""
"","","","","","survey-text","206","277748","0.0-16.0","A1CFMY4CEYOM8Y","2022-05-18T16:39:34.881Z","rhyme-task_switching-same_different-phon_sim","","1679.800000000745","task_switching","34","{""subtraction_ans"":""31""}","","true","training","","","","","","","","subtraction","31","subtract","","","","","","","","","","","","","","","","","","","","","",""
"","","","","","html-keyboard-response","207","278757","0.0-17.0","A1CFMY4CEYOM8Y","2022-05-18T16:39:34.881Z","rhyme-task_switching-same_different-phon_sim","","null","task_switching","<div style=""color:darkgreen; font-size:60px"">Well done!</div>","null","","","training","","","","","","","","subtraction","","","","","","","","","","","","","","","","","","","","","","","",""
"","","","","","survey-text","208","280020","0.0-18.0","A1CFMY4CEYOM8Y","2022-05-18T16:39:34.881Z","rhyme-task_switching-same_different-phon_sim","","1261.5999999977648","task_switching","36","{""subtraction_ans"":""33""}","","true","training","","","","","","","","subtraction","33","subtract","","","","","","","","","","","","","","","","","","","","","",""
"","","","","","html-keyboard-response","209","281037","0.0-19.0","A1CFMY4CEYOM8Y","2022-05-18T16:39:34.881Z","rhyme-task_switching-same_different-phon_sim","","null","task_switching","<div style=""color:darkgreen; font-size:60px"">Well done!</div>","null","","","training","","","","","","","","subtraction","","","","","","","","","","","","","","","","","","","","","","","",""
"","","","","","survey-text","210","282972","0.0-20.0","A1CFMY4CEYOM8Y","2022-05-18T16:39:34.881Z","rhyme-task_switching-same_different-phon_sim","","1933.800000000745","task_switching","72","{""subtraction_ans"":""69""}","","true","training","","","","","","","","subtraction","69","subtract","","","","","","","","","","","","","","","","","","","","","",""
"","","","","","html-keyboard-response","211","283973","0.0-21.0","A1CFMY4CEYOM8Y","2022-05-18T16:39:34.881Z","rhyme-task_switching-same_different-phon_sim","","null","task_switching","<div style=""color:darkgreen; font-size:60px"">Well done!</div>","null","","","training","","","","","","","","subtraction","","","","","","","","","","","","","","","","","","","","","","","",""
"","","","","","survey-text","212","286140","0.0-22.0","A1CFMY4CEYOM8Y","2022-05-18T16:39:34.881Z","rhyme-task_switching-same_different-phon_sim","","2165.400000002235","task_switching","60","{""subtraction_ans"":""57""}","","true","training","","","","","","","","subtraction","57","subtract","","","","","","","","","","","","","","","","","","","","","",""
