"success","timeout","failed_images","failed_audio","failed_video","trial_type","trial_index","time_elapsed","internal_node_id","worker_id","start_time","experiment_order","view_history","rt","experiment","stimulus","response","judgment_type","stim_1","stim_2","inverted","answer","true_pos","correct","true_neg","false_neg","false_pos","question_order","talk_out_loud","strategy_free_ans","wait_time","phase","image_1","image_2","cor_key","type","condition","operation","symbol_cue","trial_no","color_cue","word_1","word_2","word_3","word_4","word_5","original_word_set","response_1","response_2","response_3","response_4","response_5"
"true","false","[]","[]","[]","preload","0","3338","0.0-0.0","A1JJYY622DGE5L","2022-05-24T10:14:36.461Z","same_different-rhyme-task_switching-phon_sim","","","","","","","","","","","","","","","","","","","","","","","","","","","","","","","","","","","","","","","",""
"","","","","","instructions","1","18080","0.0-1.0","A1JJYY622DGE5L","2022-05-24T10:14:36.461Z","same_different-rhyme-task_switching-phon_sim","[{""page_index"":0,""viewing_time"":14738}]","14739.600000023842","","","","","","","","","","","","","","","","","","","","","","","","","","","","","","","","","","","","","",""
"true","","","","","fullscreen","2","21719","0.0-2.0","A1JJYY622DGE5L","2022-05-24T10:14:36.461Z","same_different-rhyme-task_switching-phon_sim","","","","","","","","","","","","","","","","","","","","","","","","","","","","","","","","","","","","","","","",""
"","","","","","instructions","3","42055","0.0-3.0","A1JJYY622DGE5L","2022-05-24T10:14:36.461Z","same_different-rhyme-task_switching-phon_sim","[{""page_index"":0,""viewing_time"":20329.399999976158}]","20333.399999976158","same_different","","","","","","","","","","","","","","","","","","","","","","","","","","","","","","","","","","","","",""
"","","","","","instructions","4","57294","0.0-4.0","A1JJYY622DGE5L","2022-05-24T10:14:36.461Z","same_different-rhyme-task_switching-phon_sim","[{""page_index"":0,""viewing_time"":15231.200000047684}]","15232.600000023842","","","","","","","","","","","","","","","","","","","","","","","","","","","","","","","","","","","","","",""
"","","","","","html-keyboard-response","5","58059","0.0-5.0-0.0","A1JJYY622DGE5L","2022-05-24T10:14:36.461Z","same_different-rhyme-task_switching-phon_sim","","null","same_different","<div style=""font-size:60px"">+</div>","null","","","","","","","","","","","","","","","","","","","","","","","","","","","","","","","","","","",""
"","","","","","html-keyboard-response","6","59923","0.0-5.0-1.0","A1JJYY622DGE5L","2022-05-24T10:14:36.461Z","same_different-rhyme-task_switching-phon_sim","","1851.3999999761581","same_different","[""<img src=\""square.png\"" width=\""100\"" height=\""100\"" style=\""position: fixed;left:39%;top:47%\""><img src=\""square.png\"" width=\""100\"" height=\""100\"" style=\""position: fixed;left:54%;top:47%\""><img src=\""square.png\"" width=\""100\"" height=\""100\"" style=\""position: fixed;left:46.5%;top:32%\""><img src=\""square.png\"" width=\""100\"" height=\""100\"" style=\""position: fixed;left:46.5%;top:61%\""><div style=\""font-size:60px;text-align: center;margin-top:35.2%\"">+</div><div id=\""first\"" style=\""position: fixed;visibility: hidden;left:48%;top:62%\""><img src=\""same_diff_imgs/C14.gif\"" style=\""-webkit-transform: scaleX(-1);transform: scaleX(-1);\""></div><div id=\""delayed\"" style=\""position: fixed;visibility: hidden;left:55%;top:49%\""><img src=\""same_diff_imgs/C09.gif\"" style=\""-webkit-transform: scaleX(-1);transform: scaleX(-1);\""></div>""]","arrowup","categorical_image","same_diff_imgs/C14.gif","same_diff_imgs/C09.gif","yes","same","1","true","","","","","","","","","","","","","","","","","","","","","","","","","","","",""
"","","","","","html-keyboard-response","7","59933","0.0-5.0-2.0","A1JJYY622DGE5L","2022-05-24T10:14:36.461Z","same_different-rhyme-task_switching-phon_sim","","null",""," ","null","","","","","","","","","","","","","","","","","","","","","","","","","","","","","","","","","","",""
"","","","","","html-keyboard-response","8","60239","0.0-5.0-3.0","A1JJYY622DGE5L","2022-05-24T10:14:36.461Z","same_different-rhyme-task_switching-phon_sim","","null","same_different"," ","null","","","","","","","","","","","","","","","","","","","","","","","","","","","","","","","","","","",""
"","","","","","html-keyboard-response","9","60999","0.0-5.0-0.1","A1JJYY622DGE5L","2022-05-24T10:14:36.461Z","same_different-rhyme-task_switching-phon_sim","","null","same_different","<div style=""font-size:60px"">+</div>","null","","","","","","","","","","","","","","","","","","","","","","","","","","","","","","","","","","",""
"","","","","","html-keyboard-response","10","62651","0.0-5.0-1.1","A1JJYY622DGE5L","2022-05-24T10:14:36.461Z","same_different-rhyme-task_switching-phon_sim","","1644.6999999284744","same_different","[""<img src=\""square.png\"" width=\""100\"" height=\""100\"" style=\""position: fixed;left:39%;top:47%\""><img src=\""square.png\"" width=\""100\"" height=\""100\"" style=\""position: fixed;left:54%;top:47%\""><img src=\""square.png\"" width=\""100\"" height=\""100\"" style=\""position: fixed;left:46.5%;top:32%\""><img src=\""square.png\"" width=\""100\"" height=\""100\"" style=\""position: fixed;left:46.5%;top:61%\""><div style=\""font-size:60px; text-align: center;margin-top:35.2%\"">+</div><div id=\""first\"" style=\""position: fixed;visibility: hidden;left:55%;top:49%\""><img src=\""same_diff_imgs/D07.gif\""></div><div id=\""delayed\"" style=\""position: fixed;visibility: hidden;left:48%;top:34%\""><img src=\""same_diff_imgs/C04.gif\""></div>""]","arrowdown","categorical_image","same_diff_imgs/D07.gif","same_diff_imgs/C04.gif","no","different","","true","1","","","","","","","","","","","","","","","","","","","","","","","","","","",""
"","","","","","html-keyboard-response","11","62659","0.0-5.0-2.1","A1JJYY622DGE5L","2022-05-24T10:14:36.461Z","same_different-rhyme-task_switching-phon_sim","","null",""," ","null","","","","","","","","","","","","","","","","","","","","","","","","","","","","","","","","","","",""
"","","","","","html-keyboard-response","12","62971","0.0-5.0-3.1","A1JJYY622DGE5L","2022-05-24T10:14:36.461Z","same_different-rhyme-task_switching-phon_sim","","null","same_different"," ","null","","","","","","","","","","","","","","","","","","","","","","","","","","","","","","","","","","",""
"","","","","","html-keyboard-response","13","63732","0.0-5.0-0.2","A1JJYY622DGE5L","2022-05-24T10:14:36.461Z","same_different-rhyme-task_switching-phon_sim","","null","same_different","<div style=""font-size:60px"">+</div>","null","","","","","","","","","","","","","","","","","","","","","","","","","","","","","","","","","","",""
"","","","","","html-keyboard-response","14","65337","0.0-5.0-1.2","A1JJYY622DGE5L","2022-05-24T10:14:36.461Z","same_different-rhyme-task_switching-phon_sim","","1598.3000000715256","same_different","[""<img src=\""square.png\"" width=\""100\"" height=\""100\"" style=\""position: fixed;left:39%;top:47%\""><img src=\""square.png\"" width=\""100\"" height=\""100\"" style=\""position: fixed;left:54%;top:47%\""><img src=\""square.png\"" width=\""100\"" height=\""100\"" style=\""position: fixed;left:46.5%;top:32%\""><img src=\""square.png\"" width=\""100\"" height=\""100\"" style=\""position: fixed;left:46.5%;top:61%\""><div style=\""font-size:60px;text-align: center;margin-top:35.2%\"">+</div><div id=\""first\"" style=\""position: fixed;visibility: hidden;left:48%;top:34%\""><img src=\""same_diff_imgs/D07.gif\"" style=\""-webkit-transform: scaleX(-1);transform: scaleX(-1);\""></div><div id=\""delayed\"" style=\""position: fixed;visibility: hidden;left:40%;top:48%\""><img src=\""same_diff_imgs/C09.gif\"" style=\""-webkit-transform: scaleX(-1);transform: scaleX(-1);\""></div>""]","arrowdown","categorical_image","same_diff_imgs/D07.gif","same_diff_imgs/C09.gif","yes","different","","true","1","","","","","","","","","","","","","","","","","","","","","","","","","","",""
"","","","","","html-keyboard-response","15","65341","0.0-5.0-2.2","A1JJYY622DGE5L","2022-05-24T10:14:36.461Z","same_different-rhyme-task_switching-phon_sim","","null",""," ","null","","","","","","","","","","","","","","","","","","","","","","","","","","","","","","","","","","",""
"","","","","","html-keyboard-response","16","65659","0.0-5.0-3.2","A1JJYY622DGE5L","2022-05-24T10:14:36.461Z","same_different-rhyme-task_switching-phon_sim","","null","same_different"," ","null","","","","","","","","","","","","","","","","","","","","","","","","","","","","","","","","","","",""
"","","","","","html-keyboard-response","17","66420","0.0-5.0-0.3","A1JJYY622DGE5L","2022-05-24T10:14:36.461Z","same_different-rhyme-task_switching-phon_sim","","null","same_different","<div style=""font-size:60px"">+</div>","null","","","","","","","","","","","","","","","","","","","","","","","","","","","","","","","","","","",""
"","","","","","html-keyboard-response","18","68460","0.0-5.0-1.3","A1JJYY622DGE5L","2022-05-24T10:14:36.461Z","same_different-rhyme-task_switching-phon_sim","","2031.7000000476837","same_different","[""<img src=\""square.png\"" width=\""100\"" height=\""100\"" style=\""position: fixed;left:39%;top:47%\""><img src=\""square.png\"" width=\""100\"" height=\""100\"" style=\""position: fixed;left:54%;top:47%\""><img src=\""square.png\"" width=\""100\"" height=\""100\"" style=\""position: fixed;left:46.5%;top:32%\""><img src=\""square.png\"" width=\""100\"" height=\""100\"" style=\""position: fixed;left:46.5%;top:61%\""><div style=\""font-size:60px;text-align: center;margin-top:35.2%\"">+</div><div id=\""first\"" style=\""position: fixed;visibility: hidden;left:40%;top:48%\""><img src=\""same_diff_imgs/C04.gif\"" style=\""-webkit-transform: scaleX(-1);transform: scaleX(-1);\""></div><div id=\""delayed\"" style=\""position: fixed;visibility: hidden;left:48%;top:62%\""><img src=\""same_diff_imgs/D11.gif\"" style=\""-webkit-transform: scaleX(-1);transform: scaleX(-1);\""></div>""]","arrowdown","categorical_image","same_diff_imgs/C04.gif","same_diff_imgs/D11.gif","yes","different","","true","1","","","","","","","","","","","","","","","","","","","","","","","","","","",""
"","","","","","html-keyboard-response","19","68467","0.0-5.0-2.3","A1JJYY622DGE5L","2022-05-24T10:14:36.461Z","same_different-rhyme-task_switching-phon_sim","","null",""," ","null","","","","","","","","","","","","","","","","","","","","","","","","","","","","","","","","","","",""
"","","","","","html-keyboard-response","20","68783","0.0-5.0-3.3","A1JJYY622DGE5L","2022-05-24T10:14:36.461Z","same_different-rhyme-task_switching-phon_sim","","null","same_different"," ","null","","","","","","","","","","","","","","","","","","","","","","","","","","","","","","","","","","",""
"","","","","","html-keyboard-response","21","69549","0.0-5.0-0.4","A1JJYY622DGE5L","2022-05-24T10:14:36.461Z","same_different-rhyme-task_switching-phon_sim","","null","same_different","<div style=""font-size:60px"">+</div>","null","","","","","","","","","","","","","","","","","","","","","","","","","","","","","","","","","","",""
"","","","","","html-keyboard-response","22","71076","0.0-5.0-1.4","A1JJYY622DGE5L","2022-05-24T10:14:36.461Z","same_different-rhyme-task_switching-phon_sim","","1520.5","same_different","[""<img src=\""square.png\"" width=\""100\"" height=\""100\"" style=\""position: fixed;left:39%;top:47%\""><img src=\""square.png\"" width=\""100\"" height=\""100\"" style=\""position: fixed;left:54%;top:47%\""><img src=\""square.png\"" width=\""100\"" height=\""100\"" style=\""position: fixed;left:46.5%;top:32%\""><img src=\""square.png\"" width=\""100\"" height=\""100\"" style=\""position: fixed;left:46.5%;top:61%\""><div style=\""font-size:60px;text-align: center;margin-top:35.2%\"">+</div><div id=\""first\"" style=\""position: fixed;visibility: hidden;left:48%;top:34%\""><img src=\""same_diff_imgs/C04.gif\"" style=\""-webkit-transform: scaleX(-1);transform: scaleX(-1);\""></div><div id=\""delayed\"" style=\""position: fixed;visibility: hidden;left:55%;top:49%\""><img src=\""same_diff_imgs/C14.gif\"" style=\""-webkit-transform: scaleX(-1);transform: scaleX(-1);\""></div>""]","arrowup","categorical_image","same_diff_imgs/C04.gif","same_diff_imgs/C14.gif","yes","same","1","true","","","","","","","","","","","","","","","","","","","","","","","","","","","",""
"","","","","","html-keyboard-response","23","71081","0.0-5.0-2.4","A1JJYY622DGE5L","2022-05-24T10:14:36.461Z","same_different-rhyme-task_switching-phon_sim","","null",""," ","null","","","","","","","","","","","","","","","","","","","","","","","","","","","","","","","","","","",""
"","","","","","html-keyboard-response","24","71388","0.0-5.0-3.4","A1JJYY622DGE5L","2022-05-24T10:14:36.461Z","same_different-rhyme-task_switching-phon_sim","","null","same_different"," ","null","","","","","","","","","","","","","","","","","","","","","","","","","","","","","","","","","","",""
"","","","","","html-keyboard-response","25","72145","0.0-5.0-0.5","A1JJYY622DGE5L","2022-05-24T10:14:36.461Z","same_different-rhyme-task_switching-phon_sim","","null","same_different","<div style=""font-size:60px"">+</div>","null","","","","","","","","","","","","","","","","","","","","","","","","","","","","","","","","","","",""
"","","","","","html-keyboard-response","26","73832","0.0-5.0-1.5","A1JJYY622DGE5L","2022-05-24T10:14:36.461Z","same_different-rhyme-task_switching-phon_sim","","1679.5","same_different","[""<img src=\""square.png\"" width=\""100\"" height=\""100\"" style=\""position: fixed;left:39%;top:47%\""><img src=\""square.png\"" width=\""100\"" height=\""100\"" style=\""position: fixed;left:54%;top:47%\""><img src=\""square.png\"" width=\""100\"" height=\""100\"" style=\""position: fixed;left:46.5%;top:32%\""><img src=\""square.png\"" width=\""100\"" height=\""100\"" style=\""position: fixed;left:46.5%;top:61%\""><div style=\""font-size:60px;text-align: center;margin-top:35.2%\"">+</div><div id=\""first\"" style=\""position: fixed;visibility: hidden;left:55%;top:49%\""><img src=\""same_diff_imgs/D11.gif\"" style=\""-webkit-transform: scaleX(-1);transform: scaleX(-1);\""></div><div id=\""delayed\"" style=\""position: fixed;visibility: hidden;left:48%;top:62%\""><img src=\""same_diff_imgs/C09.gif\"" style=\""-webkit-transform: scaleX(-1);transform: scaleX(-1);\""></div>""]","arrowdown","categorical_image","same_diff_imgs/D11.gif","same_diff_imgs/C09.gif","yes","different","","true","1","","","","","","","","","","","","","","","","","","","","","","","","","","",""
"","","","","","html-keyboard-response","27","73840","0.0-5.0-2.5","A1JJYY622DGE5L","2022-05-24T10:14:36.461Z","same_different-rhyme-task_switching-phon_sim","","null",""," ","null","","","","","","","","","","","","","","","","","","","","","","","","","","","","","","","","","","",""
"","","","","","html-keyboard-response","28","74154","0.0-5.0-3.5","A1JJYY622DGE5L","2022-05-24T10:14:36.461Z","same_different-rhyme-task_switching-phon_sim","","null","same_different"," ","null","","","","","","","","","","","","","","","","","","","","","","","","","","","","","","","","","","",""
"","","","","","html-keyboard-response","29","74915","0.0-5.0-0.6","A1JJYY622DGE5L","2022-05-24T10:14:36.461Z","same_different-rhyme-task_switching-phon_sim","","null","same_different","<div style=""font-size:60px"">+</div>","null","","","","","","","","","","","","","","","","","","","","","","","","","","","","","","","","","","",""
"","","","","","html-keyboard-response","30","76468","0.0-5.0-1.6","A1JJYY622DGE5L","2022-05-24T10:14:36.461Z","same_different-rhyme-task_switching-phon_sim","","1544.8999999761581","same_different","[""<img src=\""square.png\"" width=\""100\"" height=\""100\"" style=\""position: fixed;left:39%;top:47%\""><img src=\""square.png\"" width=\""100\"" height=\""100\"" style=\""position: fixed;left:54%;top:47%\""><img src=\""square.png\"" width=\""100\"" height=\""100\"" style=\""position: fixed;left:46.5%;top:32%\""><img src=\""square.png\"" width=\""100\"" height=\""100\"" style=\""position: fixed;left:46.5%;top:61%\""><div style=\""font-size:60px; text-align: center;margin-top:35.2%\"">+</div><div id=\""first\"" style=\""position: fixed;visibility: hidden;left:55%;top:49%\""><img src=\""same_diff_imgs/C04.gif\""></div><div id=\""delayed\"" style=\""position: fixed;visibility: hidden;left:48%;top:62%\""><img src=\""same_diff_imgs/D09.gif\""></div>""]","arrowdown","categorical_image","same_diff_imgs/C04.gif","same_diff_imgs/D09.gif","no","different","","true","1","","","","","","","","","","","","","","","","","","","","","","","","","","",""
"","","","","","html-keyboard-response","31","76473","0.0-5.0-2.6","A1JJYY622DGE5L","2022-05-24T10:14:36.461Z","same_different-rhyme-task_switching-phon_sim","","null",""," ","null","","","","","","","","","","","","","","","","","","","","","","","","","","","","","","","","","","",""
"","","","","","html-keyboard-response","32","76778","0.0-5.0-3.6","A1JJYY622DGE5L","2022-05-24T10:14:36.461Z","same_different-rhyme-task_switching-phon_sim","","null","same_different"," ","null","","","","","","","","","","","","","","","","","","","","","","","","","","","","","","","","","","",""
"","","","","","html-keyboard-response","33","77540","0.0-5.0-0.7","A1JJYY622DGE5L","2022-05-24T10:14:36.461Z","same_different-rhyme-task_switching-phon_sim","","null","same_different","<div style=""font-size:60px"">+</div>","null","","","","","","","","","","","","","","","","","","","","","","","","","","","","","","","","","","",""
"","","","","","html-keyboard-response","34","79164","0.0-5.0-1.7","A1JJYY622DGE5L","2022-05-24T10:14:36.461Z","same_different-rhyme-task_switching-phon_sim","","1618.5","same_different","[""<img src=\""square.png\"" width=\""100\"" height=\""100\"" style=\""position: fixed;left:39%;top:47%\""><img src=\""square.png\"" width=\""100\"" height=\""100\"" style=\""position: fixed;left:54%;top:47%\""><img src=\""square.png\"" width=\""100\"" height=\""100\"" style=\""position: fixed;left:46.5%;top:32%\""><img src=\""square.png\"" width=\""100\"" height=\""100\"" style=\""position: fixed;left:46.5%;top:61%\""><div style=\""font-size:60px;text-align: center;margin-top:35.2%\"">+</div><div id=\""first\"" style=\""position: fixed;visibility: hidden;left:48%;top:34%\""><img src=\""same_diff_imgs/D09.gif\"" style=\""-webkit-transform: scaleX(-1);transform: scaleX(-1);\""></div><div id=\""delayed\"" style=\""position: fixed;visibility: hidden;left:48%;top:62%\""><img src=\""same_diff_imgs/C14.gif\"" style=\""-webkit-transform: scaleX(-1);transform: scaleX(-1);\""></div>""]","arrowdown","categorical_image","same_diff_imgs/D09.gif","same_diff_imgs/C14.gif","yes","different","","true","1","","","","","","","","","","","","","","","","","","","","","","","","","","",""
"","","","","","html-keyboard-response","35","79167","0.0-5.0-2.7","A1JJYY622DGE5L","2022-05-24T10:14:36.461Z","same_different-rhyme-task_switching-phon_sim","","null",""," ","null","","","","","","","","","","","","","","","","","","","","","","","","","","","","","","","","","","",""
"","","","","","html-keyboard-response","36","79471","0.0-5.0-3.7","A1JJYY622DGE5L","2022-05-24T10:14:36.461Z","same_different-rhyme-task_switching-phon_sim","","null","same_different"," ","null","","","","","","","","","","","","","","","","","","","","","","","","","","","","","","","","","","",""
"","","","","","html-keyboard-response","37","80225","0.0-5.0-0.8","A1JJYY622DGE5L","2022-05-24T10:14:36.461Z","same_different-rhyme-task_switching-phon_sim","","null","same_different","<div style=""font-size:60px"">+</div>","null","","","","","","","","","","","","","","","","","","","","","","","","","","","","","","","","","","",""
"","","","","","html-keyboard-response","38","81772","0.0-5.0-1.8","A1JJYY622DGE5L","2022-05-24T10:14:36.461Z","same_different-rhyme-task_switching-phon_sim","","1539.5","same_different","[""<img src=\""square.png\"" width=\""100\"" height=\""100\"" style=\""position: fixed;left:39%;top:47%\""><img src=\""square.png\"" width=\""100\"" height=\""100\"" style=\""position: fixed;left:54%;top:47%\""><img src=\""square.png\"" width=\""100\"" height=\""100\"" style=\""position: fixed;left:46.5%;top:32%\""><img src=\""square.png\"" width=\""100\"" height=\""100\"" style=\""position: fixed;left:46.5%;top:61%\""><div style=\""font-size:60px; text-align: center;margin-top:35.2%\"">+</div><div id=\""first\"" style=\""position: fixed;visibility: hidden;left:40%;top:48%\""><img src=\""same_diff_imgs/C04.gif\""></div><div id=\""delayed\"" style=\""position: fixed;visibility: hidden;left:48%;top:34%\""><img src=\""same_diff_imgs/C14.gif\""></div>""]","arrowup","categorical_image","same_diff_imgs/C04.gif","same_diff_imgs/C14.gif","no","same","1","true","","","","","","","","","","","","","","","","","","","","","","","","","","","",""
"","","","","","html-keyboard-response","39","81776","0.0-5.0-2.8","A1JJYY622DGE5L","2022-05-24T10:14:36.461Z","same_different-rhyme-task_switching-phon_sim","","null",""," ","null","","","","","","","","","","","","","","","","","","","","","","","","","","","","","","","","","","",""
"","","","","","html-keyboard-response","40","82087","0.0-5.0-3.8","A1JJYY622DGE5L","2022-05-24T10:14:36.461Z","same_different-rhyme-task_switching-phon_sim","","null","same_different"," ","null","","","","","","","","","","","","","","","","","","","","","","","","","","","","","","","","","","",""
"","","","","","html-keyboard-response","41","82840","0.0-5.0-0.9","A1JJYY622DGE5L","2022-05-24T10:14:36.461Z","same_different-rhyme-task_switching-phon_sim","","null","same_different","<div style=""font-size:60px"">+</div>","null","","","","","","","","","","","","","","","","","","","","","","","","","","","","","","","","","","",""
"","","","","","html-keyboard-response","42","84251","0.0-5.0-1.9","A1JJYY622DGE5L","2022-05-24T10:14:36.461Z","same_different-rhyme-task_switching-phon_sim","","1405.1999999284744","same_different","[""<img src=\""square.png\"" width=\""100\"" height=\""100\"" style=\""position: fixed;left:39%;top:47%\""><img src=\""square.png\"" width=\""100\"" height=\""100\"" style=\""position: fixed;left:54%;top:47%\""><img src=\""square.png\"" width=\""100\"" height=\""100\"" style=\""position: fixed;left:46.5%;top:32%\""><img src=\""square.png\"" width=\""100\"" height=\""100\"" style=\""position: fixed;left:46.5%;top:61%\""><div style=\""font-size:60px;text-align: center;margin-top:35.2%\"">+</div><div id=\""first\"" style=\""position: fixed;visibility: hidden;left:55%;top:49%\""><img src=\""same_diff_imgs/C04.gif\"" style=\""-webkit-transform: scaleX(-1);transform: scaleX(-1);\""></div><div id=\""delayed\"" style=\""position: fixed;visibility: hidden;left:48%;top:34%\""><img src=\""same_diff_imgs/C04.gif\"" style=\""-webkit-transform: scaleX(-1);transform: scaleX(-1);\""></div>""]","arrowup","categorical_image","same_diff_imgs/C04.gif","same_diff_imgs/C04.gif","yes","same","1","true","","","","","","","","","","","","","","","","","","","","","","","","","","","",""
"","","","","","html-keyboard-response","43","84257","0.0-5.0-2.9","A1JJYY622DGE5L","2022-05-24T10:14:36.461Z","same_different-rhyme-task_switching-phon_sim","","null",""," ","null","","","","","","","","","","","","","","","","","","","","","","","","","","","","","","","","","","",""
"","","","","","html-keyboard-response","44","84571","0.0-5.0-3.9","A1JJYY622DGE5L","2022-05-24T10:14:36.461Z","same_different-rhyme-task_switching-phon_sim","","null","same_different"," ","null","","","","","","","","","","","","","","","","","","","","","","","","","","","","","","","","","","",""
"","","","","","html-keyboard-response","45","85331","0.0-5.0-0.10","A1JJYY622DGE5L","2022-05-24T10:14:36.461Z","same_different-rhyme-task_switching-phon_sim","","null","same_different","<div style=""font-size:60px"">+</div>","null","","","","","","","","","","","","","","","","","","","","","","","","","","","","","","","","","","",""
"","","","","","html-keyboard-response","46","86772","0.0-5.0-1.10","A1JJYY622DGE5L","2022-05-24T10:14:36.461Z","same_different-rhyme-task_switching-phon_sim","","1434.8000000715256","same_different","[""<img src=\""square.png\"" width=\""100\"" height=\""100\"" style=\""position: fixed;left:39%;top:47%\""><img src=\""square.png\"" width=\""100\"" height=\""100\"" style=\""position: fixed;left:54%;top:47%\""><img src=\""square.png\"" width=\""100\"" height=\""100\"" style=\""position: fixed;left:46.5%;top:32%\""><img src=\""square.png\"" width=\""100\"" height=\""100\"" style=\""position: fixed;left:46.5%;top:61%\""><div style=\""font-size:60px;text-align: center;margin-top:35.2%\"">+</div><div id=\""first\"" style=\""position: fixed;visibility: hidden;left:55%;top:49%\""><img src=\""same_diff_imgs/D09.gif\"" style=\""-webkit-transform: scaleX(-1);transform: scaleX(-1);\""></div><div id=\""delayed\"" style=\""position: fixed;visibility: hidden;left:40%;top:48%\""><img src=\""same_diff_imgs/D07.gif\"" style=\""-webkit-transform: scaleX(-1);transform: scaleX(-1);\""></div>""]","arrowdown","categorical_image","same_diff_imgs/D09.gif","same_diff_imgs/D07.gif","yes","same","","false","","1","","","","","","","","","","","","","","","","","","","","","","","","","",""
"","","","","","html-keyboard-response","47","87275","0.0-5.0-2.10","A1JJYY622DGE5L","2022-05-24T10:14:36.461Z","same_different-rhyme-task_switching-phon_sim","","null","","<div style=""color:darkred; font-size:40px"">Incorrect!</div>","null","","","","","","","","","","","","","","","","","","","","","","","","","","","","","","","","","","",""
"","","","","","html-keyboard-response","48","87590","0.0-5.0-3.10","A1JJYY622DGE5L","2022-05-24T10:14:36.461Z","same_different-rhyme-task_switching-phon_sim","","null","same_different"," ","null","","","","","","","","","","","","","","","","","","","","","","","","","","","","","","","","","","",""
"","","","","","html-keyboard-response","49","88352","0.0-5.0-0.11","A1JJYY622DGE5L","2022-05-24T10:14:36.461Z","same_different-rhyme-task_switching-phon_sim","","null","same_different","<div style=""font-size:60px"">+</div>","null","","","","","","","","","","","","","","","","","","","","","","","","","","","","","","","","","","",""
"","","","","","html-keyboard-response","50","90080","0.0-5.0-1.11","A1JJYY622DGE5L","2022-05-24T10:14:36.461Z","same_different-rhyme-task_switching-phon_sim","","1720.6000000238419","same_different","[""<img src=\""square.png\"" width=\""100\"" height=\""100\"" style=\""position: fixed;left:39%;top:47%\""><img src=\""square.png\"" width=\""100\"" height=\""100\"" style=\""position: fixed;left:54%;top:47%\""><img src=\""square.png\"" width=\""100\"" height=\""100\"" style=\""position: fixed;left:46.5%;top:32%\""><img src=\""square.png\"" width=\""100\"" height=\""100\"" style=\""position: fixed;left:46.5%;top:61%\""><div style=\""font-size:60px;text-align: center;margin-top:35.2%\"">+</div><div id=\""first\"" style=\""position: fixed;visibility: hidden;left:48%;top:62%\""><img src=\""same_diff_imgs/C14.gif\"" style=\""-webkit-transform: scaleX(-1);transform: scaleX(-1);\""></div><div id=\""delayed\"" style=\""position: fixed;visibility: hidden;left:40%;top:48%\""><img src=\""same_diff_imgs/D09.gif\"" style=\""-webkit-transform: scaleX(-1);transform: scaleX(-1);\""></div>""]","arrowdown","categorical_image","same_diff_imgs/C14.gif","same_diff_imgs/D09.gif","yes","different","","true","1","","","","","","","","","","","","","","","","","","","","","","","","","","",""
"","","","","","html-keyboard-response","51","90088","0.0-5.0-2.11","A1JJYY622DGE5L","2022-05-24T10:14:36.461Z","same_different-rhyme-task_switching-phon_sim","","null",""," ","null","","","","","","","","","","","","","","","","","","","","","","","","","","","","","","","","","","",""
"","","","","","html-keyboard-response","52","90402","0.0-5.0-3.11","A1JJYY622DGE5L","2022-05-24T10:14:36.461Z","same_different-rhyme-task_switching-phon_sim","","null","same_different"," ","null","","","","","","","","","","","","","","","","","","","","","","","","","","","","","","","","","","",""
"","","","","","html-keyboard-response","53","91165","0.0-5.0-0.12","A1JJYY622DGE5L","2022-05-24T10:14:36.461Z","same_different-rhyme-task_switching-phon_sim","","null","same_different","<div style=""font-size:60px"">+</div>","null","","","","","","","","","","","","","","","","","","","","","","","","","","","","","","","","","","",""
"","","","","","html-keyboard-response","54","92738","0.0-5.0-1.12","A1JJYY622DGE5L","2022-05-24T10:14:36.461Z","same_different-rhyme-task_switching-phon_sim","","1566.3999999761581","same_different","[""<img src=\""square.png\"" width=\""100\"" height=\""100\"" style=\""position: fixed;left:39%;top:47%\""><img src=\""square.png\"" width=\""100\"" height=\""100\"" style=\""position: fixed;left:54%;top:47%\""><img src=\""square.png\"" width=\""100\"" height=\""100\"" style=\""position: fixed;left:46.5%;top:32%\""><img src=\""square.png\"" width=\""100\"" height=\""100\"" style=\""position: fixed;left:46.5%;top:61%\""><div style=\""font-size:60px;text-align: center;margin-top:35.2%\"">+</div><div id=\""first\"" style=\""position: fixed;visibility: hidden;left:55%;top:49%\""><img src=\""same_diff_imgs/C09.gif\"" style=\""-webkit-transform: scaleX(-1);transform: scaleX(-1);\""></div><div id=\""delayed\"" style=\""position: fixed;visibility: hidden;left:48%;top:34%\""><img src=\""same_diff_imgs/C14.gif\"" style=\""-webkit-transform: scaleX(-1);transform: scaleX(-1);\""></div>""]","arrowup","categorical_image","same_diff_imgs/C09.gif","same_diff_imgs/C14.gif","yes","same","1","true","","","","","","","","","","","","","","","","","","","","","","","","","","","",""
"","","","","","html-keyboard-response","55","92748","0.0-5.0-2.12","A1JJYY622DGE5L","2022-05-24T10:14:36.461Z","same_different-rhyme-task_switching-phon_sim","","null",""," ","null","","","","","","","","","","","","","","","","","","","","","","","","","","","","","","","","","","",""
"","","","","","html-keyboard-response","56","93053","0.0-5.0-3.12","A1JJYY622DGE5L","2022-05-24T10:14:36.461Z","same_different-rhyme-task_switching-phon_sim","","null","same_different"," ","null","","","","","","","","","","","","","","","","","","","","","","","","","","","","","","","","","","",""
"","","","","","html-keyboard-response","57","93807","0.0-5.0-0.13","A1JJYY622DGE5L","2022-05-24T10:14:36.461Z","same_different-rhyme-task_switching-phon_sim","","null","same_different","<div style=""font-size:60px"">+</div>","null","","","","","","","","","","","","","","","","","","","","","","","","","","","","","","","","","","",""
"","","","","","html-keyboard-response","58","95328","0.0-5.0-1.13","A1JJYY622DGE5L","2022-05-24T10:14:36.461Z","same_different-rhyme-task_switching-phon_sim","","1515.2000000476837","same_different","[""<img src=\""square.png\"" width=\""100\"" height=\""100\"" style=\""position: fixed;left:39%;top:47%\""><img src=\""square.png\"" width=\""100\"" height=\""100\"" style=\""position: fixed;left:54%;top:47%\""><img src=\""square.png\"" width=\""100\"" height=\""100\"" style=\""position: fixed;left:46.5%;top:32%\""><img src=\""square.png\"" width=\""100\"" height=\""100\"" style=\""position: fixed;left:46.5%;top:61%\""><div style=\""font-size:60px;text-align: center;margin-top:35.2%\"">+</div><div id=\""first\"" style=\""position: fixed;visibility: hidden;left:48%;top:62%\""><img src=\""same_diff_imgs/D09.gif\"" style=\""-webkit-transform: scaleX(-1);transform: scaleX(-1);\""></div><div id=\""delayed\"" style=\""position: fixed;visibility: hidden;left:48%;top:34%\""><img src=\""same_diff_imgs/C09.gif\"" style=\""-webkit-transform: scaleX(-1);transform: scaleX(-1);\""></div>""]","arrowdown","categorical_image","same_diff_imgs/D09.gif","same_diff_imgs/C09.gif","yes","different","","true","1","","","","","","","","","","","","","","","","","","","","","","","","","","",""
"","","","","","html-keyboard-response","59","95332","0.0-5.0-2.13","A1JJYY622DGE5L","2022-05-24T10:14:36.461Z","same_different-rhyme-task_switching-phon_sim","","null",""," ","null","","","","","","","","","","","","","","","","","","","","","","","","","","","","","","","","","","",""
"","","","","","html-keyboard-response","60","95639","0.0-5.0-3.13","A1JJYY622DGE5L","2022-05-24T10:14:36.461Z","same_different-rhyme-task_switching-phon_sim","","null","same_different"," ","null","","","","","","","","","","","","","","","","","","","","","","","","","","","","","","","","","","",""
"","","","","","html-keyboard-response","61","96400","0.0-5.0-0.14","A1JJYY622DGE5L","2022-05-24T10:14:36.461Z","same_different-rhyme-task_switching-phon_sim","","null","same_different","<div style=""font-size:60px"">+</div>","null","","","","","","","","","","","","","","","","","","","","","","","","","","","","","","","","","","",""
"","","","","","html-keyboard-response","62","97918","0.0-5.0-1.14","A1JJYY622DGE5L","2022-05-24T10:14:36.461Z","same_different-rhyme-task_switching-phon_sim","","1509.2999999523163","same_different","[""<img src=\""square.png\"" width=\""100\"" height=\""100\"" style=\""position: fixed;left:39%;top:47%\""><img src=\""square.png\"" width=\""100\"" height=\""100\"" style=\""position: fixed;left:54%;top:47%\""><img src=\""square.png\"" width=\""100\"" height=\""100\"" style=\""position: fixed;left:46.5%;top:32%\""><img src=\""square.png\"" width=\""100\"" height=\""100\"" style=\""position: fixed;left:46.5%;top:61%\""><div style=\""font-size:60px; text-align: center;margin-top:35.2%\"">+</div><div id=\""first\"" style=\""position: fixed;visibility: hidden;left:48%;top:34%\""><img src=\""same_diff_imgs/D11.gif\""></div><div id=\""delayed\"" style=\""position: fixed;visibility: hidden;left:55%;top:49%\""><img src=\""same_diff_imgs/D07.gif\""></div>""]","arrowup","categorical_image","same_diff_imgs/D11.gif","same_diff_imgs/D07.gif","no","same","1","true","","","","","","","","","","","","","","","","","","","","","","","","","","","",""
"","","","","","html-keyboard-response","63","97923","0.0-5.0-2.14","A1JJYY622DGE5L","2022-05-24T10:14:36.461Z","same_different-rhyme-task_switching-phon_sim","","null",""," ","null","","","","","","","","","","","","","","","","","","","","","","","","","","","","","","","","","","",""
"","","","","","html-keyboard-response","64","98237","0.0-5.0-3.14","A1JJYY622DGE5L","2022-05-24T10:14:36.461Z","same_different-rhyme-task_switching-phon_sim","","null","same_different"," ","null","","","","","","","","","","","","","","","","","","","","","","","","","","","","","","","","","","",""
"","","","","","html-keyboard-response","65","98999","0.0-5.0-0.15","A1JJYY622DGE5L","2022-05-24T10:14:36.461Z","same_different-rhyme-task_switching-phon_sim","","null","same_different","<div style=""font-size:60px"">+</div>","null","","","","","","","","","","","","","","","","","","","","","","","","","","","","","","","","","","",""
"","","","","","html-keyboard-response","66","100576","0.0-5.0-1.15","A1JJYY622DGE5L","2022-05-24T10:14:36.461Z","same_different-rhyme-task_switching-phon_sim","","1570.2999999523163","same_different","[""<img src=\""square.png\"" width=\""100\"" height=\""100\"" style=\""position: fixed;left:39%;top:47%\""><img src=\""square.png\"" width=\""100\"" height=\""100\"" style=\""position: fixed;left:54%;top:47%\""><img src=\""square.png\"" width=\""100\"" height=\""100\"" style=\""position: fixed;left:46.5%;top:32%\""><img src=\""square.png\"" width=\""100\"" height=\""100\"" style=\""position: fixed;left:46.5%;top:61%\""><div style=\""font-size:60px; text-align: center;margin-top:35.2%\"">+</div><div id=\""first\"" style=\""position: fixed;visibility: hidden;left:55%;top:49%\""><img src=\""same_diff_imgs/D09.gif\""></div><div id=\""delayed\"" style=\""position: fixed;visibility: hidden;left:48%;top:34%\""><img src=\""same_diff_imgs/C14.gif\""></div>""]","arrowdown","categorical_image","same_diff_imgs/D09.gif","same_diff_imgs/C14.gif","no","different","","true","1","","","","","","","","","","","","","","","","","","","","","","","","","","",""
"","","","","","html-keyboard-response","67","100584","0.0-5.0-2.15","A1JJYY622DGE5L","2022-05-24T10:14:36.461Z","same_different-rhyme-task_switching-phon_sim","","null",""," ","null","","","","","","","","","","","","","","","","","","","","","","","","","","","","","","","","","","",""
"","","","","","html-keyboard-response","68","100887","0.0-5.0-3.15","A1JJYY622DGE5L","2022-05-24T10:14:36.461Z","same_different-rhyme-task_switching-phon_sim","","null","same_different"," ","null","","","","","","","","","","","","","","","","","","","","","","","","","","","","","","","","","","",""
"","","","","","html-keyboard-response","69","101643","0.0-5.0-0.16","A1JJYY622DGE5L","2022-05-24T10:14:36.461Z","same_different-rhyme-task_switching-phon_sim","","null","same_different","<div style=""font-size:60px"">+</div>","null","","","","","","","","","","","","","","","","","","","","","","","","","","","","","","","","","","",""
"","","","","","html-keyboard-response","70","103384","0.0-5.0-1.16","A1JJYY622DGE5L","2022-05-24T10:14:36.461Z","same_different-rhyme-task_switching-phon_sim","","1735.3999999761581","same_different","[""<img src=\""square.png\"" width=\""100\"" height=\""100\"" style=\""position: fixed;left:39%;top:47%\""><img src=\""square.png\"" width=\""100\"" height=\""100\"" style=\""position: fixed;left:54%;top:47%\""><img src=\""square.png\"" width=\""100\"" height=\""100\"" style=\""position: fixed;left:46.5%;top:32%\""><img src=\""square.png\"" width=\""100\"" height=\""100\"" style=\""position: fixed;left:46.5%;top:61%\""><div style=\""font-size:60px; text-align: center;margin-top:35.2%\"">+</div><div id=\""first\"" style=\""position: fixed;visibility: hidden;left:48%;top:34%\""><img src=\""same_diff_imgs/C14.gif\""></div><div id=\""delayed\"" style=\""position: fixed;visibility: hidden;left:55%;top:49%\""><img src=\""same_diff_imgs/C09.gif\""></div>""]","arrowup","categorical_image","same_diff_imgs/C14.gif","same_diff_imgs/C09.gif","no","same","1","true","","","","","","","","","","","","","","","","","","","","","","","","","","","",""
"","","","","","html-keyboard-response","71","103389","0.0-5.0-2.16","A1JJYY622DGE5L","2022-05-24T10:14:36.461Z","same_different-rhyme-task_switching-phon_sim","","null",""," ","null","","","","","","","","","","","","","","","","","","","","","","","","","","","","","","","","","","",""
"","","","","","html-keyboard-response","72","103703","0.0-5.0-3.16","A1JJYY622DGE5L","2022-05-24T10:14:36.461Z","same_different-rhyme-task_switching-phon_sim","","null","same_different"," ","null","","","","","","","","","","","","","","","","","","","","","","","","","","","","","","","","","","",""
"","","","","","html-keyboard-response","73","104457","0.0-5.0-0.17","A1JJYY622DGE5L","2022-05-24T10:14:36.461Z","same_different-rhyme-task_switching-phon_sim","","null","same_different","<div style=""font-size:60px"">+</div>","null","","","","","","","","","","","","","","","","","","","","","","","","","","","","","","","","","","",""
"","","","","","html-keyboard-response","74","105913","0.0-5.0-1.17","A1JJYY622DGE5L","2022-05-24T10:14:36.461Z","same_different-rhyme-task_switching-phon_sim","","1449","same_different","[""<img src=\""square.png\"" width=\""100\"" height=\""100\"" style=\""position: fixed;left:39%;top:47%\""><img src=\""square.png\"" width=\""100\"" height=\""100\"" style=\""position: fixed;left:54%;top:47%\""><img src=\""square.png\"" width=\""100\"" height=\""100\"" style=\""position: fixed;left:46.5%;top:32%\""><img src=\""square.png\"" width=\""100\"" height=\""100\"" style=\""position: fixed;left:46.5%;top:61%\""><div style=\""font-size:60px; text-align: center;margin-top:35.2%\"">+</div><div id=\""first\"" style=\""position: fixed;visibility: hidden;left:48%;top:34%\""><img src=\""same_diff_imgs/C09.gif\""></div><div id=\""delayed\"" style=\""position: fixed;visibility: hidden;left:55%;top:49%\""><img src=\""same_diff_imgs/D11.gif\""></div>""]","arrowdown","categorical_image","same_diff_imgs/C09.gif","same_diff_imgs/D11.gif","no","different","","true","1","","","","","","","","","","","","","","","","","","","","","","","","","","",""
"","","","","","html-keyboard-response","75","105918","0.0-5.0-2.17","A1JJYY622DGE5L","2022-05-24T10:14:36.461Z","same_different-rhyme-task_switching-phon_sim","","null",""," ","null","","","","","","","","","","","","","","","","","","","","","","","","","","","","","","","","","","",""
"","","","","","html-keyboard-response","76","106236","0.0-5.0-3.17","A1JJYY622DGE5L","2022-05-24T10:14:36.461Z","same_different-rhyme-task_switching-phon_sim","","null","same_different"," ","null","","","","","","","","","","","","","","","","","","","","","","","","","","","","","","","","","","",""
"","","","","","html-keyboard-response","77","106992","0.0-5.0-0.18","A1JJYY622DGE5L","2022-05-24T10:14:36.461Z","same_different-rhyme-task_switching-phon_sim","","null","same_different","<div style=""font-size:60px"">+</div>","null","","","","","","","","","","","","","","","","","","","","","","","","","","","","","","","","","","",""
"","","","","","html-keyboard-response","78","108459","0.0-5.0-1.18","A1JJYY622DGE5L","2022-05-24T10:14:36.461Z","same_different-rhyme-task_switching-phon_sim","","1460.3000000715256","same_different","[""<img src=\""square.png\"" width=\""100\"" height=\""100\"" style=\""position: fixed;left:39%;top:47%\""><img src=\""square.png\"" width=\""100\"" height=\""100\"" style=\""position: fixed;left:54%;top:47%\""><img src=\""square.png\"" width=\""100\"" height=\""100\"" style=\""position: fixed;left:46.5%;top:32%\""><img src=\""square.png\"" width=\""100\"" height=\""100\"" style=\""position: fixed;left:46.5%;top:61%\""><div style=\""font-size:60px; text-align: center;margin-top:35.2%\"">+</div><div id=\""first\"" style=\""position: fixed;visibility: hidden;left:40%;top:48%\""><img src=\""same_diff_imgs/D09.gif\""></div><div id=\""delayed\"" style=\""position: fixed;visibility: hidden;left:48%;top:62%\""><img src=\""same_diff_imgs/D07.gif\""></div>""]","arrowup","categorical_image","same_diff_imgs/D09.gif","same_diff_imgs/D07.gif","no","same","1","true","","","","","","","","","","","","","","","","","","","","","","","","","","","",""
"","","","","","html-keyboard-response","79","108463","0.0-5.0-2.18","A1JJYY622DGE5L","2022-05-24T10:14:36.461Z","same_different-rhyme-task_switching-phon_sim","","null",""," ","null","","","","","","","","","","","","","","","","","","","","","","","","","","","","","","","","","","",""
"","","","","","html-keyboard-response","80","108770","0.0-5.0-3.18","A1JJYY622DGE5L","2022-05-24T10:14:36.461Z","same_different-rhyme-task_switching-phon_sim","","null","same_different"," ","null","","","","","","","","","","","","","","","","","","","","","","","","","","","","","","","","","","",""
"","","","","","html-keyboard-response","81","109531","0.0-5.0-0.19","A1JJYY622DGE5L","2022-05-24T10:14:36.461Z","same_different-rhyme-task_switching-phon_sim","","null","same_different","<div style=""font-size:60px"">+</div>","null","","","","","","","","","","","","","","","","","","","","","","","","","","","","","","","","","","",""
"","","","","","html-keyboard-response","82","111037","0.0-5.0-1.19","A1JJYY622DGE5L","2022-05-24T10:14:36.461Z","same_different-rhyme-task_switching-phon_sim","","1499.2999999523163","same_different","[""<img src=\""square.png\"" width=\""100\"" height=\""100\"" style=\""position: fixed;left:39%;top:47%\""><img src=\""square.png\"" width=\""100\"" height=\""100\"" style=\""position: fixed;left:54%;top:47%\""><img src=\""square.png\"" width=\""100\"" height=\""100\"" style=\""position: fixed;left:46.5%;top:32%\""><img src=\""square.png\"" width=\""100\"" height=\""100\"" style=\""position: fixed;left:46.5%;top:61%\""><div style=\""font-size:60px;text-align: center;margin-top:35.2%\"">+</div><div id=\""first\"" style=\""position: fixed;visibility: hidden;left:40%;top:48%\""><img src=\""same_diff_imgs/C09.gif\"" style=\""-webkit-transform: scaleX(-1);transform: scaleX(-1);\""></div><div id=\""delayed\"" style=\""position: fixed;visibility: hidden;left:48%;top:62%\""><img src=\""same_diff_imgs/D11.gif\"" style=\""-webkit-transform: scaleX(-1);transform: scaleX(-1);\""></div>""]","arrowdown","categorical_image","same_diff_imgs/C09.gif","same_diff_imgs/D11.gif","yes","different","","true","1","","","","","","","","","","","","","","","","","","","","","","","","","","",""
"","","","","","html-keyboard-response","83","111044","0.0-5.0-2.19","A1JJYY622DGE5L","2022-05-24T10:14:36.461Z","same_different-rhyme-task_switching-phon_sim","","null",""," ","null","","","","","","","","","","","","","","","","","","","","","","","","","","","","","","","","","","",""
"","","","","","html-keyboard-response","84","111354","0.0-5.0-3.19","A1JJYY622DGE5L","2022-05-24T10:14:36.461Z","same_different-rhyme-task_switching-phon_sim","","null","same_different"," ","null","","","","","","","","","","","","","","","","","","","","","","","","","","","","","","","","","","",""
"","","","","","html-keyboard-response","85","112113","0.0-5.0-0.20","A1JJYY622DGE5L","2022-05-24T10:14:36.461Z","same_different-rhyme-task_switching-phon_sim","","null","same_different","<div style=""font-size:60px"">+</div>","null","","","","","","","","","","","","","","","","","","","","","","","","","","","","","","","","","","",""
"","","","","","html-keyboard-response","86","113514","0.0-5.0-1.20","A1JJYY622DGE5L","2022-05-24T10:14:36.461Z","same_different-rhyme-task_switching-phon_sim","","1395.3999999761581","same_different","[""<img src=\""square.png\"" width=\""100\"" height=\""100\"" style=\""position: fixed;left:39%;top:47%\""><img src=\""square.png\"" width=\""100\"" height=\""100\"" style=\""position: fixed;left:54%;top:47%\""><img src=\""square.png\"" width=\""100\"" height=\""100\"" style=\""position: fixed;left:46.5%;top:32%\""><img src=\""square.png\"" width=\""100\"" height=\""100\"" style=\""position: fixed;left:46.5%;top:61%\""><div style=\""font-size:60px;text-align: center;margin-top:35.2%\"">+</div><div id=\""first\"" style=\""position: fixed;visibility: hidden;left:48%;top:34%\""><img src=\""same_diff_imgs/D11.gif\"" style=\""-webkit-transform: scaleX(-1);transform: scaleX(-1);\""></div><div id=\""delayed\"" style=\""position: fixed;visibility: hidden;left:48%;top:62%\""><img src=\""same_diff_imgs/D07.gif\"" style=\""-webkit-transform: scaleX(-1);transform: scaleX(-1);\""></div>""]","arrowup","categorical_image","same_diff_imgs/D11.gif","same_diff_imgs/D07.gif","yes","same","1","true","","","","","","","","","","","","","","","","","","","","","","","","","","","",""
"","","","","","html-keyboard-response","87","113523","0.0-5.0-2.20","A1JJYY622DGE5L","2022-05-24T10:14:36.461Z","same_different-rhyme-task_switching-phon_sim","","null",""," ","null","","","","","","","","","","","","","","","","","","","","","","","","","","","","","","","","","","",""
"","","","","","html-keyboard-response","88","113837","0.0-5.0-3.20","A1JJYY622DGE5L","2022-05-24T10:14:36.461Z","same_different-rhyme-task_switching-phon_sim","","null","same_different"," ","null","","","","","","","","","","","","","","","","","","","","","","","","","","","","","","","","","","",""
"","","","","","html-keyboard-response","89","114591","0.0-5.0-0.21","A1JJYY622DGE5L","2022-05-24T10:14:36.461Z","same_different-rhyme-task_switching-phon_sim","","null","same_different","<div style=""font-size:60px"">+</div>","null","","","","","","","","","","","","","","","","","","","","","","","","","","","","","","","","","","",""
"","","","","","html-keyboard-response","90","115994","0.0-5.0-1.21","A1JJYY622DGE5L","2022-05-24T10:14:36.461Z","same_different-rhyme-task_switching-phon_sim","","1396.1000000238419","same_different","[""<img src=\""square.png\"" width=\""100\"" height=\""100\"" style=\""position: fixed;left:39%;top:47%\""><img src=\""square.png\"" width=\""100\"" height=\""100\"" style=\""position: fixed;left:54%;top:47%\""><img src=\""square.png\"" width=\""100\"" height=\""100\"" style=\""position: fixed;left:46.5%;top:32%\""><img src=\""square.png\"" width=\""100\"" height=\""100\"" style=\""position: fixed;left:46.5%;top:61%\""><div style=\""font-size:60px;text-align: center;margin-top:35.2%\"">+</div><div id=\""first\"" style=\""position: fixed;visibility: hidden;left:48%;top:62%\""><img src=\""same_diff_imgs/D09.gif\"" style=\""-webkit-transform: scaleX(-1);transform: scaleX(-1);\""></div><div id=\""delayed\"" style=\""position: fixed;visibility: hidden;left:55%;top:49%\""><img src=\""same_diff_imgs/D11.gif\"" style=\""-webkit-transform: scaleX(-1);transform: scaleX(-1);\""></div>""]","arrowup","categorical_image","same_diff_imgs/D09.gif","same_diff_imgs/D11.gif","yes","same","1","true","","","","","","","","","","","","","","","","","","","","","","","","","","","",""
"","","","","","html-keyboard-response","91","115999","0.0-5.0-2.21","A1JJYY622DGE5L","2022-05-24T10:14:36.461Z","same_different-rhyme-task_switching-phon_sim","","null",""," ","null","","","","","","","","","","","","","","","","","","","","","","","","","","","","","","","","","","",""
"","","","","","html-keyboard-response","92","116303","0.0-5.0-3.21","A1JJYY622DGE5L","2022-05-24T10:14:36.461Z","same_different-rhyme-task_switching-phon_sim","","null","same_different"," ","null","","","","","","","","","","","","","","","","","","","","","","","","","","","","","","","","","","",""
"","","","","","html-keyboard-response","93","117067","0.0-5.0-0.22","A1JJYY622DGE5L","2022-05-24T10:14:36.461Z","same_different-rhyme-task_switching-phon_sim","","null","same_different","<div style=""font-size:60px"">+</div>","null","","","","","","","","","","","","","","","","","","","","","","","","","","","","","","","","","","",""
"","","","","","html-keyboard-response","94","118429","0.0-5.0-1.22","A1JJYY622DGE5L","2022-05-24T10:14:36.461Z","same_different-rhyme-task_switching-phon_sim","","1356.6000000238419","same_different","[""<img src=\""square.png\"" width=\""100\"" height=\""100\"" style=\""position: fixed;left:39%;top:47%\""><img src=\""square.png\"" width=\""100\"" height=\""100\"" style=\""position: fixed;left:54%;top:47%\""><img src=\""square.png\"" width=\""100\"" height=\""100\"" style=\""position: fixed;left:46.5%;top:32%\""><img src=\""square.png\"" width=\""100\"" height=\""100\"" style=\""position: fixed;left:46.5%;top:61%\""><div style=\""font-size:60px; text-align: center;margin-top:35.2%\"">+</div><div id=\""first\"" style=\""position: fixed;visibility: hidden;left:55%;top:49%\""><img src=\""same_diff_imgs/D09.gif\""></div><div id=\""delayed\"" style=\""position: fixed;visibility: hidden;left:48%;top:34%\""><img src=\""same_diff_imgs/D09.gif\""></div>""]","arrowup","categorical_image","same_diff_imgs/D09.gif","same_diff_imgs/D09.gif","no","same","1","true","","","","","","","","","","","","","","","","","","","","","","","","","","","",""
"","","","","","html-keyboard-response","95","118433","0.0-5.0-2.22","A1JJYY622DGE5L","2022-05-24T10:14:36.461Z","same_different-rhyme-task_switching-phon_sim","","null",""," ","null","","","","","","","","","","","","","","","","","","","","","","","","","","","","","","","","","","",""
"","","","","","html-keyboard-response","96","118751","0.0-5.0-3.22","A1JJYY622DGE5L","2022-05-24T10:14:36.461Z","same_different-rhyme-task_switching-phon_sim","","null","same_different"," ","null","","","","","","","","","","","","","","","","","","","","","","","","","","","","","","","","","","",""
"","","","","","html-keyboard-response","97","119512","0.0-5.0-0.23","A1JJYY622DGE5L","2022-05-24T10:14:36.461Z","same_different-rhyme-task_switching-phon_sim","","null","same_different","<div style=""font-size:60px"">+</div>","null","","","","","","","","","","","","","","","","","","","","","","","","","","","","","","","","","","",""
"","","","","","html-keyboard-response","98","120938","0.0-5.0-1.23","A1JJYY622DGE5L","2022-05-24T10:14:36.461Z","same_different-rhyme-task_switching-phon_sim","","1420.7999999523163","same_different","[""<img src=\""square.png\"" width=\""100\"" height=\""100\"" style=\""position: fixed;left:39%;top:47%\""><img src=\""square.png\"" width=\""100\"" height=\""100\"" style=\""position: fixed;left:54%;top:47%\""><img src=\""square.png\"" width=\""100\"" height=\""100\"" style=\""position: fixed;left:46.5%;top:32%\""><img src=\""square.png\"" width=\""100\"" height=\""100\"" style=\""position: fixed;left:46.5%;top:61%\""><div style=\""font-size:60px;text-align: center;margin-top:35.2%\"">+</div><div id=\""first\"" style=\""position: fixed;visibility: hidden;left:40%;top:48%\""><img src=\""same_diff_imgs/D11.gif\"" style=\""-webkit-transform: scaleX(-1);transform: scaleX(-1);\""></div><div id=\""delayed\"" style=\""position: fixed;visibility: hidden;left:48%;top:34%\""><img src=\""same_diff_imgs/C14.gif\"" style=\""-webkit-transform: scaleX(-1);transform: scaleX(-1);\""></div>""]","arrowdown","categorical_image","same_diff_imgs/D11.gif","same_diff_imgs/C14.gif","yes","different","","true","1","","","","","","","","","","","","","","","","","","","","","","","","","","",""
"","","","","","html-keyboard-response","99","120943","0.0-5.0-2.23","A1JJYY622DGE5L","2022-05-24T10:14:36.461Z","same_different-rhyme-task_switching-phon_sim","","null",""," ","null","","","","","","","","","","","","","","","","","","","","","","","","","","","","","","","","","","",""
"","","","","","html-keyboard-response","100","121252","0.0-5.0-3.23","A1JJYY622DGE5L","2022-05-24T10:14:36.461Z","same_different-rhyme-task_switching-phon_sim","","null","same_different"," ","null","","","","","","","","","","","","","","","","","","","","","","","","","","","","","","","","","","",""
"","","","","","html-keyboard-response","101","122016","0.0-5.0-0.24","A1JJYY622DGE5L","2022-05-24T10:14:36.461Z","same_different-rhyme-task_switching-phon_sim","","null","same_different","<div style=""font-size:60px"">+</div>","null","","","","","","","","","","","","","","","","","","","","","","","","","","","","","","","","","","",""
"","","","","","html-keyboard-response","102","123576","0.0-5.0-1.24","A1JJYY622DGE5L","2022-05-24T10:14:36.461Z","same_different-rhyme-task_switching-phon_sim","","1554.2000000476837","same_different","[""<img src=\""square.png\"" width=\""100\"" height=\""100\"" style=\""position: fixed;left:39%;top:47%\""><img src=\""square.png\"" width=\""100\"" height=\""100\"" style=\""position: fixed;left:54%;top:47%\""><img src=\""square.png\"" width=\""100\"" height=\""100\"" style=\""position: fixed;left:46.5%;top:32%\""><img src=\""square.png\"" width=\""100\"" height=\""100\"" style=\""position: fixed;left:46.5%;top:61%\""><div style=\""font-size:60px; text-align: center;margin-top:35.2%\"">+</div><div id=\""first\"" style=\""position: fixed;visibility: hidden;left:48%;top:62%\""><img src=\""same_diff_imgs/C14.gif\""></div><div id=\""delayed\"" style=\""position: fixed;visibility: hidden;left:40%;top:48%\""><img src=\""same_diff_imgs/D09.gif\""></div>""]","arrowup","categorical_image","same_diff_imgs/C14.gif","same_diff_imgs/D09.gif","no","different","","false","","","1","","","","","","","","","","","","","","","","","","","","","","","","",""
"","","","","","html-keyboard-response","103","124090","0.0-5.0-2.24","A1JJYY622DGE5L","2022-05-24T10:14:36.461Z","same_different-rhyme-task_switching-phon_sim","","null","","<div style=""color:darkred; font-size:40px"">Incorrect!</div>","null","","","","","","","","","","","","","","","","","","","","","","","","","","","","","","","","","","",""
"","","","","","html-keyboard-response","104","124402","0.0-5.0-3.24","A1JJYY622DGE5L","2022-05-24T10:14:36.461Z","same_different-rhyme-task_switching-phon_sim","","null","same_different"," ","null","","","","","","","","","","","","","","","","","","","","","","","","","","","","","","","","","","",""
"","","","","","html-keyboard-response","105","125163","0.0-5.0-0.25","A1JJYY622DGE5L","2022-05-24T10:14:36.461Z","same_different-rhyme-task_switching-phon_sim","","null","same_different","<div style=""font-size:60px"">+</div>","null","","","","","","","","","","","","","","","","","","","","","","","","","","","","","","","","","","",""
"","","","","","html-keyboard-response","106","126594","0.0-5.0-1.25","A1JJYY622DGE5L","2022-05-24T10:14:36.461Z","same_different-rhyme-task_switching-phon_sim","","1422.6000000238419","same_different","[""<img src=\""square.png\"" width=\""100\"" height=\""100\"" style=\""position: fixed;left:39%;top:47%\""><img src=\""square.png\"" width=\""100\"" height=\""100\"" style=\""position: fixed;left:54%;top:47%\""><img src=\""square.png\"" width=\""100\"" height=\""100\"" style=\""position: fixed;left:46.5%;top:32%\""><img src=\""square.png\"" width=\""100\"" height=\""100\"" style=\""position: fixed;left:46.5%;top:61%\""><div style=\""font-size:60px;text-align: center;margin-top:35.2%\"">+</div><div id=\""first\"" style=\""position: fixed;visibility: hidden;left:48%;top:34%\""><img src=\""same_diff_imgs/D07.gif\"" style=\""-webkit-transform: scaleX(-1);transform: scaleX(-1);\""></div><div id=\""delayed\"" style=\""position: fixed;visibility: hidden;left:48%;top:62%\""><img src=\""same_diff_imgs/D11.gif\"" style=\""-webkit-transform: scaleX(-1);transform: scaleX(-1);\""></div>""]","arrowup","categorical_image","same_diff_imgs/D07.gif","same_diff_imgs/D11.gif","yes","same","1","true","","","","","","","","","","","","","","","","","","","","","","","","","","","",""
"","","","","","html-keyboard-response","107","126598","0.0-5.0-2.25","A1JJYY622DGE5L","2022-05-24T10:14:36.461Z","same_different-rhyme-task_switching-phon_sim","","null",""," ","null","","","","","","","","","","","","","","","","","","","","","","","","","","","","","","","","","","",""
"","","","","","html-keyboard-response","108","126912","0.0-5.0-3.25","A1JJYY622DGE5L","2022-05-24T10:14:36.461Z","same_different-rhyme-task_switching-phon_sim","","null","same_different"," ","null","","","","","","","","","","","","","","","","","","","","","","","","","","","","","","","","","","",""
"","","","","","html-keyboard-response","109","127670","0.0-5.0-0.26","A1JJYY622DGE5L","2022-05-24T10:14:36.461Z","same_different-rhyme-task_switching-phon_sim","","null","same_different","<div style=""font-size:60px"">+</div>","null","","","","","","","","","","","","","","","","","","","","","","","","","","","","","","","","","","",""
"","","","","","html-keyboard-response","110","129164","0.0-5.0-1.26","A1JJYY622DGE5L","2022-05-24T10:14:36.461Z","same_different-rhyme-task_switching-phon_sim","","1491.1000000238419","same_different","[""<img src=\""square.png\"" width=\""100\"" height=\""100\"" style=\""position: fixed;left:39%;top:47%\""><img src=\""square.png\"" width=\""100\"" height=\""100\"" style=\""position: fixed;left:54%;top:47%\""><img src=\""square.png\"" width=\""100\"" height=\""100\"" style=\""position: fixed;left:46.5%;top:32%\""><img src=\""square.png\"" width=\""100\"" height=\""100\"" style=\""position: fixed;left:46.5%;top:61%\""><div style=\""font-size:60px; text-align: center;margin-top:35.2%\"">+</div><div id=\""first\"" style=\""position: fixed;visibility: hidden;left:48%;top:62%\""><img src=\""same_diff_imgs/D07.gif\""></div><div id=\""delayed\"" style=\""position: fixed;visibility: hidden;left:55%;top:49%\""><img src=\""same_diff_imgs/C09.gif\""></div>""]","arrowdown","categorical_image","same_diff_imgs/D07.gif","same_diff_imgs/C09.gif","no","different","","true","1","","","","","","","","","","","","","","","","","","","","","","","","","","",""
"","","","","","html-keyboard-response","111","129170","0.0-5.0-2.26","A1JJYY622DGE5L","2022-05-24T10:14:36.461Z","same_different-rhyme-task_switching-phon_sim","","null",""," ","null","","","","","","","","","","","","","","","","","","","","","","","","","","","","","","","","","","",""
"","","","","","html-keyboard-response","112","129487","0.0-5.0-3.26","A1JJYY622DGE5L","2022-05-24T10:14:36.461Z","same_different-rhyme-task_switching-phon_sim","","null","same_different"," ","null","","","","","","","","","","","","","","","","","","","","","","","","","","","","","","","","","","",""
"","","","","","html-keyboard-response","113","130243","0.0-5.0-0.27","A1JJYY622DGE5L","2022-05-24T10:14:36.461Z","same_different-rhyme-task_switching-phon_sim","","null","same_different","<div style=""font-size:60px"">+</div>","null","","","","","","","","","","","","","","","","","","","","","","","","","","","","","","","","","","",""
"","","","","","html-keyboard-response","114","131655","0.0-5.0-1.27","A1JJYY622DGE5L","2022-05-24T10:14:36.461Z","same_different-rhyme-task_switching-phon_sim","","1405.5","same_different","[""<img src=\""square.png\"" width=\""100\"" height=\""100\"" style=\""position: fixed;left:39%;top:47%\""><img src=\""square.png\"" width=\""100\"" height=\""100\"" style=\""position: fixed;left:54%;top:47%\""><img src=\""square.png\"" width=\""100\"" height=\""100\"" style=\""position: fixed;left:46.5%;top:32%\""><img src=\""square.png\"" width=\""100\"" height=\""100\"" style=\""position: fixed;left:46.5%;top:61%\""><div style=\""font-size:60px; text-align: center;margin-top:35.2%\"">+</div><div id=\""first\"" style=\""position: fixed;visibility: hidden;left:55%;top:49%\""><img src=\""same_diff_imgs/C14.gif\""></div><div id=\""delayed\"" style=\""position: fixed;visibility: hidden;left:48%;top:34%\""><img src=\""same_diff_imgs/C14.gif\""></div>""]","arrowup","categorical_image","same_diff_imgs/C14.gif","same_diff_imgs/C14.gif","no","same","1","true","","","","","","","","","","","","","","","","","","","","","","","","","","","",""
"","","","","","html-keyboard-response","115","131660","0.0-5.0-2.27","A1JJYY622DGE5L","2022-05-24T10:14:36.461Z","same_different-rhyme-task_switching-phon_sim","","null",""," ","null","","","","","","","","","","","","","","","","","","","","","","","","","","","","","","","","","","",""
"","","","","","html-keyboard-response","116","131961","0.0-5.0-3.27","A1JJYY622DGE5L","2022-05-24T10:14:36.461Z","same_different-rhyme-task_switching-phon_sim","","null","same_different"," ","null","","","","","","","","","","","","","","","","","","","","","","","","","","","","","","","","","","",""
"","","","","","html-keyboard-response","117","132720","0.0-5.0-0.28","A1JJYY622DGE5L","2022-05-24T10:14:36.461Z","same_different-rhyme-task_switching-phon_sim","","null","same_different","<div style=""font-size:60px"">+</div>","null","","","","","","","","","","","","","","","","","","","","","","","","","","","","","","","","","","",""
"","","","","","html-keyboard-response","118","134339","0.0-5.0-1.28","A1JJYY622DGE5L","2022-05-24T10:14:36.461Z","same_different-rhyme-task_switching-phon_sim","","1611.1999999284744","same_different","[""<img src=\""square.png\"" width=\""100\"" height=\""100\"" style=\""position: fixed;left:39%;top:47%\""><img src=\""square.png\"" width=\""100\"" height=\""100\"" style=\""position: fixed;left:54%;top:47%\""><img src=\""square.png\"" width=\""100\"" height=\""100\"" style=\""position: fixed;left:46.5%;top:32%\""><img src=\""square.png\"" width=\""100\"" height=\""100\"" style=\""position: fixed;left:46.5%;top:61%\""><div style=\""font-size:60px; text-align: center;margin-top:35.2%\"">+</div><div id=\""first\"" style=\""position: fixed;visibility: hidden;left:48%;top:34%\""><img src=\""same_diff_imgs/D11.gif\""></div><div id=\""delayed\"" style=\""position: fixed;visibility: hidden;left:55%;top:49%\""><img src=\""same_diff_imgs/C04.gif\""></div>""]","arrowup","categorical_image","same_diff_imgs/D11.gif","same_diff_imgs/C04.gif","no","different","","false","","","1","","","","","","","","","","","","","","","","","","","","","","","","",""
"","","","","","html-keyboard-response","119","134857","0.0-5.0-2.28","A1JJYY622DGE5L","2022-05-24T10:14:36.461Z","same_different-rhyme-task_switching-phon_sim","","null","","<div style=""color:darkred; font-size:40px"">Incorrect!</div>","null","","","","","","","","","","","","","","","","","","","","","","","","","","","","","","","","","","",""
"","","","","","html-keyboard-response","120","135171","0.0-5.0-3.28","A1JJYY622DGE5L","2022-05-24T10:14:36.461Z","same_different-rhyme-task_switching-phon_sim","","null","same_different"," ","null","","","","","","","","","","","","","","","","","","","","","","","","","","","","","","","","","","",""
"","","","","","html-keyboard-response","121","135924","0.0-5.0-0.29","A1JJYY622DGE5L","2022-05-24T10:14:36.461Z","same_different-rhyme-task_switching-phon_sim","","null","same_different","<div style=""font-size:60px"">+</div>","null","","","","","","","","","","","","","","","","","","","","","","","","","","","","","","","","","","",""
"","","","","","html-keyboard-response","122","137736","0.0-5.0-1.29","A1JJYY622DGE5L","2022-05-24T10:14:36.461Z","same_different-rhyme-task_switching-phon_sim","","1805.6000000238419","same_different","[""<img src=\""square.png\"" width=\""100\"" height=\""100\"" style=\""position: fixed;left:39%;top:47%\""><img src=\""square.png\"" width=\""100\"" height=\""100\"" style=\""position: fixed;left:54%;top:47%\""><img src=\""square.png\"" width=\""100\"" height=\""100\"" style=\""position: fixed;left:46.5%;top:32%\""><img src=\""square.png\"" width=\""100\"" height=\""100\"" style=\""position: fixed;left:46.5%;top:61%\""><div style=\""font-size:60px;text-align: center;margin-top:35.2%\"">+</div><div id=\""first\"" style=\""position: fixed;visibility: hidden;left:48%;top:34%\""><img src=\""same_diff_imgs/C04.gif\"" style=\""-webkit-transform: scaleX(-1);transform: scaleX(-1);\""></div><div id=\""delayed\"" style=\""position: fixed;visibility: hidden;left:55%;top:49%\""><img src=\""same_diff_imgs/C09.gif\"" style=\""-webkit-transform: scaleX(-1);transform: scaleX(-1);\""></div>""]","arrowup","categorical_image","same_diff_imgs/C04.gif","same_diff_imgs/C09.gif","yes","same","1","true","","","","","","","","","","","","","","","","","","","","","","","","","","","",""
"","","","","","html-keyboard-response","123","137740","0.0-5.0-2.29","A1JJYY622DGE5L","2022-05-24T10:14:36.461Z","same_different-rhyme-task_switching-phon_sim","","null",""," ","null","","","","","","","","","","","","","","","","","","","","","","","","","","","","","","","","","","",""
"","","","","","html-keyboard-response","124","138044","0.0-5.0-3.29","A1JJYY622DGE5L","2022-05-24T10:14:36.461Z","same_different-rhyme-task_switching-phon_sim","","null","same_different"," ","null","","","","","","","","","","","","","","","","","","","","","","","","","","","","","","","","","","",""
"","","","","","html-keyboard-response","125","138804","0.0-5.0-0.30","A1JJYY622DGE5L","2022-05-24T10:14:36.461Z","same_different-rhyme-task_switching-phon_sim","","null","same_different","<div style=""font-size:60px"">+</div>","null","","","","","","","","","","","","","","","","","","","","","","","","","","","","","","","","","","",""
"","","","","","html-keyboard-response","126","140366","0.0-5.0-1.30","A1JJYY622DGE5L","2022-05-24T10:14:36.461Z","same_different-rhyme-task_switching-phon_sim","","1555.2999999523163","same_different","[""<img src=\""square.png\"" width=\""100\"" height=\""100\"" style=\""position: fixed;left:39%;top:47%\""><img src=\""square.png\"" width=\""100\"" height=\""100\"" style=\""position: fixed;left:54%;top:47%\""><img src=\""square.png\"" width=\""100\"" height=\""100\"" style=\""position: fixed;left:46.5%;top:32%\""><img src=\""square.png\"" width=\""100\"" height=\""100\"" style=\""position: fixed;left:46.5%;top:61%\""><div style=\""font-size:60px;text-align: center;margin-top:35.2%\"">+</div><div id=\""first\"" style=\""position: fixed;visibility: hidden;left:40%;top:48%\""><img src=\""same_diff_imgs/D07.gif\"" style=\""-webkit-transform: scaleX(-1);transform: scaleX(-1);\""></div><div id=\""delayed\"" style=\""position: fixed;visibility: hidden;left:48%;top:34%\""><img src=\""same_diff_imgs/C14.gif\"" style=\""-webkit-transform: scaleX(-1);transform: scaleX(-1);\""></div>""]","arrowdown","categorical_image","same_diff_imgs/D07.gif","same_diff_imgs/C14.gif","yes","different","","true","1","","","","","","","","","","","","","","","","","","","","","","","","","","",""
"","","","","","html-keyboard-response","127","140372","0.0-5.0-2.30","A1JJYY622DGE5L","2022-05-24T10:14:36.461Z","same_different-rhyme-task_switching-phon_sim","","null",""," ","null","","","","","","","","","","","","","","","","","","","","","","","","","","","","","","","","","","",""
"","","","","","html-keyboard-response","128","140684","0.0-5.0-3.30","A1JJYY622DGE5L","2022-05-24T10:14:36.461Z","same_different-rhyme-task_switching-phon_sim","","null","same_different"," ","null","","","","","","","","","","","","","","","","","","","","","","","","","","","","","","","","","","",""
"","","","","","html-keyboard-response","129","141446","0.0-5.0-0.31","A1JJYY622DGE5L","2022-05-24T10:14:36.461Z","same_different-rhyme-task_switching-phon_sim","","null","same_different","<div style=""font-size:60px"">+</div>","null","","","","","","","","","","","","","","","","","","","","","","","","","","","","","","","","","","",""
"","","","","","html-keyboard-response","130","142891","0.0-5.0-1.31","A1JJYY622DGE5L","2022-05-24T10:14:36.461Z","same_different-rhyme-task_switching-phon_sim","","1438.3999999761581","same_different","[""<img src=\""square.png\"" width=\""100\"" height=\""100\"" style=\""position: fixed;left:39%;top:47%\""><img src=\""square.png\"" width=\""100\"" height=\""100\"" style=\""position: fixed;left:54%;top:47%\""><img src=\""square.png\"" width=\""100\"" height=\""100\"" style=\""position: fixed;left:46.5%;top:32%\""><img src=\""square.png\"" width=\""100\"" height=\""100\"" style=\""position: fixed;left:46.5%;top:61%\""><div style=\""font-size:60px; text-align: center;margin-top:35.2%\"">+</div><div id=\""first\"" style=\""position: fixed;visibility: hidden;left:55%;top:49%\""><img src=\""same_diff_imgs/C14.gif\""></div><div id=\""delayed\"" style=\""position: fixed;visibility: hidden;left:40%;top:48%\""><img src=\""same_diff_imgs/C04.gif\""></div>""]","arrowup","categorical_image","same_diff_imgs/C14.gif","same_diff_imgs/C04.gif","no","same","1","true","","","","","","","","","","","","","","","","","","","","","","","","","","","",""
"","","","","","html-keyboard-response","131","142895","0.0-5.0-2.31","A1JJYY622DGE5L","2022-05-24T10:14:36.461Z","same_different-rhyme-task_switching-phon_sim","","null",""," ","null","","","","","","","","","","","","","","","","","","","","","","","","","","","","","","","","","","",""
"","","","","","html-keyboard-response","132","143202","0.0-5.0-3.31","A1JJYY622DGE5L","2022-05-24T10:14:36.461Z","same_different-rhyme-task_switching-phon_sim","","null","same_different"," ","null","","","","","","","","","","","","","","","","","","","","","","","","","","","","","","","","","","",""
"","","","","","html-keyboard-response","133","143962","0.0-5.0-0.32","A1JJYY622DGE5L","2022-05-24T10:14:36.461Z","same_different-rhyme-task_switching-phon_sim","","null","same_different","<div style=""font-size:60px"">+</div>","null","","","","","","","","","","","","","","","","","","","","","","","","","","","","","","","","","","",""
"","","","","","html-keyboard-response","134","145500","0.0-5.0-1.32","A1JJYY622DGE5L","2022-05-24T10:14:36.461Z","same_different-rhyme-task_switching-phon_sim","","1531.2999999523163","same_different","[""<img src=\""square.png\"" width=\""100\"" height=\""100\"" style=\""position: fixed;left:39%;top:47%\""><img src=\""square.png\"" width=\""100\"" height=\""100\"" style=\""position: fixed;left:54%;top:47%\""><img src=\""square.png\"" width=\""100\"" height=\""100\"" style=\""position: fixed;left:46.5%;top:32%\""><img src=\""square.png\"" width=\""100\"" height=\""100\"" style=\""position: fixed;left:46.5%;top:61%\""><div style=\""font-size:60px; text-align: center;margin-top:35.2%\"">+</div><div id=\""first\"" style=\""position: fixed;visibility: hidden;left:40%;top:48%\""><img src=\""same_diff_imgs/D11.gif\""></div><div id=\""delayed\"" style=\""position: fixed;visibility: hidden;left:55%;top:49%\""><img src=\""same_diff_imgs/D11.gif\""></div>""]","arrowup","categorical_image","same_diff_imgs/D11.gif","same_diff_imgs/D11.gif","no","same","1","true","","","","","","","","","","","","","","","","","","","","","","","","","","","",""
"","","","","","html-keyboard-response","135","145505","0.0-5.0-2.32","A1JJYY622DGE5L","2022-05-24T10:14:36.461Z","same_different-rhyme-task_switching-phon_sim","","null",""," ","null","","","","","","","","","","","","","","","","","","","","","","","","","","","","","","","","","","",""
"","","","","","html-keyboard-response","136","145820","0.0-5.0-3.32","A1JJYY622DGE5L","2022-05-24T10:14:36.461Z","same_different-rhyme-task_switching-phon_sim","","null","same_different"," ","null","","","","","","","","","","","","","","","","","","","","","","","","","","","","","","","","","","",""
"","","","","","html-keyboard-response","137","146581","0.0-5.0-0.33","A1JJYY622DGE5L","2022-05-24T10:14:36.461Z","same_different-rhyme-task_switching-phon_sim","","null","same_different","<div style=""font-size:60px"">+</div>","null","","","","","","","","","","","","","","","","","","","","","","","","","","","","","","","","","","",""
"","","","","","html-keyboard-response","138","148286","0.0-5.0-1.33","A1JJYY622DGE5L","2022-05-24T10:14:36.461Z","same_different-rhyme-task_switching-phon_sim","","1697.6000000238419","same_different","[""<img src=\""square.png\"" width=\""100\"" height=\""100\"" style=\""position: fixed;left:39%;top:47%\""><img src=\""square.png\"" width=\""100\"" height=\""100\"" style=\""position: fixed;left:54%;top:47%\""><img src=\""square.png\"" width=\""100\"" height=\""100\"" style=\""position: fixed;left:46.5%;top:32%\""><img src=\""square.png\"" width=\""100\"" height=\""100\"" style=\""position: fixed;left:46.5%;top:61%\""><div style=\""font-size:60px; text-align: center;margin-top:35.2%\"">+</div><div id=\""first\"" style=\""position: fixed;visibility: hidden;left:48%;top:62%\""><img src=\""same_diff_imgs/C04.gif\""></div><div id=\""delayed\"" style=\""position: fixed;visibility: hidden;left:48%;top:34%\""><img src=\""same_diff_imgs/D07.gif\""></div>""]","arrowdown","categorical_image","same_diff_imgs/C04.gif","same_diff_imgs/D07.gif","no","different","","true","1","","","","","","","","","","","","","","","","","","","","","","","","","","",""
"","","","","","html-keyboard-response","139","148290","0.0-5.0-2.33","A1JJYY622DGE5L","2022-05-24T10:14:36.461Z","same_different-rhyme-task_switching-phon_sim","","null",""," ","null","","","","","","","","","","","","","","","","","","","","","","","","","","","","","","","","","","",""
"","","","","","html-keyboard-response","140","148602","0.0-5.0-3.33","A1JJYY622DGE5L","2022-05-24T10:14:36.461Z","same_different-rhyme-task_switching-phon_sim","","null","same_different"," ","null","","","","","","","","","","","","","","","","","","","","","","","","","","","","","","","","","","",""
"","","","","","html-keyboard-response","141","149362","0.0-5.0-0.34","A1JJYY622DGE5L","2022-05-24T10:14:36.461Z","same_different-rhyme-task_switching-phon_sim","","null","same_different","<div style=""font-size:60px"">+</div>","null","","","","","","","","","","","","","","","","","","","","","","","","","","","","","","","","","","",""
"","","","","","html-keyboard-response","142","150852","0.0-5.0-1.34","A1JJYY622DGE5L","2022-05-24T10:14:36.461Z","same_different-rhyme-task_switching-phon_sim","","1483.4000000953674","same_different","[""<img src=\""square.png\"" width=\""100\"" height=\""100\"" style=\""position: fixed;left:39%;top:47%\""><img src=\""square.png\"" width=\""100\"" height=\""100\"" style=\""position: fixed;left:54%;top:47%\""><img src=\""square.png\"" width=\""100\"" height=\""100\"" style=\""position: fixed;left:46.5%;top:32%\""><img src=\""square.png\"" width=\""100\"" height=\""100\"" style=\""position: fixed;left:46.5%;top:61%\""><div style=\""font-size:60px; text-align: center;margin-top:35.2%\"">+</div><div id=\""first\"" style=\""position: fixed;visibility: hidden;left:40%;top:48%\""><img src=\""same_diff_imgs/D07.gif\""></div><div id=\""delayed\"" style=\""position: fixed;visibility: hidden;left:48%;top:62%\""><img src=\""same_diff_imgs/D11.gif\""></div>""]","arrowup","categorical_image","same_diff_imgs/D07.gif","same_diff_imgs/D11.gif","no","same","1","true","","","","","","","","","","","","","","","","","","","","","","","","","","","",""
"","","","","","html-keyboard-response","143","150856","0.0-5.0-2.34","A1JJYY622DGE5L","2022-05-24T10:14:36.461Z","same_different-rhyme-task_switching-phon_sim","","null",""," ","null","","","","","","","","","","","","","","","","","","","","","","","","","","","","","","","","","","",""
"","","","","","html-keyboard-response","144","151168","0.0-5.0-3.34","A1JJYY622DGE5L","2022-05-24T10:14:36.461Z","same_different-rhyme-task_switching-phon_sim","","null","same_different"," ","null","","","","","","","","","","","","","","","","","","","","","","","","","","","","","","","","","","",""
"","","","","","html-keyboard-response","145","151932","0.0-5.0-0.35","A1JJYY622DGE5L","2022-05-24T10:14:36.461Z","same_different-rhyme-task_switching-phon_sim","","null","same_different","<div style=""font-size:60px"">+</div>","null","","","","","","","","","","","","","","","","","","","","","","","","","","","","","","","","","","",""
"","","","","","html-keyboard-response","146","153383","0.0-5.0-1.35","A1JJYY622DGE5L","2022-05-24T10:14:36.461Z","same_different-rhyme-task_switching-phon_sim","","1443.3999999761581","same_different","[""<img src=\""square.png\"" width=\""100\"" height=\""100\"" style=\""position: fixed;left:39%;top:47%\""><img src=\""square.png\"" width=\""100\"" height=\""100\"" style=\""position: fixed;left:54%;top:47%\""><img src=\""square.png\"" width=\""100\"" height=\""100\"" style=\""position: fixed;left:46.5%;top:32%\""><img src=\""square.png\"" width=\""100\"" height=\""100\"" style=\""position: fixed;left:46.5%;top:61%\""><div style=\""font-size:60px; text-align: center;margin-top:35.2%\"">+</div><div id=\""first\"" style=\""position: fixed;visibility: hidden;left:48%;top:62%\""><img src=\""same_diff_imgs/C04.gif\""></div><div id=\""delayed\"" style=\""position: fixed;visibility: hidden;left:40%;top:48%\""><img src=\""same_diff_imgs/C09.gif\""></div>""]","arrowup","categorical_image","same_diff_imgs/C04.gif","same_diff_imgs/C09.gif","no","same","1","true","","","","","","","","","","","","","","","","","","","","","","","","","","","",""
"","","","","","html-keyboard-response","147","153388","0.0-5.0-2.35","A1JJYY622DGE5L","2022-05-24T10:14:36.461Z","same_different-rhyme-task_switching-phon_sim","","null",""," ","null","","","","","","","","","","","","","","","","","","","","","","","","","","","","","","","","","","",""
"","","","","","html-keyboard-response","148","153701","0.0-5.0-3.35","A1JJYY622DGE5L","2022-05-24T10:14:36.461Z","same_different-rhyme-task_switching-phon_sim","","null","same_different"," ","null","","","","","","","","","","","","","","","","","","","","","","","","","","","","","","","","","","",""
"","","","","","html-keyboard-response","149","154455","0.0-5.0-0.36","A1JJYY622DGE5L","2022-05-24T10:14:36.461Z","same_different-rhyme-task_switching-phon_sim","","null","same_different","<div style=""font-size:60px"">+</div>","null","","","","","","","","","","","","","","","","","","","","","","","","","","","","","","","","","","",""
"","","","","","html-keyboard-response","150","156025","0.0-5.0-1.36","A1JJYY622DGE5L","2022-05-24T10:14:36.461Z","same_different-rhyme-task_switching-phon_sim","","1563.1000000238419","same_different","[""<img src=\""square.png\"" width=\""100\"" height=\""100\"" style=\""position: fixed;left:39%;top:47%\""><img src=\""square.png\"" width=\""100\"" height=\""100\"" style=\""position: fixed;left:54%;top:47%\""><img src=\""square.png\"" width=\""100\"" height=\""100\"" style=\""position: fixed;left:46.5%;top:32%\""><img src=\""square.png\"" width=\""100\"" height=\""100\"" style=\""position: fixed;left:46.5%;top:61%\""><div style=\""font-size:60px;text-align: center;margin-top:35.2%\"">+</div><div id=\""first\"" style=\""position: fixed;visibility: hidden;left:40%;top:48%\""><img src=\""same_diff_imgs/C04.gif\"" style=\""-webkit-transform: scaleX(-1);transform: scaleX(-1);\""></div><div id=\""delayed\"" style=\""position: fixed;visibility: hidden;left:48%;top:34%\""><img src=\""same_diff_imgs/D09.gif\"" style=\""-webkit-transform: scaleX(-1);transform: scaleX(-1);\""></div>""]","arrowdown","categorical_image","same_diff_imgs/C04.gif","same_diff_imgs/D09.gif","yes","different","","true","1","","","","","","","","","","","","","","","","","","","","","","","","","","",""
"","","","","","html-keyboard-response","151","156033","0.0-5.0-2.36","A1JJYY622DGE5L","2022-05-24T10:14:36.461Z","same_different-rhyme-task_switching-phon_sim","","null",""," ","null","","","","","","","","","","","","","","","","","","","","","","","","","","","","","","","","","","",""
"","","","","","html-keyboard-response","152","156344","0.0-5.0-3.36","A1JJYY622DGE5L","2022-05-24T10:14:36.461Z","same_different-rhyme-task_switching-phon_sim","","null","same_different"," ","null","","","","","","","","","","","","","","","","","","","","","","","","","","","","","","","","","","",""
"","","","","","html-keyboard-response","153","157106","0.0-5.0-0.37","A1JJYY622DGE5L","2022-05-24T10:14:36.461Z","same_different-rhyme-task_switching-phon_sim","","null","same_different","<div style=""font-size:60px"">+</div>","null","","","","","","","","","","","","","","","","","","","","","","","","","","","","","","","","","","",""
"","","","","","html-keyboard-response","154","158852","0.0-5.0-1.37","A1JJYY622DGE5L","2022-05-24T10:14:36.461Z","same_different-rhyme-task_switching-phon_sim","","1740.2999999523163","same_different","[""<img src=\""square.png\"" width=\""100\"" height=\""100\"" style=\""position: fixed;left:39%;top:47%\""><img src=\""square.png\"" width=\""100\"" height=\""100\"" style=\""position: fixed;left:54%;top:47%\""><img src=\""square.png\"" width=\""100\"" height=\""100\"" style=\""position: fixed;left:46.5%;top:32%\""><img src=\""square.png\"" width=\""100\"" height=\""100\"" style=\""position: fixed;left:46.5%;top:61%\""><div style=\""font-size:60px;text-align: center;margin-top:35.2%\"">+</div><div id=\""first\"" style=\""position: fixed;visibility: hidden;left:48%;top:62%\""><img src=\""same_diff_imgs/D09.gif\"" style=\""-webkit-transform: scaleX(-1);transform: scaleX(-1);\""></div><div id=\""delayed\"" style=\""position: fixed;visibility: hidden;left:48%;top:34%\""><img src=\""same_diff_imgs/C04.gif\"" style=\""-webkit-transform: scaleX(-1);transform: scaleX(-1);\""></div>""]","arrowdown","categorical_image","same_diff_imgs/D09.gif","same_diff_imgs/C04.gif","yes","different","","true","1","","","","","","","","","","","","","","","","","","","","","","","","","","",""
"","","","","","html-keyboard-response","155","158856","0.0-5.0-2.37","A1JJYY622DGE5L","2022-05-24T10:14:36.461Z","same_different-rhyme-task_switching-phon_sim","","null",""," ","null","","","","","","","","","","","","","","","","","","","","","","","","","","","","","","","","","","",""
"","","","","","html-keyboard-response","156","159168","0.0-5.0-3.37","A1JJYY622DGE5L","2022-05-24T10:14:36.461Z","same_different-rhyme-task_switching-phon_sim","","null","same_different"," ","null","","","","","","","","","","","","","","","","","","","","","","","","","","","","","","","","","","",""
"","","","","","html-keyboard-response","157","159928","0.0-5.0-0.38","A1JJYY622DGE5L","2022-05-24T10:14:36.461Z","same_different-rhyme-task_switching-phon_sim","","null","same_different","<div style=""font-size:60px"">+</div>","null","","","","","","","","","","","","","","","","","","","","","","","","","","","","","","","","","","",""
"","","","","","html-keyboard-response","158","161363","0.0-5.0-1.38","A1JJYY622DGE5L","2022-05-24T10:14:36.461Z","same_different-rhyme-task_switching-phon_sim","","1429","same_different","[""<img src=\""square.png\"" width=\""100\"" height=\""100\"" style=\""position: fixed;left:39%;top:47%\""><img src=\""square.png\"" width=\""100\"" height=\""100\"" style=\""position: fixed;left:54%;top:47%\""><img src=\""square.png\"" width=\""100\"" height=\""100\"" style=\""position: fixed;left:46.5%;top:32%\""><img src=\""square.png\"" width=\""100\"" height=\""100\"" style=\""position: fixed;left:46.5%;top:61%\""><div style=\""font-size:60px; text-align: center;margin-top:35.2%\"">+</div><div id=\""first\"" style=\""position: fixed;visibility: hidden;left:48%;top:62%\""><img src=\""same_diff_imgs/C09.gif\""></div><div id=\""delayed\"" style=\""position: fixed;visibility: hidden;left:48%;top:34%\""><img src=\""same_diff_imgs/C09.gif\""></div>""]","arrowup","categorical_image","same_diff_imgs/C09.gif","same_diff_imgs/C09.gif","no","same","1","true","","","","","","","","","","","","","","","","","","","","","","","","","","","",""
"","","","","","html-keyboard-response","159","161369","0.0-5.0-2.38","A1JJYY622DGE5L","2022-05-24T10:14:36.461Z","same_different-rhyme-task_switching-phon_sim","","null",""," ","null","","","","","","","","","","","","","","","","","","","","","","","","","","","","","","","","","","",""
"","","","","","html-keyboard-response","160","161679","0.0-5.0-3.38","A1JJYY622DGE5L","2022-05-24T10:14:36.461Z","same_different-rhyme-task_switching-phon_sim","","null","same_different"," ","null","","","","","","","","","","","","","","","","","","","","","","","","","","","","","","","","","","",""
"","","","","","html-keyboard-response","161","162433","0.0-5.0-0.39","A1JJYY622DGE5L","2022-05-24T10:14:36.461Z","same_different-rhyme-task_switching-phon_sim","","null","same_different","<div style=""font-size:60px"">+</div>","null","","","","","","","","","","","","","","","","","","","","","","","","","","","","","","","","","","",""
"","","","","","html-keyboard-response","162","164344","0.0-5.0-1.39","A1JJYY622DGE5L","2022-05-24T10:14:36.461Z","same_different-rhyme-task_switching-phon_sim","","1898.7999999523163","same_different","[""<img src=\""square.png\"" width=\""100\"" height=\""100\"" style=\""position: fixed;left:39%;top:47%\""><img src=\""square.png\"" width=\""100\"" height=\""100\"" style=\""position: fixed;left:54%;top:47%\""><img src=\""square.png\"" width=\""100\"" height=\""100\"" style=\""position: fixed;left:46.5%;top:32%\""><img src=\""square.png\"" width=\""100\"" height=\""100\"" style=\""position: fixed;left:46.5%;top:61%\""><div style=\""font-size:60px; text-align: center;margin-top:35.2%\"">+</div><div id=\""first\"" style=\""position: fixed;visibility: hidden;left:55%;top:49%\""><img src=\""same_diff_imgs/C04.gif\""></div><div id=\""delayed\"" style=\""position: fixed;visibility: hidden;left:48%;top:62%\""><img src=\""same_diff_imgs/D11.gif\""></div>""]","arrowdown","categorical_image","same_diff_imgs/C04.gif","same_diff_imgs/D11.gif","no","different","","true","1","","","","","","","","","","","","","","","","","","","","","","","","","","",""
"","","","","","html-keyboard-response","163","164348","0.0-5.0-2.39","A1JJYY622DGE5L","2022-05-24T10:14:36.461Z","same_different-rhyme-task_switching-phon_sim","","null",""," ","null","","","","","","","","","","","","","","","","","","","","","","","","","","","","","","","","","","",""
"","","","","","html-keyboard-response","164","164652","0.0-5.0-3.39","A1JJYY622DGE5L","2022-05-24T10:14:36.461Z","same_different-rhyme-task_switching-phon_sim","","null","same_different"," ","null","","","","","","","","","","","","","","","","","","","","","","","","","","","","","","","","","","",""
"","","","","","html-keyboard-response","165","165420","0.0-5.0-0.40","A1JJYY622DGE5L","2022-05-24T10:14:36.461Z","same_different-rhyme-task_switching-phon_sim","","null","same_different","<div style=""font-size:60px"">+</div>","null","","","","","","","","","","","","","","","","","","","","","","","","","","","","","","","","","","",""
"","","","","","html-keyboard-response","166","167052","0.0-5.0-1.40","A1JJYY622DGE5L","2022-05-24T10:14:36.461Z","same_different-rhyme-task_switching-phon_sim","","1626","same_different","[""<img src=\""square.png\"" width=\""100\"" height=\""100\"" style=\""position: fixed;left:39%;top:47%\""><img src=\""square.png\"" width=\""100\"" height=\""100\"" style=\""position: fixed;left:54%;top:47%\""><img src=\""square.png\"" width=\""100\"" height=\""100\"" style=\""position: fixed;left:46.5%;top:32%\""><img src=\""square.png\"" width=\""100\"" height=\""100\"" style=\""position: fixed;left:46.5%;top:61%\""><div style=\""font-size:60px;text-align: center;margin-top:35.2%\"">+</div><div id=\""first\"" style=\""position: fixed;visibility: hidden;left:40%;top:48%\""><img src=\""same_diff_imgs/D07.gif\"" style=\""-webkit-transform: scaleX(-1);transform: scaleX(-1);\""></div><div id=\""delayed\"" style=\""position: fixed;visibility: hidden;left:55%;top:49%\""><img src=\""same_diff_imgs/C04.gif\"" style=\""-webkit-transform: scaleX(-1);transform: scaleX(-1);\""></div>""]","arrowdown","categorical_image","same_diff_imgs/D07.gif","same_diff_imgs/C04.gif","yes","different","","true","1","","","","","","","","","","","","","","","","","","","","","","","","","","",""
"","","","","","html-keyboard-response","167","167055","0.0-5.0-2.40","A1JJYY622DGE5L","2022-05-24T10:14:36.461Z","same_different-rhyme-task_switching-phon_sim","","null",""," ","null","","","","","","","","","","","","","","","","","","","","","","","","","","","","","","","","","","",""
"","","","","","html-keyboard-response","168","167368","0.0-5.0-3.40","A1JJYY622DGE5L","2022-05-24T10:14:36.461Z","same_different-rhyme-task_switching-phon_sim","","null","same_different"," ","null","","","","","","","","","","","","","","","","","","","","","","","","","","","","","","","","","","",""
"","","","","","html-keyboard-response","169","168128","0.0-5.0-0.41","A1JJYY622DGE5L","2022-05-24T10:14:36.461Z","same_different-rhyme-task_switching-phon_sim","","null","same_different","<div style=""font-size:60px"">+</div>","null","","","","","","","","","","","","","","","","","","","","","","","","","","","","","","","","","","",""
"","","","","","html-keyboard-response","170","169639","0.0-5.0-1.41","A1JJYY622DGE5L","2022-05-24T10:14:36.461Z","same_different-rhyme-task_switching-phon_sim","","1504.5","same_different","[""<img src=\""square.png\"" width=\""100\"" height=\""100\"" style=\""position: fixed;left:39%;top:47%\""><img src=\""square.png\"" width=\""100\"" height=\""100\"" style=\""position: fixed;left:54%;top:47%\""><img src=\""square.png\"" width=\""100\"" height=\""100\"" style=\""position: fixed;left:46.5%;top:32%\""><img src=\""square.png\"" width=\""100\"" height=\""100\"" style=\""position: fixed;left:46.5%;top:61%\""><div style=\""font-size:60px; text-align: center;margin-top:35.2%\"">+</div><div id=\""first\"" style=\""position: fixed;visibility: hidden;left:48%;top:62%\""><img src=\""same_diff_imgs/D09.gif\""></div><div id=\""delayed\"" style=\""position: fixed;visibility: hidden;left:40%;top:48%\""><img src=\""same_diff_imgs/D11.gif\""></div>""]","arrowup","categorical_image","same_diff_imgs/D09.gif","same_diff_imgs/D11.gif","no","same","1","true","","","","","","","","","","","","","","","","","","","","","","","","","","","",""
"","","","","","html-keyboard-response","171","169643","0.0-5.0-2.41","A1JJYY622DGE5L","2022-05-24T10:14:36.461Z","same_different-rhyme-task_switching-phon_sim","","null",""," ","null","","","","","","","","","","","","","","","","","","","","","","","","","","","","","","","","","","",""
"","","","","","html-keyboard-response","172","169951","0.0-5.0-3.41","A1JJYY622DGE5L","2022-05-24T10:14:36.461Z","same_different-rhyme-task_switching-phon_sim","","null","same_different"," ","null","","","","","","","","","","","","","","","","","","","","","","","","","","","","","","","","","","",""
"","","","","","html-keyboard-response","173","170705","0.0-5.0-0.42","A1JJYY622DGE5L","2022-05-24T10:14:36.461Z","same_different-rhyme-task_switching-phon_sim","","null","same_different","<div style=""font-size:60px"">+</div>","null","","","","","","","","","","","","","","","","","","","","","","","","","","","","","","","","","","",""
"","","","","","html-keyboard-response","174","172274","0.0-5.0-1.42","A1JJYY622DGE5L","2022-05-24T10:14:36.461Z","same_different-rhyme-task_switching-phon_sim","","1562","same_different","[""<img src=\""square.png\"" width=\""100\"" height=\""100\"" style=\""position: fixed;left:39%;top:47%\""><img src=\""square.png\"" width=\""100\"" height=\""100\"" style=\""position: fixed;left:54%;top:47%\""><img src=\""square.png\"" width=\""100\"" height=\""100\"" style=\""position: fixed;left:46.5%;top:32%\""><img src=\""square.png\"" width=\""100\"" height=\""100\"" style=\""position: fixed;left:46.5%;top:61%\""><div style=\""font-size:60px; text-align: center;margin-top:35.2%\"">+</div><div id=\""first\"" style=\""position: fixed;visibility: hidden;left:48%;top:34%\""><img src=\""same_diff_imgs/C14.gif\""></div><div id=\""delayed\"" style=\""position: fixed;visibility: hidden;left:40%;top:48%\""><img src=\""same_diff_imgs/D11.gif\""></div>""]","arrowdown","categorical_image","same_diff_imgs/C14.gif","same_diff_imgs/D11.gif","no","different","","true","1","","","","","","","","","","","","","","","","","","","","","","","","","","",""
"","","","","","html-keyboard-response","175","172279","0.0-5.0-2.42","A1JJYY622DGE5L","2022-05-24T10:14:36.461Z","same_different-rhyme-task_switching-phon_sim","","null",""," ","null","","","","","","","","","","","","","","","","","","","","","","","","","","","","","","","","","","",""
"","","","","","html-keyboard-response","176","172584","0.0-5.0-3.42","A1JJYY622DGE5L","2022-05-24T10:14:36.461Z","same_different-rhyme-task_switching-phon_sim","","null","same_different"," ","null","","","","","","","","","","","","","","","","","","","","","","","","","","","","","","","","","","",""
"","","","","","html-keyboard-response","177","173345","0.0-5.0-0.43","A1JJYY622DGE5L","2022-05-24T10:14:36.461Z","same_different-rhyme-task_switching-phon_sim","","null","same_different","<div style=""font-size:60px"">+</div>","null","","","","","","","","","","","","","","","","","","","","","","","","","","","","","","","","","","",""
"","","","","","html-keyboard-response","178","174810","0.0-5.0-1.43","A1JJYY622DGE5L","2022-05-24T10:14:36.461Z","same_different-rhyme-task_switching-phon_sim","","1458.6000000238419","same_different","[""<img src=\""square.png\"" width=\""100\"" height=\""100\"" style=\""position: fixed;left:39%;top:47%\""><img src=\""square.png\"" width=\""100\"" height=\""100\"" style=\""position: fixed;left:54%;top:47%\""><img src=\""square.png\"" width=\""100\"" height=\""100\"" style=\""position: fixed;left:46.5%;top:32%\""><img src=\""square.png\"" width=\""100\"" height=\""100\"" style=\""position: fixed;left:46.5%;top:61%\""><div style=\""font-size:60px; text-align: center;margin-top:35.2%\"">+</div><div id=\""first\"" style=\""position: fixed;visibility: hidden;left:40%;top:48%\""><img src=\""same_diff_imgs/D11.gif\""></div><div id=\""delayed\"" style=\""position: fixed;visibility: hidden;left:55%;top:49%\""><img src=\""same_diff_imgs/C09.gif\""></div>""]","arrowdown","categorical_image","same_diff_imgs/D11.gif","same_diff_imgs/C09.gif","no","different","","true","1","","","","","","","","","","","","","","","","","","","","","","","","","","",""
"","","","","","html-keyboard-response","179","174814","0.0-5.0-2.43","A1JJYY622DGE5L","2022-05-24T10:14:36.461Z","same_different-rhyme-task_switching-phon_sim","","null",""," ","null","","","","","","","","","","","","","","","","","","","","","","","","","","","","","","","","","","",""
"","","","","","html-keyboard-response","180","175118","0.0-5.0-3.43","A1JJYY622DGE5L","2022-05-24T10:14:36.461Z","same_different-rhyme-task_switching-phon_sim","","null","same_different"," ","null","","","","","","","","","","","","","","","","","","","","","","","","","","","","","","","","","","",""
"","","","","","html-keyboard-response","181","175871","0.0-5.0-0.44","A1JJYY622DGE5L","2022-05-24T10:14:36.461Z","same_different-rhyme-task_switching-phon_sim","","null","same_different","<div style=""font-size:60px"">+</div>","null","","","","","","","","","","","","","","","","","","","","","","","","","","","","","","","","","","",""
"","","","","","html-keyboard-response","182","177528","0.0-5.0-1.44","A1JJYY622DGE5L","2022-05-24T10:14:36.461Z","same_different-rhyme-task_switching-phon_sim","","1650.3999999761581","same_different","[""<img src=\""square.png\"" width=\""100\"" height=\""100\"" style=\""position: fixed;left:39%;top:47%\""><img src=\""square.png\"" width=\""100\"" height=\""100\"" style=\""position: fixed;left:54%;top:47%\""><img src=\""square.png\"" width=\""100\"" height=\""100\"" style=\""position: fixed;left:46.5%;top:32%\""><img src=\""square.png\"" width=\""100\"" height=\""100\"" style=\""position: fixed;left:46.5%;top:61%\""><div style=\""font-size:60px;text-align: center;margin-top:35.2%\"">+</div><div id=\""first\"" style=\""position: fixed;visibility: hidden;left:48%;top:34%\""><img src=\""same_diff_imgs/D11.gif\"" style=\""-webkit-transform: scaleX(-1);transform: scaleX(-1);\""></div><div id=\""delayed\"" style=\""position: fixed;visibility: hidden;left:48%;top:62%\""><img src=\""same_diff_imgs/D09.gif\"" style=\""-webkit-transform: scaleX(-1);transform: scaleX(-1);\""></div>""]","arrowup","categorical_image","same_diff_imgs/D11.gif","same_diff_imgs/D09.gif","yes","same","1","true","","","","","","","","","","","","","","","","","","","","","","","","","","","",""
"","","","","","html-keyboard-response","183","177537","0.0-5.0-2.44","A1JJYY622DGE5L","2022-05-24T10:14:36.461Z","same_different-rhyme-task_switching-phon_sim","","null",""," ","null","","","","","","","","","","","","","","","","","","","","","","","","","","","","","","","","","","",""
"","","","","","html-keyboard-response","184","177850","0.0-5.0-3.44","A1JJYY622DGE5L","2022-05-24T10:14:36.461Z","same_different-rhyme-task_switching-phon_sim","","null","same_different"," ","null","","","","","","","","","","","","","","","","","","","","","","","","","","","","","","","","","","",""
"","","","","","html-keyboard-response","185","178607","0.0-5.0-0.45","A1JJYY622DGE5L","2022-05-24T10:14:36.461Z","same_different-rhyme-task_switching-phon_sim","","null","same_different","<div style=""font-size:60px"">+</div>","null","","","","","","","","","","","","","","","","","","","","","","","","","","","","","","","","","","",""
