"success","timeout","failed_images","failed_audio","failed_video","trial_type","trial_index","time_elapsed","internal_node_id","worker_id","start_time","experiment_order","view_history","rt","experiment","stimulus","response","judgment_type","stim_1","stim_2","inverted","answer","true_pos","correct","true_neg","false_pos","false_neg","question_order","talk_out_loud","strategy_free_ans","phase","word_1","word_2","word_3","word_4","word_5","original_word_set","response_1","response_2","response_3","response_4","response_5","condition","operation","trial_no","color_cue","symbol_cue","wait_time","image_1","image_2","cor_key","type"
"true","false","[]","[]","[]","preload","0","6369","0.0-0.0","A35CHBMYRAXDNZ","2022-05-27T00:56:10.517Z","same_different-phon_sim-task_switching-rhyme","","","","","","","","","","","","","","","","","","","","","","","","","","","","","","","","","","","","","","","",""
"","","","","","instructions","1","35755","0.0-1.0","A35CHBMYRAXDNZ","2022-05-27T00:56:10.517Z","same_different-phon_sim-task_switching-rhyme","[{""page_index"":0,""viewing_time"":29382.699999999953}]","29384","","","","","","","","","","","","","","","","","","","","","","","","","","","","","","","","","","","","","",""
"true","","","","","fullscreen","2","552233","0.0-2.0","A35CHBMYRAXDNZ","2022-05-27T00:56:10.517Z","same_different-phon_sim-task_switching-rhyme","","","","","","","","","","","","","","","","","","","","","","","","","","","","","","","","","","","","","","","",""
"","","","","","instructions","3","555778","0.0-3.0","A35CHBMYRAXDNZ","2022-05-27T00:56:10.517Z","same_different-phon_sim-task_switching-rhyme","[{""page_index"":0,""viewing_time"":3541.7999999998137}]","3542.100000000093","same_different","","","","","","","","","","","","","","","","","","","","","","","","","","","","","","","","","","","","",""
"","","","","","instructions","4","557576","0.0-4.0","A35CHBMYRAXDNZ","2022-05-27T00:56:10.517Z","same_different-phon_sim-task_switching-rhyme","[{""page_index"":0,""viewing_time"":1793.5}]","1794.6000000000931","","","","","","","","","","","","","","","","","","","","","","","","","","","","","","","","","","","","","",""
"","","","","","html-keyboard-response","5","558332","0.0-5.0-0.0","A35CHBMYRAXDNZ","2022-05-27T00:56:10.517Z","same_different-phon_sim-task_switching-rhyme","","null","same_different","<div style=""font-size:60px"">+</div>","null","","","","","","","","","","","","","","","","","","","","","","","","","","","","","","","","","","",""
"","","","","","html-keyboard-response","6","562663","0.0-5.0-1.0","A35CHBMYRAXDNZ","2022-05-27T00:56:10.517Z","same_different-phon_sim-task_switching-rhyme","","4327.899999999907","same_different","[""<img src=\""square.png\"" width=\""100\"" height=\""100\"" style=\""position: fixed;left:39%;top:47%\""><img src=\""square.png\"" width=\""100\"" height=\""100\"" style=\""position: fixed;left:54%;top:47%\""><img src=\""square.png\"" width=\""100\"" height=\""100\"" style=\""position: fixed;left:46.5%;top:32%\""><img src=\""square.png\"" width=\""100\"" height=\""100\"" style=\""position: fixed;left:46.5%;top:61%\""><div style=\""font-size:60px; text-align: center;margin-top:45.5%\"">+</div><div id=\""first\"" style=\""position: fixed;visibility: hidden;left:40%;top:48%\""><img src=\""same_diff_imgs/D07.gif\""></div><div id=\""delayed\"" style=\""position: fixed;visibility: hidden;left:55%;top:49%\""><img src=\""same_diff_imgs/D07.gif\""></div>""]","arrowup","identical_image","same_diff_imgs/D07.gif","same_diff_imgs/D07.gif","no","same","1","true","","","","","","","","","","","","","","","","","","","","","","","","","","","",""
"","","","","","html-keyboard-response","7","562666","0.0-5.0-2.0","A35CHBMYRAXDNZ","2022-05-27T00:56:10.517Z","same_different-phon_sim-task_switching-rhyme","","null",""," ","null","","","","","","","","","","","","","","","","","","","","","","","","","","","","","","","","","","",""
"","","","","","html-keyboard-response","8","562979","0.0-5.0-3.0","A35CHBMYRAXDNZ","2022-05-27T00:56:10.517Z","same_different-phon_sim-task_switching-rhyme","","null","same_different"," ","null","","","","","","","","","","","","","","","","","","","","","","","","","","","","","","","","","","",""
"","","","","","html-keyboard-response","9","563734","0.0-5.0-0.1","A35CHBMYRAXDNZ","2022-05-27T00:56:10.517Z","same_different-phon_sim-task_switching-rhyme","","null","same_different","<div style=""font-size:60px"">+</div>","null","","","","","","","","","","","","","","","","","","","","","","","","","","","","","","","","","","",""
"","","","","","html-keyboard-response","10","567189","0.0-5.0-1.1","A35CHBMYRAXDNZ","2022-05-27T00:56:10.517Z","same_different-phon_sim-task_switching-rhyme","","3443.2000000001863","same_different","[""<img src=\""square.png\"" width=\""100\"" height=\""100\"" style=\""position: fixed;left:39%;top:47%\""><img src=\""square.png\"" width=\""100\"" height=\""100\"" style=\""position: fixed;left:54%;top:47%\""><img src=\""square.png\"" width=\""100\"" height=\""100\"" style=\""position: fixed;left:46.5%;top:32%\""><img src=\""square.png\"" width=\""100\"" height=\""100\"" style=\""position: fixed;left:46.5%;top:61%\""><div style=\""font-size:60px;text-align: center;margin-top:45.5%\"">+</div><div id=\""first\"" style=\""position: fixed;visibility: hidden;left:48%;top:34%\""><img src=\""same_diff_imgs/C09.gif\"" style=\""-webkit-transform: scaleX(-1);transform: scaleX(-1);\""></div><div id=\""delayed\"" style=\""position: fixed;visibility: hidden;left:48%;top:62%\""><img src=\""same_diff_imgs/D07.gif\"" style=\""-webkit-transform: scaleX(-1);transform: scaleX(-1);\""></div>""]","arrowdown","identical_image","same_diff_imgs/C09.gif","same_diff_imgs/D07.gif","yes","different","","true","1","","","","","","","","","","","","","","","","","","","","","","","","","","",""
"","","","","","html-keyboard-response","11","567192","0.0-5.0-2.1","A35CHBMYRAXDNZ","2022-05-27T00:56:10.517Z","same_different-phon_sim-task_switching-rhyme","","null",""," ","null","","","","","","","","","","","","","","","","","","","","","","","","","","","","","","","","","","",""
"","","","","","html-keyboard-response","12","567507","0.0-5.0-3.1","A35CHBMYRAXDNZ","2022-05-27T00:56:10.517Z","same_different-phon_sim-task_switching-rhyme","","null","same_different"," ","null","","","","","","","","","","","","","","","","","","","","","","","","","","","","","","","","","","",""
"","","","","","html-keyboard-response","13","568276","0.0-5.0-0.2","A35CHBMYRAXDNZ","2022-05-27T00:56:10.517Z","same_different-phon_sim-task_switching-rhyme","","null","same_different","<div style=""font-size:60px"">+</div>","null","","","","","","","","","","","","","","","","","","","","","","","","","","","","","","","","","","",""
"","","","","","html-keyboard-response","14","570054","0.0-5.0-1.2","A35CHBMYRAXDNZ","2022-05-27T00:56:10.517Z","same_different-phon_sim-task_switching-rhyme","","1774.8999999999069","same_different","[""<img src=\""square.png\"" width=\""100\"" height=\""100\"" style=\""position: fixed;left:39%;top:47%\""><img src=\""square.png\"" width=\""100\"" height=\""100\"" style=\""position: fixed;left:54%;top:47%\""><img src=\""square.png\"" width=\""100\"" height=\""100\"" style=\""position: fixed;left:46.5%;top:32%\""><img src=\""square.png\"" width=\""100\"" height=\""100\"" style=\""position: fixed;left:46.5%;top:61%\""><div style=\""font-size:60px; text-align: center;margin-top:45.5%\"">+</div><div id=\""first\"" style=\""position: fixed;visibility: hidden;left:40%;top:48%\""><img src=\""same_diff_imgs/C09.gif\""></div><div id=\""delayed\"" style=\""position: fixed;visibility: hidden;left:48%;top:34%\""><img src=\""same_diff_imgs/C09.gif\""></div>""]","arrowup","identical_image","same_diff_imgs/C09.gif","same_diff_imgs/C09.gif","no","same","1","true","","","","","","","","","","","","","","","","","","","","","","","","","","","",""
"","","","","","html-keyboard-response","15","570058","0.0-5.0-2.2","A35CHBMYRAXDNZ","2022-05-27T00:56:10.517Z","same_different-phon_sim-task_switching-rhyme","","null",""," ","null","","","","","","","","","","","","","","","","","","","","","","","","","","","","","","","","","","",""
"","","","","","html-keyboard-response","16","570374","0.0-5.0-3.2","A35CHBMYRAXDNZ","2022-05-27T00:56:10.517Z","same_different-phon_sim-task_switching-rhyme","","null","same_different"," ","null","","","","","","","","","","","","","","","","","","","","","","","","","","","","","","","","","","",""
"","","","","","html-keyboard-response","17","571131","0.0-5.0-0.3","A35CHBMYRAXDNZ","2022-05-27T00:56:10.517Z","same_different-phon_sim-task_switching-rhyme","","null","same_different","<div style=""font-size:60px"">+</div>","null","","","","","","","","","","","","","","","","","","","","","","","","","","","","","","","","","","",""
"","","","","","html-keyboard-response","18","572589","0.0-5.0-1.3","A35CHBMYRAXDNZ","2022-05-27T00:56:10.517Z","same_different-phon_sim-task_switching-rhyme","","1456.7999999998137","same_different","[""<img src=\""square.png\"" width=\""100\"" height=\""100\"" style=\""position: fixed;left:39%;top:47%\""><img src=\""square.png\"" width=\""100\"" height=\""100\"" style=\""position: fixed;left:54%;top:47%\""><img src=\""square.png\"" width=\""100\"" height=\""100\"" style=\""position: fixed;left:46.5%;top:32%\""><img src=\""square.png\"" width=\""100\"" height=\""100\"" style=\""position: fixed;left:46.5%;top:61%\""><div style=\""font-size:60px; text-align: center;margin-top:45.5%\"">+</div><div id=\""first\"" style=\""position: fixed;visibility: hidden;left:40%;top:48%\""><img src=\""same_diff_imgs/C04.gif\""></div><div id=\""delayed\"" style=\""position: fixed;visibility: hidden;left:55%;top:49%\""><img src=\""same_diff_imgs/C04.gif\""></div>""]","arrowup","identical_image","same_diff_imgs/C04.gif","same_diff_imgs/C04.gif","no","same","1","true","","","","","","","","","","","","","","","","","","","","","","","","","","","",""
"","","","","","html-keyboard-response","19","572592","0.0-5.0-2.3","A35CHBMYRAXDNZ","2022-05-27T00:56:10.517Z","same_different-phon_sim-task_switching-rhyme","","null",""," ","null","","","","","","","","","","","","","","","","","","","","","","","","","","","","","","","","","","",""
"","","","","","html-keyboard-response","20","572895","0.0-5.0-3.3","A35CHBMYRAXDNZ","2022-05-27T00:56:10.517Z","same_different-phon_sim-task_switching-rhyme","","null","same_different"," ","null","","","","","","","","","","","","","","","","","","","","","","","","","","","","","","","","","","",""
"","","","","","html-keyboard-response","21","573659","0.0-5.0-0.4","A35CHBMYRAXDNZ","2022-05-27T00:56:10.517Z","same_different-phon_sim-task_switching-rhyme","","null","same_different","<div style=""font-size:60px"">+</div>","null","","","","","","","","","","","","","","","","","","","","","","","","","","","","","","","","","","",""
"","","","","","html-keyboard-response","22","575237","0.0-5.0-1.4","A35CHBMYRAXDNZ","2022-05-27T00:56:10.517Z","same_different-phon_sim-task_switching-rhyme","","1575.3999999999069","same_different","[""<img src=\""square.png\"" width=\""100\"" height=\""100\"" style=\""position: fixed;left:39%;top:47%\""><img src=\""square.png\"" width=\""100\"" height=\""100\"" style=\""position: fixed;left:54%;top:47%\""><img src=\""square.png\"" width=\""100\"" height=\""100\"" style=\""position: fixed;left:46.5%;top:32%\""><img src=\""square.png\"" width=\""100\"" height=\""100\"" style=\""position: fixed;left:46.5%;top:61%\""><div style=\""font-size:60px; text-align: center;margin-top:45.5%\"">+</div><div id=\""first\"" style=\""position: fixed;visibility: hidden;left:48%;top:34%\""><img src=\""same_diff_imgs/C14.gif\""></div><div id=\""delayed\"" style=\""position: fixed;visibility: hidden;left:40%;top:48%\""><img src=\""same_diff_imgs/C14.gif\""></div>""]","arrowup","identical_image","same_diff_imgs/C14.gif","same_diff_imgs/C14.gif","no","same","1","true","","","","","","","","","","","","","","","","","","","","","","","","","","","",""
"","","","","","html-keyboard-response","23","575240","0.0-5.0-2.4","A35CHBMYRAXDNZ","2022-05-27T00:56:10.517Z","same_different-phon_sim-task_switching-rhyme","","null",""," ","null","","","","","","","","","","","","","","","","","","","","","","","","","","","","","","","","","","",""
"","","","","","html-keyboard-response","24","575555","0.0-5.0-3.4","A35CHBMYRAXDNZ","2022-05-27T00:56:10.517Z","same_different-phon_sim-task_switching-rhyme","","null","same_different"," ","null","","","","","","","","","","","","","","","","","","","","","","","","","","","","","","","","","","",""
"","","","","","html-keyboard-response","25","576308","0.0-5.0-0.5","A35CHBMYRAXDNZ","2022-05-27T00:56:10.517Z","same_different-phon_sim-task_switching-rhyme","","null","same_different","<div style=""font-size:60px"">+</div>","null","","","","","","","","","","","","","","","","","","","","","","","","","","","","","","","","","","",""
"","","","","","html-keyboard-response","26","579190","0.0-5.0-1.5","A35CHBMYRAXDNZ","2022-05-27T00:56:10.517Z","same_different-phon_sim-task_switching-rhyme","","2879.4000000003725","same_different","[""<img src=\""square.png\"" width=\""100\"" height=\""100\"" style=\""position: fixed;left:39%;top:47%\""><img src=\""square.png\"" width=\""100\"" height=\""100\"" style=\""position: fixed;left:54%;top:47%\""><img src=\""square.png\"" width=\""100\"" height=\""100\"" style=\""position: fixed;left:46.5%;top:32%\""><img src=\""square.png\"" width=\""100\"" height=\""100\"" style=\""position: fixed;left:46.5%;top:61%\""><div style=\""font-size:60px;text-align: center;margin-top:45.5%\"">+</div><div id=\""first\"" style=\""position: fixed;visibility: hidden;left:48%;top:34%\""><img src=\""same_diff_imgs/C14.gif\"" style=\""-webkit-transform: scaleX(-1);transform: scaleX(-1);\""></div><div id=\""delayed\"" style=\""position: fixed;visibility: hidden;left:40%;top:48%\""><img src=\""same_diff_imgs/C09.gif\"" style=\""-webkit-transform: scaleX(-1);transform: scaleX(-1);\""></div>""]","arrowup","identical_image","same_diff_imgs/C14.gif","same_diff_imgs/C09.gif","yes","different","","false","","1","","","","","","","","","","","","","","","","","","","","","","","","","",""
"","","","","","html-keyboard-response","27","579693","0.0-5.0-2.5","A35CHBMYRAXDNZ","2022-05-27T00:56:10.517Z","same_different-phon_sim-task_switching-rhyme","","null","","<div style=""color:darkred; font-size:40px"">Incorrect!</div>","null","","","","","","","","","","","","","","","","","","","","","","","","","","","","","","","","","","",""
"","","","","","html-keyboard-response","28","580008","0.0-5.0-3.5","A35CHBMYRAXDNZ","2022-05-27T00:56:10.517Z","same_different-phon_sim-task_switching-rhyme","","null","same_different"," ","null","","","","","","","","","","","","","","","","","","","","","","","","","","","","","","","","","","",""
"","","","","","html-keyboard-response","29","580759","0.0-5.0-0.6","A35CHBMYRAXDNZ","2022-05-27T00:56:10.517Z","same_different-phon_sim-task_switching-rhyme","","null","same_different","<div style=""font-size:60px"">+</div>","null","","","","","","","","","","","","","","","","","","","","","","","","","","","","","","","","","","",""
"","","","","","html-keyboard-response","30","582430","0.0-5.0-1.6","A35CHBMYRAXDNZ","2022-05-27T00:56:10.517Z","same_different-phon_sim-task_switching-rhyme","","1661.6000000000931","same_different","[""<img src=\""square.png\"" width=\""100\"" height=\""100\"" style=\""position: fixed;left:39%;top:47%\""><img src=\""square.png\"" width=\""100\"" height=\""100\"" style=\""position: fixed;left:54%;top:47%\""><img src=\""square.png\"" width=\""100\"" height=\""100\"" style=\""position: fixed;left:46.5%;top:32%\""><img src=\""square.png\"" width=\""100\"" height=\""100\"" style=\""position: fixed;left:46.5%;top:61%\""><div style=\""font-size:60px; text-align: center;margin-top:45.5%\"">+</div><div id=\""first\"" style=\""position: fixed;visibility: hidden;left:55%;top:49%\""><img src=\""same_diff_imgs/C04.gif\""></div><div id=\""delayed\"" style=\""position: fixed;visibility: hidden;left:40%;top:48%\""><img src=\""same_diff_imgs/C04.gif\""></div>""]","arrowup","identical_image","same_diff_imgs/C04.gif","same_diff_imgs/C04.gif","no","same","1","true","","","","","","","","","","","","","","","","","","","","","","","","","","","",""
"","","","","","html-keyboard-response","31","582432","0.0-5.0-2.6","A35CHBMYRAXDNZ","2022-05-27T00:56:10.517Z","same_different-phon_sim-task_switching-rhyme","","null",""," ","null","","","","","","","","","","","","","","","","","","","","","","","","","","","","","","","","","","",""
"","","","","","html-keyboard-response","32","582745","0.0-5.0-3.6","A35CHBMYRAXDNZ","2022-05-27T00:56:10.517Z","same_different-phon_sim-task_switching-rhyme","","null","same_different"," ","null","","","","","","","","","","","","","","","","","","","","","","","","","","","","","","","","","","",""
"","","","","","html-keyboard-response","33","583517","0.0-5.0-0.7","A35CHBMYRAXDNZ","2022-05-27T00:56:10.517Z","same_different-phon_sim-task_switching-rhyme","","null","same_different","<div style=""font-size:60px"">+</div>","null","","","","","","","","","","","","","","","","","","","","","","","","","","","","","","","","","","",""
"","","","","","html-keyboard-response","34","584894","0.0-5.0-1.7","A35CHBMYRAXDNZ","2022-05-27T00:56:10.517Z","same_different-phon_sim-task_switching-rhyme","","1375.7999999998137","same_different","[""<img src=\""square.png\"" width=\""100\"" height=\""100\"" style=\""position: fixed;left:39%;top:47%\""><img src=\""square.png\"" width=\""100\"" height=\""100\"" style=\""position: fixed;left:54%;top:47%\""><img src=\""square.png\"" width=\""100\"" height=\""100\"" style=\""position: fixed;left:46.5%;top:32%\""><img src=\""square.png\"" width=\""100\"" height=\""100\"" style=\""position: fixed;left:46.5%;top:61%\""><div style=\""font-size:60px; text-align: center;margin-top:45.5%\"">+</div><div id=\""first\"" style=\""position: fixed;visibility: hidden;left:48%;top:62%\""><img src=\""same_diff_imgs/D07.gif\""></div><div id=\""delayed\"" style=\""position: fixed;visibility: hidden;left:48%;top:34%\""><img src=\""same_diff_imgs/D07.gif\""></div>""]","arrowup","identical_image","same_diff_imgs/D07.gif","same_diff_imgs/D07.gif","no","same","1","true","","","","","","","","","","","","","","","","","","","","","","","","","","","",""
"","","","","","html-keyboard-response","35","584897","0.0-5.0-2.7","A35CHBMYRAXDNZ","2022-05-27T00:56:10.517Z","same_different-phon_sim-task_switching-rhyme","","null",""," ","null","","","","","","","","","","","","","","","","","","","","","","","","","","","","","","","","","","",""
"","","","","","html-keyboard-response","36","585206","0.0-5.0-3.7","A35CHBMYRAXDNZ","2022-05-27T00:56:10.517Z","same_different-phon_sim-task_switching-rhyme","","null","same_different"," ","null","","","","","","","","","","","","","","","","","","","","","","","","","","","","","","","","","","",""
"","","","","","html-keyboard-response","37","585960","0.0-5.0-0.8","A35CHBMYRAXDNZ","2022-05-27T00:56:10.517Z","same_different-phon_sim-task_switching-rhyme","","null","same_different","<div style=""font-size:60px"">+</div>","null","","","","","","","","","","","","","","","","","","","","","","","","","","","","","","","","","","",""
"","","","","","html-keyboard-response","38","587301","0.0-5.0-1.8","A35CHBMYRAXDNZ","2022-05-27T00:56:10.517Z","same_different-phon_sim-task_switching-rhyme","","1338.5","same_different","[""<img src=\""square.png\"" width=\""100\"" height=\""100\"" style=\""position: fixed;left:39%;top:47%\""><img src=\""square.png\"" width=\""100\"" height=\""100\"" style=\""position: fixed;left:54%;top:47%\""><img src=\""square.png\"" width=\""100\"" height=\""100\"" style=\""position: fixed;left:46.5%;top:32%\""><img src=\""square.png\"" width=\""100\"" height=\""100\"" style=\""position: fixed;left:46.5%;top:61%\""><div style=\""font-size:60px; text-align: center;margin-top:45.5%\"">+</div><div id=\""first\"" style=\""position: fixed;visibility: hidden;left:48%;top:34%\""><img src=\""same_diff_imgs/D07.gif\""></div><div id=\""delayed\"" style=\""position: fixed;visibility: hidden;left:48%;top:62%\""><img src=\""same_diff_imgs/D07.gif\""></div>""]","arrowup","identical_image","same_diff_imgs/D07.gif","same_diff_imgs/D07.gif","no","same","1","true","","","","","","","","","","","","","","","","","","","","","","","","","","","",""
"","","","","","html-keyboard-response","39","587304","0.0-5.0-2.8","A35CHBMYRAXDNZ","2022-05-27T00:56:10.517Z","same_different-phon_sim-task_switching-rhyme","","null",""," ","null","","","","","","","","","","","","","","","","","","","","","","","","","","","","","","","","","","",""
"","","","","","html-keyboard-response","40","587619","0.0-5.0-3.8","A35CHBMYRAXDNZ","2022-05-27T00:56:10.517Z","same_different-phon_sim-task_switching-rhyme","","null","same_different"," ","null","","","","","","","","","","","","","","","","","","","","","","","","","","","","","","","","","","",""
"","","","","","html-keyboard-response","41","588389","0.0-5.0-0.9","A35CHBMYRAXDNZ","2022-05-27T00:56:10.517Z","same_different-phon_sim-task_switching-rhyme","","null","same_different","<div style=""font-size:60px"">+</div>","null","","","","","","","","","","","","","","","","","","","","","","","","","","","","","","","","","","",""
"","","","","","html-keyboard-response","42","589678","0.0-5.0-1.9","A35CHBMYRAXDNZ","2022-05-27T00:56:10.517Z","same_different-phon_sim-task_switching-rhyme","","1287.1000000000931","same_different","[""<img src=\""square.png\"" width=\""100\"" height=\""100\"" style=\""position: fixed;left:39%;top:47%\""><img src=\""square.png\"" width=\""100\"" height=\""100\"" style=\""position: fixed;left:54%;top:47%\""><img src=\""square.png\"" width=\""100\"" height=\""100\"" style=\""position: fixed;left:46.5%;top:32%\""><img src=\""square.png\"" width=\""100\"" height=\""100\"" style=\""position: fixed;left:46.5%;top:61%\""><div style=\""font-size:60px; text-align: center;margin-top:45.5%\"">+</div><div id=\""first\"" style=\""position: fixed;visibility: hidden;left:55%;top:49%\""><img src=\""same_diff_imgs/D07.gif\""></div><div id=\""delayed\"" style=\""position: fixed;visibility: hidden;left:40%;top:48%\""><img src=\""same_diff_imgs/D07.gif\""></div>""]","arrowup","identical_image","same_diff_imgs/D07.gif","same_diff_imgs/D07.gif","no","same","1","true","","","","","","","","","","","","","","","","","","","","","","","","","","","",""
"","","","","","html-keyboard-response","43","589680","0.0-5.0-2.9","A35CHBMYRAXDNZ","2022-05-27T00:56:10.517Z","same_different-phon_sim-task_switching-rhyme","","null",""," ","null","","","","","","","","","","","","","","","","","","","","","","","","","","","","","","","","","","",""
"","","","","","html-keyboard-response","44","589985","0.0-5.0-3.9","A35CHBMYRAXDNZ","2022-05-27T00:56:10.517Z","same_different-phon_sim-task_switching-rhyme","","null","same_different"," ","null","","","","","","","","","","","","","","","","","","","","","","","","","","","","","","","","","","",""
"","","","","","html-keyboard-response","45","590750","0.0-5.0-0.10","A35CHBMYRAXDNZ","2022-05-27T00:56:10.517Z","same_different-phon_sim-task_switching-rhyme","","null","same_different","<div style=""font-size:60px"">+</div>","null","","","","","","","","","","","","","","","","","","","","","","","","","","","","","","","","","","",""
"","","","","","html-keyboard-response","46","592726","0.0-5.0-1.10","A35CHBMYRAXDNZ","2022-05-27T00:56:10.517Z","same_different-phon_sim-task_switching-rhyme","","1974.2999999998137","same_different","[""<img src=\""square.png\"" width=\""100\"" height=\""100\"" style=\""position: fixed;left:39%;top:47%\""><img src=\""square.png\"" width=\""100\"" height=\""100\"" style=\""position: fixed;left:54%;top:47%\""><img src=\""square.png\"" width=\""100\"" height=\""100\"" style=\""position: fixed;left:46.5%;top:32%\""><img src=\""square.png\"" width=\""100\"" height=\""100\"" style=\""position: fixed;left:46.5%;top:61%\""><div style=\""font-size:60px; text-align: center;margin-top:45.5%\"">+</div><div id=\""first\"" style=\""position: fixed;visibility: hidden;left:48%;top:62%\""><img src=\""same_diff_imgs/D11.gif\""></div><div id=\""delayed\"" style=\""position: fixed;visibility: hidden;left:48%;top:34%\""><img src=\""same_diff_imgs/D09.gif\""></div>""]","arrowdown","identical_image","same_diff_imgs/D11.gif","same_diff_imgs/D09.gif","no","different","","true","1","","","","","","","","","","","","","","","","","","","","","","","","","","",""
"","","","","","html-keyboard-response","47","592728","0.0-5.0-2.10","A35CHBMYRAXDNZ","2022-05-27T00:56:10.517Z","same_different-phon_sim-task_switching-rhyme","","null",""," ","null","","","","","","","","","","","","","","","","","","","","","","","","","","","","","","","","","","",""
"","","","","","html-keyboard-response","48","593044","0.0-5.0-3.10","A35CHBMYRAXDNZ","2022-05-27T00:56:10.517Z","same_different-phon_sim-task_switching-rhyme","","null","same_different"," ","null","","","","","","","","","","","","","","","","","","","","","","","","","","","","","","","","","","",""
"","","","","","html-keyboard-response","49","593797","0.0-5.0-0.11","A35CHBMYRAXDNZ","2022-05-27T00:56:10.517Z","same_different-phon_sim-task_switching-rhyme","","null","same_different","<div style=""font-size:60px"">+</div>","null","","","","","","","","","","","","","","","","","","","","","","","","","","","","","","","","","","",""
"","","","","","html-keyboard-response","50","595575","0.0-5.0-1.11","A35CHBMYRAXDNZ","2022-05-27T00:56:10.517Z","same_different-phon_sim-task_switching-rhyme","","1774.3999999999069","same_different","[""<img src=\""square.png\"" width=\""100\"" height=\""100\"" style=\""position: fixed;left:39%;top:47%\""><img src=\""square.png\"" width=\""100\"" height=\""100\"" style=\""position: fixed;left:54%;top:47%\""><img src=\""square.png\"" width=\""100\"" height=\""100\"" style=\""position: fixed;left:46.5%;top:32%\""><img src=\""square.png\"" width=\""100\"" height=\""100\"" style=\""position: fixed;left:46.5%;top:61%\""><div style=\""font-size:60px;text-align: center;margin-top:45.5%\"">+</div><div id=\""first\"" style=\""position: fixed;visibility: hidden;left:55%;top:49%\""><img src=\""same_diff_imgs/D11.gif\"" style=\""-webkit-transform: scaleX(-1);transform: scaleX(-1);\""></div><div id=\""delayed\"" style=\""position: fixed;visibility: hidden;left:40%;top:48%\""><img src=\""same_diff_imgs/D07.gif\"" style=\""-webkit-transform: scaleX(-1);transform: scaleX(-1);\""></div>""]","arrowdown","identical_image","same_diff_imgs/D11.gif","same_diff_imgs/D07.gif","yes","different","","true","1","","","","","","","","","","","","","","","","","","","","","","","","","","",""
"","","","","","html-keyboard-response","51","595577","0.0-5.0-2.11","A35CHBMYRAXDNZ","2022-05-27T00:56:10.517Z","same_different-phon_sim-task_switching-rhyme","","null",""," ","null","","","","","","","","","","","","","","","","","","","","","","","","","","","","","","","","","","",""
"","","","","","html-keyboard-response","52","595878","0.0-5.0-3.11","A35CHBMYRAXDNZ","2022-05-27T00:56:10.517Z","same_different-phon_sim-task_switching-rhyme","","null","same_different"," ","null","","","","","","","","","","","","","","","","","","","","","","","","","","","","","","","","","","",""
"","","","","","html-keyboard-response","53","596630","0.0-5.0-0.12","A35CHBMYRAXDNZ","2022-05-27T00:56:10.517Z","same_different-phon_sim-task_switching-rhyme","","null","same_different","<div style=""font-size:60px"">+</div>","null","","","","","","","","","","","","","","","","","","","","","","","","","","","","","","","","","","",""
"","","","","","html-keyboard-response","54","598431","0.0-5.0-1.12","A35CHBMYRAXDNZ","2022-05-27T00:56:10.517Z","same_different-phon_sim-task_switching-rhyme","","1799.5","same_different","[""<img src=\""square.png\"" width=\""100\"" height=\""100\"" style=\""position: fixed;left:39%;top:47%\""><img src=\""square.png\"" width=\""100\"" height=\""100\"" style=\""position: fixed;left:54%;top:47%\""><img src=\""square.png\"" width=\""100\"" height=\""100\"" style=\""position: fixed;left:46.5%;top:32%\""><img src=\""square.png\"" width=\""100\"" height=\""100\"" style=\""position: fixed;left:46.5%;top:61%\""><div style=\""font-size:60px; text-align: center;margin-top:45.5%\"">+</div><div id=\""first\"" style=\""position: fixed;visibility: hidden;left:55%;top:49%\""><img src=\""same_diff_imgs/D09.gif\""></div><div id=\""delayed\"" style=\""position: fixed;visibility: hidden;left:48%;top:62%\""><img src=\""same_diff_imgs/D09.gif\""></div>""]","arrowup","identical_image","same_diff_imgs/D09.gif","same_diff_imgs/D09.gif","no","same","1","true","","","","","","","","","","","","","","","","","","","","","","","","","","","",""
"","","","","","html-keyboard-response","55","598433","0.0-5.0-2.12","A35CHBMYRAXDNZ","2022-05-27T00:56:10.517Z","same_different-phon_sim-task_switching-rhyme","","null",""," ","null","","","","","","","","","","","","","","","","","","","","","","","","","","","","","","","","","","",""
"","","","","","html-keyboard-response","56","598735","0.0-5.0-3.12","A35CHBMYRAXDNZ","2022-05-27T00:56:10.517Z","same_different-phon_sim-task_switching-rhyme","","null","same_different"," ","null","","","","","","","","","","","","","","","","","","","","","","","","","","","","","","","","","","",""
"","","","","","html-keyboard-response","57","599487","0.0-5.0-0.13","A35CHBMYRAXDNZ","2022-05-27T00:56:10.517Z","same_different-phon_sim-task_switching-rhyme","","null","same_different","<div style=""font-size:60px"">+</div>","null","","","","","","","","","","","","","","","","","","","","","","","","","","","","","","","","","","",""
"","","","","","html-keyboard-response","58","601247","0.0-5.0-1.13","A35CHBMYRAXDNZ","2022-05-27T00:56:10.517Z","same_different-phon_sim-task_switching-rhyme","","1757.3999999999069","same_different","[""<img src=\""square.png\"" width=\""100\"" height=\""100\"" style=\""position: fixed;left:39%;top:47%\""><img src=\""square.png\"" width=\""100\"" height=\""100\"" style=\""position: fixed;left:54%;top:47%\""><img src=\""square.png\"" width=\""100\"" height=\""100\"" style=\""position: fixed;left:46.5%;top:32%\""><img src=\""square.png\"" width=\""100\"" height=\""100\"" style=\""position: fixed;left:46.5%;top:61%\""><div style=\""font-size:60px; text-align: center;margin-top:45.5%\"">+</div><div id=\""first\"" style=\""position: fixed;visibility: hidden;left:40%;top:48%\""><img src=\""same_diff_imgs/C14.gif\""></div><div id=\""delayed\"" style=\""position: fixed;visibility: hidden;left:48%;top:34%\""><img src=\""same_diff_imgs/D11.gif\""></div>""]","arrowdown","identical_image","same_diff_imgs/C14.gif","same_diff_imgs/D11.gif","no","different","","true","1","","","","","","","","","","","","","","","","","","","","","","","","","","",""
"","","","","","html-keyboard-response","59","601249","0.0-5.0-2.13","A35CHBMYRAXDNZ","2022-05-27T00:56:10.517Z","same_different-phon_sim-task_switching-rhyme","","null",""," ","null","","","","","","","","","","","","","","","","","","","","","","","","","","","","","","","","","","",""
"","","","","","html-keyboard-response","60","601551","0.0-5.0-3.13","A35CHBMYRAXDNZ","2022-05-27T00:56:10.517Z","same_different-phon_sim-task_switching-rhyme","","null","same_different"," ","null","","","","","","","","","","","","","","","","","","","","","","","","","","","","","","","","","","",""
"","","","","","html-keyboard-response","61","602302","0.0-5.0-0.14","A35CHBMYRAXDNZ","2022-05-27T00:56:10.517Z","same_different-phon_sim-task_switching-rhyme","","null","same_different","<div style=""font-size:60px"">+</div>","null","","","","","","","","","","","","","","","","","","","","","","","","","","","","","","","","","","",""
"","","","","","html-keyboard-response","62","603822","0.0-5.0-1.14","A35CHBMYRAXDNZ","2022-05-27T00:56:10.517Z","same_different-phon_sim-task_switching-rhyme","","1518.0999999996275","same_different","[""<img src=\""square.png\"" width=\""100\"" height=\""100\"" style=\""position: fixed;left:39%;top:47%\""><img src=\""square.png\"" width=\""100\"" height=\""100\"" style=\""position: fixed;left:54%;top:47%\""><img src=\""square.png\"" width=\""100\"" height=\""100\"" style=\""position: fixed;left:46.5%;top:32%\""><img src=\""square.png\"" width=\""100\"" height=\""100\"" style=\""position: fixed;left:46.5%;top:61%\""><div style=\""font-size:60px; text-align: center;margin-top:45.5%\"">+</div><div id=\""first\"" style=\""position: fixed;visibility: hidden;left:40%;top:48%\""><img src=\""same_diff_imgs/C14.gif\""></div><div id=\""delayed\"" style=\""position: fixed;visibility: hidden;left:55%;top:49%\""><img src=\""same_diff_imgs/C14.gif\""></div>""]","arrowup","identical_image","same_diff_imgs/C14.gif","same_diff_imgs/C14.gif","no","same","1","true","","","","","","","","","","","","","","","","","","","","","","","","","","","",""
"","","","","","html-keyboard-response","63","603824","0.0-5.0-2.14","A35CHBMYRAXDNZ","2022-05-27T00:56:10.517Z","same_different-phon_sim-task_switching-rhyme","","null",""," ","null","","","","","","","","","","","","","","","","","","","","","","","","","","","","","","","","","","",""
"","","","","","html-keyboard-response","64","604127","0.0-5.0-3.14","A35CHBMYRAXDNZ","2022-05-27T00:56:10.517Z","same_different-phon_sim-task_switching-rhyme","","null","same_different"," ","null","","","","","","","","","","","","","","","","","","","","","","","","","","","","","","","","","","",""
"","","","","","html-keyboard-response","65","604878","0.0-5.0-0.15","A35CHBMYRAXDNZ","2022-05-27T00:56:10.517Z","same_different-phon_sim-task_switching-rhyme","","null","same_different","<div style=""font-size:60px"">+</div>","null","","","","","","","","","","","","","","","","","","","","","","","","","","","","","","","","","","",""
"","","","","","html-keyboard-response","66","606566","0.0-5.0-1.15","A35CHBMYRAXDNZ","2022-05-27T00:56:10.517Z","same_different-phon_sim-task_switching-rhyme","","1685.8999999999069","same_different","[""<img src=\""square.png\"" width=\""100\"" height=\""100\"" style=\""position: fixed;left:39%;top:47%\""><img src=\""square.png\"" width=\""100\"" height=\""100\"" style=\""position: fixed;left:54%;top:47%\""><img src=\""square.png\"" width=\""100\"" height=\""100\"" style=\""position: fixed;left:46.5%;top:32%\""><img src=\""square.png\"" width=\""100\"" height=\""100\"" style=\""position: fixed;left:46.5%;top:61%\""><div style=\""font-size:60px; text-align: center;margin-top:45.5%\"">+</div><div id=\""first\"" style=\""position: fixed;visibility: hidden;left:48%;top:62%\""><img src=\""same_diff_imgs/C04.gif\""></div><div id=\""delayed\"" style=\""position: fixed;visibility: hidden;left:48%;top:34%\""><img src=\""same_diff_imgs/D07.gif\""></div>""]","arrowdown","identical_image","same_diff_imgs/C04.gif","same_diff_imgs/D07.gif","no","different","","true","1","","","","","","","","","","","","","","","","","","","","","","","","","","",""
"","","","","","html-keyboard-response","67","606568","0.0-5.0-2.15","A35CHBMYRAXDNZ","2022-05-27T00:56:10.517Z","same_different-phon_sim-task_switching-rhyme","","null",""," ","null","","","","","","","","","","","","","","","","","","","","","","","","","","","","","","","","","","",""
"","","","","","html-keyboard-response","68","606870","0.0-5.0-3.15","A35CHBMYRAXDNZ","2022-05-27T00:56:10.517Z","same_different-phon_sim-task_switching-rhyme","","null","same_different"," ","null","","","","","","","","","","","","","","","","","","","","","","","","","","","","","","","","","","",""
"","","","","","html-keyboard-response","69","607621","0.0-5.0-0.16","A35CHBMYRAXDNZ","2022-05-27T00:56:10.517Z","same_different-phon_sim-task_switching-rhyme","","null","same_different","<div style=""font-size:60px"">+</div>","null","","","","","","","","","","","","","","","","","","","","","","","","","","","","","","","","","","",""
"","","","","","html-keyboard-response","70","609287","0.0-5.0-1.16","A35CHBMYRAXDNZ","2022-05-27T00:56:10.517Z","same_different-phon_sim-task_switching-rhyme","","1663.5","same_different","[""<img src=\""square.png\"" width=\""100\"" height=\""100\"" style=\""position: fixed;left:39%;top:47%\""><img src=\""square.png\"" width=\""100\"" height=\""100\"" style=\""position: fixed;left:54%;top:47%\""><img src=\""square.png\"" width=\""100\"" height=\""100\"" style=\""position: fixed;left:46.5%;top:32%\""><img src=\""square.png\"" width=\""100\"" height=\""100\"" style=\""position: fixed;left:46.5%;top:61%\""><div style=\""font-size:60px;text-align: center;margin-top:45.5%\"">+</div><div id=\""first\"" style=\""position: fixed;visibility: hidden;left:48%;top:62%\""><img src=\""same_diff_imgs/C14.gif\"" style=\""-webkit-transform: scaleX(-1);transform: scaleX(-1);\""></div><div id=\""delayed\"" style=\""position: fixed;visibility: hidden;left:40%;top:48%\""><img src=\""same_diff_imgs/D11.gif\"" style=\""-webkit-transform: scaleX(-1);transform: scaleX(-1);\""></div>""]","arrowdown","identical_image","same_diff_imgs/C14.gif","same_diff_imgs/D11.gif","yes","different","","true","1","","","","","","","","","","","","","","","","","","","","","","","","","","",""
"","","","","","html-keyboard-response","71","609289","0.0-5.0-2.16","A35CHBMYRAXDNZ","2022-05-27T00:56:10.517Z","same_different-phon_sim-task_switching-rhyme","","null",""," ","null","","","","","","","","","","","","","","","","","","","","","","","","","","","","","","","","","","",""
"","","","","","html-keyboard-response","72","609591","0.0-5.0-3.16","A35CHBMYRAXDNZ","2022-05-27T00:56:10.517Z","same_different-phon_sim-task_switching-rhyme","","null","same_different"," ","null","","","","","","","","","","","","","","","","","","","","","","","","","","","","","","","","","","",""
"","","","","","html-keyboard-response","73","610342","0.0-5.0-0.17","A35CHBMYRAXDNZ","2022-05-27T00:56:10.517Z","same_different-phon_sim-task_switching-rhyme","","null","same_different","<div style=""font-size:60px"">+</div>","null","","","","","","","","","","","","","","","","","","","","","","","","","","","","","","","","","","",""
"","","","","","html-keyboard-response","74","612144","0.0-5.0-1.17","A35CHBMYRAXDNZ","2022-05-27T00:56:10.517Z","same_different-phon_sim-task_switching-rhyme","","1800.3999999999069","same_different","[""<img src=\""square.png\"" width=\""100\"" height=\""100\"" style=\""position: fixed;left:39%;top:47%\""><img src=\""square.png\"" width=\""100\"" height=\""100\"" style=\""position: fixed;left:54%;top:47%\""><img src=\""square.png\"" width=\""100\"" height=\""100\"" style=\""position: fixed;left:46.5%;top:32%\""><img src=\""square.png\"" width=\""100\"" height=\""100\"" style=\""position: fixed;left:46.5%;top:61%\""><div style=\""font-size:60px; text-align: center;margin-top:45.5%\"">+</div><div id=\""first\"" style=\""position: fixed;visibility: hidden;left:40%;top:48%\""><img src=\""same_diff_imgs/C04.gif\""></div><div id=\""delayed\"" style=\""position: fixed;visibility: hidden;left:55%;top:49%\""><img src=\""same_diff_imgs/D11.gif\""></div>""]","arrowdown","identical_image","same_diff_imgs/C04.gif","same_diff_imgs/D11.gif","no","different","","true","1","","","","","","","","","","","","","","","","","","","","","","","","","","",""
"","","","","","html-keyboard-response","75","612146","0.0-5.0-2.17","A35CHBMYRAXDNZ","2022-05-27T00:56:10.517Z","same_different-phon_sim-task_switching-rhyme","","null",""," ","null","","","","","","","","","","","","","","","","","","","","","","","","","","","","","","","","","","",""
"","","","","","html-keyboard-response","76","612448","0.0-5.0-3.17","A35CHBMYRAXDNZ","2022-05-27T00:56:10.517Z","same_different-phon_sim-task_switching-rhyme","","null","same_different"," ","null","","","","","","","","","","","","","","","","","","","","","","","","","","","","","","","","","","",""
"","","","","","html-keyboard-response","77","613199","0.0-5.0-0.18","A35CHBMYRAXDNZ","2022-05-27T00:56:10.517Z","same_different-phon_sim-task_switching-rhyme","","null","same_different","<div style=""font-size:60px"">+</div>","null","","","","","","","","","","","","","","","","","","","","","","","","","","","","","","","","","","",""
"","","","","","html-keyboard-response","78","614888","0.0-5.0-1.18","A35CHBMYRAXDNZ","2022-05-27T00:56:10.517Z","same_different-phon_sim-task_switching-rhyme","","1686.4000000003725","same_different","[""<img src=\""square.png\"" width=\""100\"" height=\""100\"" style=\""position: fixed;left:39%;top:47%\""><img src=\""square.png\"" width=\""100\"" height=\""100\"" style=\""position: fixed;left:54%;top:47%\""><img src=\""square.png\"" width=\""100\"" height=\""100\"" style=\""position: fixed;left:46.5%;top:32%\""><img src=\""square.png\"" width=\""100\"" height=\""100\"" style=\""position: fixed;left:46.5%;top:61%\""><div style=\""font-size:60px;text-align: center;margin-top:45.5%\"">+</div><div id=\""first\"" style=\""position: fixed;visibility: hidden;left:55%;top:49%\""><img src=\""same_diff_imgs/D11.gif\"" style=\""-webkit-transform: scaleX(-1);transform: scaleX(-1);\""></div><div id=\""delayed\"" style=\""position: fixed;visibility: hidden;left:48%;top:62%\""><img src=\""same_diff_imgs/C09.gif\"" style=\""-webkit-transform: scaleX(-1);transform: scaleX(-1);\""></div>""]","arrowdown","identical_image","same_diff_imgs/D11.gif","same_diff_imgs/C09.gif","yes","different","","true","1","","","","","","","","","","","","","","","","","","","","","","","","","","",""
"","","","","","html-keyboard-response","79","614890","0.0-5.0-2.18","A35CHBMYRAXDNZ","2022-05-27T00:56:10.517Z","same_different-phon_sim-task_switching-rhyme","","null",""," ","null","","","","","","","","","","","","","","","","","","","","","","","","","","","","","","","","","","",""
"","","","","","html-keyboard-response","80","615191","0.0-5.0-3.18","A35CHBMYRAXDNZ","2022-05-27T00:56:10.517Z","same_different-phon_sim-task_switching-rhyme","","null","same_different"," ","null","","","","","","","","","","","","","","","","","","","","","","","","","","","","","","","","","","",""
"","","","","","html-keyboard-response","81","615942","0.0-5.0-0.19","A35CHBMYRAXDNZ","2022-05-27T00:56:10.517Z","same_different-phon_sim-task_switching-rhyme","","null","same_different","<div style=""font-size:60px"">+</div>","null","","","","","","","","","","","","","","","","","","","","","","","","","","","","","","","","","","",""
"","","","","","html-keyboard-response","82","617552","0.0-5.0-1.19","A35CHBMYRAXDNZ","2022-05-27T00:56:10.517Z","same_different-phon_sim-task_switching-rhyme","","1606.5","same_different","[""<img src=\""square.png\"" width=\""100\"" height=\""100\"" style=\""position: fixed;left:39%;top:47%\""><img src=\""square.png\"" width=\""100\"" height=\""100\"" style=\""position: fixed;left:54%;top:47%\""><img src=\""square.png\"" width=\""100\"" height=\""100\"" style=\""position: fixed;left:46.5%;top:32%\""><img src=\""square.png\"" width=\""100\"" height=\""100\"" style=\""position: fixed;left:46.5%;top:61%\""><div style=\""font-size:60px;text-align: center;margin-top:45.5%\"">+</div><div id=\""first\"" style=\""position: fixed;visibility: hidden;left:48%;top:34%\""><img src=\""same_diff_imgs/D07.gif\"" style=\""-webkit-transform: scaleX(-1);transform: scaleX(-1);\""></div><div id=\""delayed\"" style=\""position: fixed;visibility: hidden;left:48%;top:62%\""><img src=\""same_diff_imgs/C14.gif\"" style=\""-webkit-transform: scaleX(-1);transform: scaleX(-1);\""></div>""]","arrowdown","identical_image","same_diff_imgs/D07.gif","same_diff_imgs/C14.gif","yes","different","","true","1","","","","","","","","","","","","","","","","","","","","","","","","","","",""
"","","","","","html-keyboard-response","83","617555","0.0-5.0-2.19","A35CHBMYRAXDNZ","2022-05-27T00:56:10.517Z","same_different-phon_sim-task_switching-rhyme","","null",""," ","null","","","","","","","","","","","","","","","","","","","","","","","","","","","","","","","","","","",""
"","","","","","html-keyboard-response","84","617856","0.0-5.0-3.19","A35CHBMYRAXDNZ","2022-05-27T00:56:10.517Z","same_different-phon_sim-task_switching-rhyme","","null","same_different"," ","null","","","","","","","","","","","","","","","","","","","","","","","","","","","","","","","","","","",""
"","","","","","html-keyboard-response","85","618608","0.0-5.0-0.20","A35CHBMYRAXDNZ","2022-05-27T00:56:10.517Z","same_different-phon_sim-task_switching-rhyme","","null","same_different","<div style=""font-size:60px"">+</div>","null","","","","","","","","","","","","","","","","","","","","","","","","","","","","","","","","","","",""
"","","","","","html-keyboard-response","86","620536","0.0-5.0-1.20","A35CHBMYRAXDNZ","2022-05-27T00:56:10.517Z","same_different-phon_sim-task_switching-rhyme","","1925.7000000001863","same_different","[""<img src=\""square.png\"" width=\""100\"" height=\""100\"" style=\""position: fixed;left:39%;top:47%\""><img src=\""square.png\"" width=\""100\"" height=\""100\"" style=\""position: fixed;left:54%;top:47%\""><img src=\""square.png\"" width=\""100\"" height=\""100\"" style=\""position: fixed;left:46.5%;top:32%\""><img src=\""square.png\"" width=\""100\"" height=\""100\"" style=\""position: fixed;left:46.5%;top:61%\""><div style=\""font-size:60px; text-align: center;margin-top:45.5%\"">+</div><div id=\""first\"" style=\""position: fixed;visibility: hidden;left:55%;top:49%\""><img src=\""same_diff_imgs/D09.gif\""></div><div id=\""delayed\"" style=\""position: fixed;visibility: hidden;left:40%;top:48%\""><img src=\""same_diff_imgs/D09.gif\""></div>""]","arrowup","identical_image","same_diff_imgs/D09.gif","same_diff_imgs/D09.gif","no","same","1","true","","","","","","","","","","","","","","","","","","","","","","","","","","","",""
"","","","","","html-keyboard-response","87","620538","0.0-5.0-2.20","A35CHBMYRAXDNZ","2022-05-27T00:56:10.517Z","same_different-phon_sim-task_switching-rhyme","","null",""," ","null","","","","","","","","","","","","","","","","","","","","","","","","","","","","","","","","","","",""
"","","","","","html-keyboard-response","88","620839","0.0-5.0-3.20","A35CHBMYRAXDNZ","2022-05-27T00:56:10.517Z","same_different-phon_sim-task_switching-rhyme","","null","same_different"," ","null","","","","","","","","","","","","","","","","","","","","","","","","","","","","","","","","","","",""
"","","","","","html-keyboard-response","89","621590","0.0-5.0-0.21","A35CHBMYRAXDNZ","2022-05-27T00:56:10.517Z","same_different-phon_sim-task_switching-rhyme","","null","same_different","<div style=""font-size:60px"">+</div>","null","","","","","","","","","","","","","","","","","","","","","","","","","","","","","","","","","","",""
"","","","","","html-keyboard-response","90","623008","0.0-5.0-1.21","A35CHBMYRAXDNZ","2022-05-27T00:56:10.517Z","same_different-phon_sim-task_switching-rhyme","","1415.5","same_different","[""<img src=\""square.png\"" width=\""100\"" height=\""100\"" style=\""position: fixed;left:39%;top:47%\""><img src=\""square.png\"" width=\""100\"" height=\""100\"" style=\""position: fixed;left:54%;top:47%\""><img src=\""square.png\"" width=\""100\"" height=\""100\"" style=\""position: fixed;left:46.5%;top:32%\""><img src=\""square.png\"" width=\""100\"" height=\""100\"" style=\""position: fixed;left:46.5%;top:61%\""><div style=\""font-size:60px; text-align: center;margin-top:45.5%\"">+</div><div id=\""first\"" style=\""position: fixed;visibility: hidden;left:48%;top:62%\""><img src=\""same_diff_imgs/D09.gif\""></div><div id=\""delayed\"" style=\""position: fixed;visibility: hidden;left:40%;top:48%\""><img src=\""same_diff_imgs/D09.gif\""></div>""]","arrowup","identical_image","same_diff_imgs/D09.gif","same_diff_imgs/D09.gif","no","same","1","true","","","","","","","","","","","","","","","","","","","","","","","","","","","",""
"","","","","","html-keyboard-response","91","623010","0.0-5.0-2.21","A35CHBMYRAXDNZ","2022-05-27T00:56:10.517Z","same_different-phon_sim-task_switching-rhyme","","null",""," ","null","","","","","","","","","","","","","","","","","","","","","","","","","","","","","","","","","","",""
"","","","","","html-keyboard-response","92","623312","0.0-5.0-3.21","A35CHBMYRAXDNZ","2022-05-27T00:56:10.517Z","same_different-phon_sim-task_switching-rhyme","","null","same_different"," ","null","","","","","","","","","","","","","","","","","","","","","","","","","","","","","","","","","","",""
"","","","","","html-keyboard-response","93","624063","0.0-5.0-0.22","A35CHBMYRAXDNZ","2022-05-27T00:56:10.517Z","same_different-phon_sim-task_switching-rhyme","","null","same_different","<div style=""font-size:60px"">+</div>","null","","","","","","","","","","","","","","","","","","","","","","","","","","","","","","","","","","",""
"","","","","","html-keyboard-response","94","626656","0.0-5.0-1.22","A35CHBMYRAXDNZ","2022-05-27T00:56:10.517Z","same_different-phon_sim-task_switching-rhyme","","2589.6999999997206","same_different","[""<img src=\""square.png\"" width=\""100\"" height=\""100\"" style=\""position: fixed;left:39%;top:47%\""><img src=\""square.png\"" width=\""100\"" height=\""100\"" style=\""position: fixed;left:54%;top:47%\""><img src=\""square.png\"" width=\""100\"" height=\""100\"" style=\""position: fixed;left:46.5%;top:32%\""><img src=\""square.png\"" width=\""100\"" height=\""100\"" style=\""position: fixed;left:46.5%;top:61%\""><div style=\""font-size:60px; text-align: center;margin-top:45.5%\"">+</div><div id=\""first\"" style=\""position: fixed;visibility: hidden;left:40%;top:48%\""><img src=\""same_diff_imgs/D11.gif\""></div><div id=\""delayed\"" style=\""position: fixed;visibility: hidden;left:48%;top:34%\""><img src=\""same_diff_imgs/D11.gif\""></div>""]","arrowup","identical_image","same_diff_imgs/D11.gif","same_diff_imgs/D11.gif","no","same","1","true","","","","","","","","","","","","","","","","","","","","","","","","","","","",""
"","","","","","html-keyboard-response","95","626658","0.0-5.0-2.22","A35CHBMYRAXDNZ","2022-05-27T00:56:10.517Z","same_different-phon_sim-task_switching-rhyme","","null",""," ","null","","","","","","","","","","","","","","","","","","","","","","","","","","","","","","","","","","",""
"","","","","","html-keyboard-response","96","626961","0.0-5.0-3.22","A35CHBMYRAXDNZ","2022-05-27T00:56:10.517Z","same_different-phon_sim-task_switching-rhyme","","null","same_different"," ","null","","","","","","","","","","","","","","","","","","","","","","","","","","","","","","","","","","",""
"","","","","","html-keyboard-response","97","627712","0.0-5.0-0.23","A35CHBMYRAXDNZ","2022-05-27T00:56:10.517Z","same_different-phon_sim-task_switching-rhyme","","null","same_different","<div style=""font-size:60px"">+</div>","null","","","","","","","","","","","","","","","","","","","","","","","","","","","","","","","","","","",""
"","","","","","html-keyboard-response","98","629800","0.0-5.0-1.23","A35CHBMYRAXDNZ","2022-05-27T00:56:10.517Z","same_different-phon_sim-task_switching-rhyme","","2086.100000000093","same_different","[""<img src=\""square.png\"" width=\""100\"" height=\""100\"" style=\""position: fixed;left:39%;top:47%\""><img src=\""square.png\"" width=\""100\"" height=\""100\"" style=\""position: fixed;left:54%;top:47%\""><img src=\""square.png\"" width=\""100\"" height=\""100\"" style=\""position: fixed;left:46.5%;top:32%\""><img src=\""square.png\"" width=\""100\"" height=\""100\"" style=\""position: fixed;left:46.5%;top:61%\""><div style=\""font-size:60px;text-align: center;margin-top:45.5%\"">+</div><div id=\""first\"" style=\""position: fixed;visibility: hidden;left:48%;top:62%\""><img src=\""same_diff_imgs/D07.gif\"" style=\""-webkit-transform: scaleX(-1);transform: scaleX(-1);\""></div><div id=\""delayed\"" style=\""position: fixed;visibility: hidden;left:48%;top:34%\""><img src=\""same_diff_imgs/C04.gif\"" style=\""-webkit-transform: scaleX(-1);transform: scaleX(-1);\""></div>""]","arrowdown","identical_image","same_diff_imgs/D07.gif","same_diff_imgs/C04.gif","yes","different","","true","1","","","","","","","","","","","","","","","","","","","","","","","","","","",""
"","","","","","html-keyboard-response","99","629802","0.0-5.0-2.23","A35CHBMYRAXDNZ","2022-05-27T00:56:10.517Z","same_different-phon_sim-task_switching-rhyme","","null",""," ","null","","","","","","","","","","","","","","","","","","","","","","","","","","","","","","","","","","",""
"","","","","","html-keyboard-response","100","630104","0.0-5.0-3.23","A35CHBMYRAXDNZ","2022-05-27T00:56:10.517Z","same_different-phon_sim-task_switching-rhyme","","null","same_different"," ","null","","","","","","","","","","","","","","","","","","","","","","","","","","","","","","","","","","",""
"","","","","","html-keyboard-response","101","630855","0.0-5.0-0.24","A35CHBMYRAXDNZ","2022-05-27T00:56:10.517Z","same_different-phon_sim-task_switching-rhyme","","null","same_different","<div style=""font-size:60px"">+</div>","null","","","","","","","","","","","","","","","","","","","","","","","","","","","","","","","","","","",""
"","","","","","html-keyboard-response","102","633376","0.0-5.0-1.24","A35CHBMYRAXDNZ","2022-05-27T00:56:10.517Z","same_different-phon_sim-task_switching-rhyme","","2519.100000000093","same_different","[""<img src=\""square.png\"" width=\""100\"" height=\""100\"" style=\""position: fixed;left:39%;top:47%\""><img src=\""square.png\"" width=\""100\"" height=\""100\"" style=\""position: fixed;left:54%;top:47%\""><img src=\""square.png\"" width=\""100\"" height=\""100\"" style=\""position: fixed;left:46.5%;top:32%\""><img src=\""square.png\"" width=\""100\"" height=\""100\"" style=\""position: fixed;left:46.5%;top:61%\""><div style=\""font-size:60px;text-align: center;margin-top:45.5%\"">+</div><div id=\""first\"" style=\""position: fixed;visibility: hidden;left:48%;top:62%\""><img src=\""same_diff_imgs/C04.gif\"" style=\""-webkit-transform: scaleX(-1);transform: scaleX(-1);\""></div><div id=\""delayed\"" style=\""position: fixed;visibility: hidden;left:55%;top:49%\""><img src=\""same_diff_imgs/D11.gif\"" style=\""-webkit-transform: scaleX(-1);transform: scaleX(-1);\""></div>""]","arrowdown","identical_image","same_diff_imgs/C04.gif","same_diff_imgs/D11.gif","yes","different","","true","1","","","","","","","","","","","","","","","","","","","","","","","","","","",""
"","","","","","html-keyboard-response","103","633378","0.0-5.0-2.24","A35CHBMYRAXDNZ","2022-05-27T00:56:10.517Z","same_different-phon_sim-task_switching-rhyme","","null",""," ","null","","","","","","","","","","","","","","","","","","","","","","","","","","","","","","","","","","",""
"","","","","","html-keyboard-response","104","633681","0.0-5.0-3.24","A35CHBMYRAXDNZ","2022-05-27T00:56:10.517Z","same_different-phon_sim-task_switching-rhyme","","null","same_different"," ","null","","","","","","","","","","","","","","","","","","","","","","","","","","","","","","","","","","",""
"","","","","","html-keyboard-response","105","634433","0.0-5.0-0.25","A35CHBMYRAXDNZ","2022-05-27T00:56:10.517Z","same_different-phon_sim-task_switching-rhyme","","null","same_different","<div style=""font-size:60px"">+</div>","null","","","","","","","","","","","","","","","","","","","","","","","","","","","","","","","","","","",""
"","","","","","html-keyboard-response","106","638152","0.0-5.0-1.25","A35CHBMYRAXDNZ","2022-05-27T00:56:10.517Z","same_different-phon_sim-task_switching-rhyme","","3717.4000000003725","same_different","[""<img src=\""square.png\"" width=\""100\"" height=\""100\"" style=\""position: fixed;left:39%;top:47%\""><img src=\""square.png\"" width=\""100\"" height=\""100\"" style=\""position: fixed;left:54%;top:47%\""><img src=\""square.png\"" width=\""100\"" height=\""100\"" style=\""position: fixed;left:46.5%;top:32%\""><img src=\""square.png\"" width=\""100\"" height=\""100\"" style=\""position: fixed;left:46.5%;top:61%\""><div style=\""font-size:60px; text-align: center;margin-top:45.5%\"">+</div><div id=\""first\"" style=\""position: fixed;visibility: hidden;left:48%;top:34%\""><img src=\""same_diff_imgs/C09.gif\""></div><div id=\""delayed\"" style=\""position: fixed;visibility: hidden;left:48%;top:62%\""><img src=\""same_diff_imgs/C09.gif\""></div>""]","arrowup","identical_image","same_diff_imgs/C09.gif","same_diff_imgs/C09.gif","no","same","1","true","","","","","","","","","","","","","","","","","","","","","","","","","","","",""
"","","","","","html-keyboard-response","107","638154","0.0-5.0-2.25","A35CHBMYRAXDNZ","2022-05-27T00:56:10.517Z","same_different-phon_sim-task_switching-rhyme","","null",""," ","null","","","","","","","","","","","","","","","","","","","","","","","","","","","","","","","","","","",""
"","","","","","html-keyboard-response","108","638455","0.0-5.0-3.25","A35CHBMYRAXDNZ","2022-05-27T00:56:10.517Z","same_different-phon_sim-task_switching-rhyme","","null","same_different"," ","null","","","","","","","","","","","","","","","","","","","","","","","","","","","","","","","","","","",""
"","","","","","html-keyboard-response","109","639207","0.0-5.0-0.26","A35CHBMYRAXDNZ","2022-05-27T00:56:10.517Z","same_different-phon_sim-task_switching-rhyme","","null","same_different","<div style=""font-size:60px"">+</div>","null","","","","","","","","","","","","","","","","","","","","","","","","","","","","","","","","","","",""
"","","","","","html-keyboard-response","110","640761","0.0-5.0-1.26","A35CHBMYRAXDNZ","2022-05-27T00:56:10.517Z","same_different-phon_sim-task_switching-rhyme","","1551.8999999999069","same_different","[""<img src=\""square.png\"" width=\""100\"" height=\""100\"" style=\""position: fixed;left:39%;top:47%\""><img src=\""square.png\"" width=\""100\"" height=\""100\"" style=\""position: fixed;left:54%;top:47%\""><img src=\""square.png\"" width=\""100\"" height=\""100\"" style=\""position: fixed;left:46.5%;top:32%\""><img src=\""square.png\"" width=\""100\"" height=\""100\"" style=\""position: fixed;left:46.5%;top:61%\""><div style=\""font-size:60px; text-align: center;margin-top:45.5%\"">+</div><div id=\""first\"" style=\""position: fixed;visibility: hidden;left:40%;top:48%\""><img src=\""same_diff_imgs/D09.gif\""></div><div id=\""delayed\"" style=\""position: fixed;visibility: hidden;left:55%;top:49%\""><img src=\""same_diff_imgs/D09.gif\""></div>""]","arrowup","identical_image","same_diff_imgs/D09.gif","same_diff_imgs/D09.gif","no","same","1","true","","","","","","","","","","","","","","","","","","","","","","","","","","","",""
"","","","","","html-keyboard-response","111","640764","0.0-5.0-2.26","A35CHBMYRAXDNZ","2022-05-27T00:56:10.517Z","same_different-phon_sim-task_switching-rhyme","","null",""," ","null","","","","","","","","","","","","","","","","","","","","","","","","","","","","","","","","","","",""
"","","","","","html-keyboard-response","112","641065","0.0-5.0-3.26","A35CHBMYRAXDNZ","2022-05-27T00:56:10.517Z","same_different-phon_sim-task_switching-rhyme","","null","same_different"," ","null","","","","","","","","","","","","","","","","","","","","","","","","","","","","","","","","","","",""
"","","","","","html-keyboard-response","113","641817","0.0-5.0-0.27","A35CHBMYRAXDNZ","2022-05-27T00:56:10.517Z","same_different-phon_sim-task_switching-rhyme","","null","same_different","<div style=""font-size:60px"">+</div>","null","","","","","","","","","","","","","","","","","","","","","","","","","","","","","","","","","","",""
"","","","","","html-keyboard-response","114","643681","0.0-5.0-1.27","A35CHBMYRAXDNZ","2022-05-27T00:56:10.517Z","same_different-phon_sim-task_switching-rhyme","","1861","same_different","[""<img src=\""square.png\"" width=\""100\"" height=\""100\"" style=\""position: fixed;left:39%;top:47%\""><img src=\""square.png\"" width=\""100\"" height=\""100\"" style=\""position: fixed;left:54%;top:47%\""><img src=\""square.png\"" width=\""100\"" height=\""100\"" style=\""position: fixed;left:46.5%;top:32%\""><img src=\""square.png\"" width=\""100\"" height=\""100\"" style=\""position: fixed;left:46.5%;top:61%\""><div style=\""font-size:60px;text-align: center;margin-top:45.5%\"">+</div><div id=\""first\"" style=\""position: fixed;visibility: hidden;left:40%;top:48%\""><img src=\""same_diff_imgs/D11.gif\"" style=\""-webkit-transform: scaleX(-1);transform: scaleX(-1);\""></div><div id=\""delayed\"" style=\""position: fixed;visibility: hidden;left:55%;top:49%\""><img src=\""same_diff_imgs/D09.gif\"" style=\""-webkit-transform: scaleX(-1);transform: scaleX(-1);\""></div>""]","arrowdown","identical_image","same_diff_imgs/D11.gif","same_diff_imgs/D09.gif","yes","different","","true","1","","","","","","","","","","","","","","","","","","","","","","","","","","",""
"","","","","","html-keyboard-response","115","643684","0.0-5.0-2.27","A35CHBMYRAXDNZ","2022-05-27T00:56:10.517Z","same_different-phon_sim-task_switching-rhyme","","null",""," ","null","","","","","","","","","","","","","","","","","","","","","","","","","","","","","","","","","","",""
"","","","","","html-keyboard-response","116","643986","0.0-5.0-3.27","A35CHBMYRAXDNZ","2022-05-27T00:56:10.517Z","same_different-phon_sim-task_switching-rhyme","","null","same_different"," ","null","","","","","","","","","","","","","","","","","","","","","","","","","","","","","","","","","","",""
"","","","","","html-keyboard-response","117","644738","0.0-5.0-0.28","A35CHBMYRAXDNZ","2022-05-27T00:56:10.517Z","same_different-phon_sim-task_switching-rhyme","","null","same_different","<div style=""font-size:60px"">+</div>","null","","","","","","","","","","","","","","","","","","","","","","","","","","","","","","","","","","",""
"","","","","","html-keyboard-response","118","646296","0.0-5.0-1.28","A35CHBMYRAXDNZ","2022-05-27T00:56:10.517Z","same_different-phon_sim-task_switching-rhyme","","1555.5","same_different","[""<img src=\""square.png\"" width=\""100\"" height=\""100\"" style=\""position: fixed;left:39%;top:47%\""><img src=\""square.png\"" width=\""100\"" height=\""100\"" style=\""position: fixed;left:54%;top:47%\""><img src=\""square.png\"" width=\""100\"" height=\""100\"" style=\""position: fixed;left:46.5%;top:32%\""><img src=\""square.png\"" width=\""100\"" height=\""100\"" style=\""position: fixed;left:46.5%;top:61%\""><div style=\""font-size:60px; text-align: center;margin-top:45.5%\"">+</div><div id=\""first\"" style=\""position: fixed;visibility: hidden;left:40%;top:48%\""><img src=\""same_diff_imgs/D11.gif\""></div><div id=\""delayed\"" style=\""position: fixed;visibility: hidden;left:55%;top:49%\""><img src=\""same_diff_imgs/D11.gif\""></div>""]","arrowup","identical_image","same_diff_imgs/D11.gif","same_diff_imgs/D11.gif","no","same","1","true","","","","","","","","","","","","","","","","","","","","","","","","","","","",""
"","","","","","html-keyboard-response","119","646298","0.0-5.0-2.28","A35CHBMYRAXDNZ","2022-05-27T00:56:10.517Z","same_different-phon_sim-task_switching-rhyme","","null",""," ","null","","","","","","","","","","","","","","","","","","","","","","","","","","","","","","","","","","",""
"","","","","","html-keyboard-response","120","646599","0.0-5.0-3.28","A35CHBMYRAXDNZ","2022-05-27T00:56:10.517Z","same_different-phon_sim-task_switching-rhyme","","null","same_different"," ","null","","","","","","","","","","","","","","","","","","","","","","","","","","","","","","","","","","",""
"","","","","","html-keyboard-response","121","647350","0.0-5.0-0.29","A35CHBMYRAXDNZ","2022-05-27T00:56:10.517Z","same_different-phon_sim-task_switching-rhyme","","null","same_different","<div style=""font-size:60px"">+</div>","null","","","","","","","","","","","","","","","","","","","","","","","","","","","","","","","","","","",""
"","","","","","html-keyboard-response","122","671186","0.0-5.0-1.29","A35CHBMYRAXDNZ","2022-05-27T00:56:10.517Z","same_different-phon_sim-task_switching-rhyme","","23833.600000000093","same_different","[""<img src=\""square.png\"" width=\""100\"" height=\""100\"" style=\""position: fixed;left:39%;top:47%\""><img src=\""square.png\"" width=\""100\"" height=\""100\"" style=\""position: fixed;left:54%;top:47%\""><img src=\""square.png\"" width=\""100\"" height=\""100\"" style=\""position: fixed;left:46.5%;top:32%\""><img src=\""square.png\"" width=\""100\"" height=\""100\"" style=\""position: fixed;left:46.5%;top:61%\""><div style=\""font-size:60px;text-align: center;margin-top:45.5%\"">+</div><div id=\""first\"" style=\""position: fixed;visibility: hidden;left:48%;top:62%\""><img src=\""same_diff_imgs/C04.gif\"" style=\""-webkit-transform: scaleX(-1);transform: scaleX(-1);\""></div><div id=\""delayed\"" style=\""position: fixed;visibility: hidden;left:48%;top:34%\""><img src=\""same_diff_imgs/C14.gif\"" style=\""-webkit-transform: scaleX(-1);transform: scaleX(-1);\""></div>""]","arrowdown","identical_image","same_diff_imgs/C04.gif","same_diff_imgs/C14.gif","yes","different","","true","1","","","","","","","","","","","","","","","","","","","","","","","","","","",""
"","","","","","html-keyboard-response","123","671189","0.0-5.0-2.29","A35CHBMYRAXDNZ","2022-05-27T00:56:10.517Z","same_different-phon_sim-task_switching-rhyme","","null",""," ","null","","","","","","","","","","","","","","","","","","","","","","","","","","","","","","","","","","",""
"","","","","","html-keyboard-response","124","671491","0.0-5.0-3.29","A35CHBMYRAXDNZ","2022-05-27T00:56:10.517Z","same_different-phon_sim-task_switching-rhyme","","null","same_different"," ","null","","","","","","","","","","","","","","","","","","","","","","","","","","","","","","","","","","",""
"","","","","","html-keyboard-response","125","672242","0.0-5.0-0.30","A35CHBMYRAXDNZ","2022-05-27T00:56:10.517Z","same_different-phon_sim-task_switching-rhyme","","null","same_different","<div style=""font-size:60px"">+</div>","null","","","","","","","","","","","","","","","","","","","","","","","","","","","","","","","","","","",""
"","","","","","html-keyboard-response","126","678201","0.0-5.0-1.30","A35CHBMYRAXDNZ","2022-05-27T00:56:10.517Z","same_different-phon_sim-task_switching-rhyme","","5955.899999999907","same_different","[""<img src=\""square.png\"" width=\""100\"" height=\""100\"" style=\""position: fixed;left:39%;top:47%\""><img src=\""square.png\"" width=\""100\"" height=\""100\"" style=\""position: fixed;left:54%;top:47%\""><img src=\""square.png\"" width=\""100\"" height=\""100\"" style=\""position: fixed;left:46.5%;top:32%\""><img src=\""square.png\"" width=\""100\"" height=\""100\"" style=\""position: fixed;left:46.5%;top:61%\""><div style=\""font-size:60px; text-align: center;margin-top:45.5%\"">+</div><div id=\""first\"" style=\""position: fixed;visibility: hidden;left:48%;top:62%\""><img src=\""same_diff_imgs/C09.gif\""></div><div id=\""delayed\"" style=\""position: fixed;visibility: hidden;left:48%;top:34%\""><img src=\""same_diff_imgs/C09.gif\""></div>""]","arrowdown","identical_image","same_diff_imgs/C09.gif","same_diff_imgs/C09.gif","no","same","","false","","","1","","","","","","","","","","","","","","","","","","","","","","","","",""
"","","","","","html-keyboard-response","127","678704","0.0-5.0-2.30","A35CHBMYRAXDNZ","2022-05-27T00:56:10.517Z","same_different-phon_sim-task_switching-rhyme","","null","","<div style=""color:darkred; font-size:40px"">Incorrect!</div>","null","","","","","","","","","","","","","","","","","","","","","","","","","","","","","","","","","","",""
"","","","","","html-keyboard-response","128","679006","0.0-5.0-3.30","A35CHBMYRAXDNZ","2022-05-27T00:56:10.517Z","same_different-phon_sim-task_switching-rhyme","","null","same_different"," ","null","","","","","","","","","","","","","","","","","","","","","","","","","","","","","","","","","","",""
"","","","","","html-keyboard-response","129","679757","0.0-5.0-0.31","A35CHBMYRAXDNZ","2022-05-27T00:56:10.517Z","same_different-phon_sim-task_switching-rhyme","","null","same_different","<div style=""font-size:60px"">+</div>","null","","","","","","","","","","","","","","","","","","","","","","","","","","","","","","","","","","",""
"","","","","","html-keyboard-response","130","682042","0.0-5.0-1.31","A35CHBMYRAXDNZ","2022-05-27T00:56:10.517Z","same_different-phon_sim-task_switching-rhyme","","2281.3000000002794","same_different","[""<img src=\""square.png\"" width=\""100\"" height=\""100\"" style=\""position: fixed;left:39%;top:47%\""><img src=\""square.png\"" width=\""100\"" height=\""100\"" style=\""position: fixed;left:54%;top:47%\""><img src=\""square.png\"" width=\""100\"" height=\""100\"" style=\""position: fixed;left:46.5%;top:32%\""><img src=\""square.png\"" width=\""100\"" height=\""100\"" style=\""position: fixed;left:46.5%;top:61%\""><div style=\""font-size:60px;text-align: center;margin-top:45.5%\"">+</div><div id=\""first\"" style=\""position: fixed;visibility: hidden;left:48%;top:34%\""><img src=\""same_diff_imgs/D07.gif\"" style=\""-webkit-transform: scaleX(-1);transform: scaleX(-1);\""></div><div id=\""delayed\"" style=\""position: fixed;visibility: hidden;left:40%;top:48%\""><img src=\""same_diff_imgs/D11.gif\"" style=\""-webkit-transform: scaleX(-1);transform: scaleX(-1);\""></div>""]","arrowdown","identical_image","same_diff_imgs/D07.gif","same_diff_imgs/D11.gif","yes","different","","true","1","","","","","","","","","","","","","","","","","","","","","","","","","","",""
"","","","","","html-keyboard-response","131","682044","0.0-5.0-2.31","A35CHBMYRAXDNZ","2022-05-27T00:56:10.517Z","same_different-phon_sim-task_switching-rhyme","","null",""," ","null","","","","","","","","","","","","","","","","","","","","","","","","","","","","","","","","","","",""
"","","","","","html-keyboard-response","132","682346","0.0-5.0-3.31","A35CHBMYRAXDNZ","2022-05-27T00:56:10.517Z","same_different-phon_sim-task_switching-rhyme","","null","same_different"," ","null","","","","","","","","","","","","","","","","","","","","","","","","","","","","","","","","","","",""
"","","","","","html-keyboard-response","133","683099","0.0-5.0-0.32","A35CHBMYRAXDNZ","2022-05-27T00:56:10.517Z","same_different-phon_sim-task_switching-rhyme","","null","same_different","<div style=""font-size:60px"">+</div>","null","","","","","","","","","","","","","","","","","","","","","","","","","","","","","","","","","","",""
"","","","","","html-keyboard-response","134","695451","0.0-5.0-1.32","A35CHBMYRAXDNZ","2022-05-27T00:56:10.517Z","same_different-phon_sim-task_switching-rhyme","","12348.600000000093","same_different","[""<img src=\""square.png\"" width=\""100\"" height=\""100\"" style=\""position: fixed;left:39%;top:47%\""><img src=\""square.png\"" width=\""100\"" height=\""100\"" style=\""position: fixed;left:54%;top:47%\""><img src=\""square.png\"" width=\""100\"" height=\""100\"" style=\""position: fixed;left:46.5%;top:32%\""><img src=\""square.png\"" width=\""100\"" height=\""100\"" style=\""position: fixed;left:46.5%;top:61%\""><div style=\""font-size:60px; text-align: center;margin-top:45.5%\"">+</div><div id=\""first\"" style=\""position: fixed;visibility: hidden;left:48%;top:34%\""><img src=\""same_diff_imgs/D09.gif\""></div><div id=\""delayed\"" style=\""position: fixed;visibility: hidden;left:48%;top:62%\""><img src=\""same_diff_imgs/C04.gif\""></div>""]","arrowdown","identical_image","same_diff_imgs/D09.gif","same_diff_imgs/C04.gif","no","different","","true","1","","","","","","","","","","","","","","","","","","","","","","","","","","",""
"","","","","","html-keyboard-response","135","695453","0.0-5.0-2.32","A35CHBMYRAXDNZ","2022-05-27T00:56:10.517Z","same_different-phon_sim-task_switching-rhyme","","null",""," ","null","","","","","","","","","","","","","","","","","","","","","","","","","","","","","","","","","","",""
"","","","","","html-keyboard-response","136","695754","0.0-5.0-3.32","A35CHBMYRAXDNZ","2022-05-27T00:56:10.517Z","same_different-phon_sim-task_switching-rhyme","","null","same_different"," ","null","","","","","","","","","","","","","","","","","","","","","","","","","","","","","","","","","","",""
"","","","","","html-keyboard-response","137","696507","0.0-5.0-0.33","A35CHBMYRAXDNZ","2022-05-27T00:56:10.517Z","same_different-phon_sim-task_switching-rhyme","","null","same_different","<div style=""font-size:60px"">+</div>","null","","","","","","","","","","","","","","","","","","","","","","","","","","","","","","","","","","",""
"","","","","","html-keyboard-response","138","702298","0.0-5.0-1.33","A35CHBMYRAXDNZ","2022-05-27T00:56:10.517Z","same_different-phon_sim-task_switching-rhyme","","5788.899999999907","same_different","[""<img src=\""square.png\"" width=\""100\"" height=\""100\"" style=\""position: fixed;left:39%;top:47%\""><img src=\""square.png\"" width=\""100\"" height=\""100\"" style=\""position: fixed;left:54%;top:47%\""><img src=\""square.png\"" width=\""100\"" height=\""100\"" style=\""position: fixed;left:46.5%;top:32%\""><img src=\""square.png\"" width=\""100\"" height=\""100\"" style=\""position: fixed;left:46.5%;top:61%\""><div style=\""font-size:60px;text-align: center;margin-top:45.5%\"">+</div><div id=\""first\"" style=\""position: fixed;visibility: hidden;left:40%;top:48%\""><img src=\""same_diff_imgs/D11.gif\"" style=\""-webkit-transform: scaleX(-1);transform: scaleX(-1);\""></div><div id=\""delayed\"" style=\""position: fixed;visibility: hidden;left:48%;top:62%\""><img src=\""same_diff_imgs/C14.gif\"" style=\""-webkit-transform: scaleX(-1);transform: scaleX(-1);\""></div>""]","arrowdown","identical_image","same_diff_imgs/D11.gif","same_diff_imgs/C14.gif","yes","different","","true","1","","","","","","","","","","","","","","","","","","","","","","","","","","",""
"","","","","","html-keyboard-response","139","702300","0.0-5.0-2.33","A35CHBMYRAXDNZ","2022-05-27T00:56:10.517Z","same_different-phon_sim-task_switching-rhyme","","null",""," ","null","","","","","","","","","","","","","","","","","","","","","","","","","","","","","","","","","","",""
"","","","","","html-keyboard-response","140","702602","0.0-5.0-3.33","A35CHBMYRAXDNZ","2022-05-27T00:56:10.517Z","same_different-phon_sim-task_switching-rhyme","","null","same_different"," ","null","","","","","","","","","","","","","","","","","","","","","","","","","","","","","","","","","","",""
"","","","","","html-keyboard-response","141","703353","0.0-5.0-0.34","A35CHBMYRAXDNZ","2022-05-27T00:56:10.517Z","same_different-phon_sim-task_switching-rhyme","","null","same_different","<div style=""font-size:60px"">+</div>","null","","","","","","","","","","","","","","","","","","","","","","","","","","","","","","","","","","",""
"","","","","","html-keyboard-response","142","710554","0.0-5.0-1.34","A35CHBMYRAXDNZ","2022-05-27T00:56:10.517Z","same_different-phon_sim-task_switching-rhyme","","7198","same_different","[""<img src=\""square.png\"" width=\""100\"" height=\""100\"" style=\""position: fixed;left:39%;top:47%\""><img src=\""square.png\"" width=\""100\"" height=\""100\"" style=\""position: fixed;left:54%;top:47%\""><img src=\""square.png\"" width=\""100\"" height=\""100\"" style=\""position: fixed;left:46.5%;top:32%\""><img src=\""square.png\"" width=\""100\"" height=\""100\"" style=\""position: fixed;left:46.5%;top:61%\""><div style=\""font-size:60px; text-align: center;margin-top:45.5%\"">+</div><div id=\""first\"" style=\""position: fixed;visibility: hidden;left:48%;top:62%\""><img src=\""same_diff_imgs/C09.gif\""></div><div id=\""delayed\"" style=\""position: fixed;visibility: hidden;left:40%;top:48%\""><img src=\""same_diff_imgs/D07.gif\""></div>""]","arrowdown","identical_image","same_diff_imgs/C09.gif","same_diff_imgs/D07.gif","no","different","","true","1","","","","","","","","","","","","","","","","","","","","","","","","","","",""
"","","","","","html-keyboard-response","143","710557","0.0-5.0-2.34","A35CHBMYRAXDNZ","2022-05-27T00:56:10.517Z","same_different-phon_sim-task_switching-rhyme","","null",""," ","null","","","","","","","","","","","","","","","","","","","","","","","","","","","","","","","","","","",""
"","","","","","html-keyboard-response","144","710859","0.0-5.0-3.34","A35CHBMYRAXDNZ","2022-05-27T00:56:10.517Z","same_different-phon_sim-task_switching-rhyme","","null","same_different"," ","null","","","","","","","","","","","","","","","","","","","","","","","","","","","","","","","","","","",""
"","","","","","html-keyboard-response","145","711610","0.0-5.0-0.35","A35CHBMYRAXDNZ","2022-05-27T00:56:10.517Z","same_different-phon_sim-task_switching-rhyme","","null","same_different","<div style=""font-size:60px"">+</div>","null","","","","","","","","","","","","","","","","","","","","","","","","","","","","","","","","","","",""
"","","","","","html-keyboard-response","146","722235","0.0-5.0-1.35","A35CHBMYRAXDNZ","2022-05-27T00:56:10.517Z","same_different-phon_sim-task_switching-rhyme","","10620.80000000028","same_different","[""<img src=\""square.png\"" width=\""100\"" height=\""100\"" style=\""position: fixed;left:39%;top:47%\""><img src=\""square.png\"" width=\""100\"" height=\""100\"" style=\""position: fixed;left:54%;top:47%\""><img src=\""square.png\"" width=\""100\"" height=\""100\"" style=\""position: fixed;left:46.5%;top:32%\""><img src=\""square.png\"" width=\""100\"" height=\""100\"" style=\""position: fixed;left:46.5%;top:61%\""><div style=\""font-size:60px;text-align: center;margin-top:45.5%\"">+</div><div id=\""first\"" style=\""position: fixed;visibility: hidden;left:55%;top:49%\""><img src=\""same_diff_imgs/D07.gif\"" style=\""-webkit-transform: scaleX(-1);transform: scaleX(-1);\""></div><div id=\""delayed\"" style=\""position: fixed;visibility: hidden;left:40%;top:48%\""><img src=\""same_diff_imgs/D09.gif\"" style=\""-webkit-transform: scaleX(-1);transform: scaleX(-1);\""></div>""]","arrowdown","identical_image","same_diff_imgs/D07.gif","same_diff_imgs/D09.gif","yes","different","","true","1","","","","","","","","","","","","","","","","","","","","","","","","","","",""
"","","","","","html-keyboard-response","147","722237","0.0-5.0-2.35","A35CHBMYRAXDNZ","2022-05-27T00:56:10.517Z","same_different-phon_sim-task_switching-rhyme","","null",""," ","null","","","","","","","","","","","","","","","","","","","","","","","","","","","","","","","","","","",""
"","","","","","html-keyboard-response","148","722539","0.0-5.0-3.35","A35CHBMYRAXDNZ","2022-05-27T00:56:10.517Z","same_different-phon_sim-task_switching-rhyme","","null","same_different"," ","null","","","","","","","","","","","","","","","","","","","","","","","","","","","","","","","","","","",""
"","","","","","html-keyboard-response","149","723290","0.0-5.0-0.36","A35CHBMYRAXDNZ","2022-05-27T00:56:10.517Z","same_different-phon_sim-task_switching-rhyme","","null","same_different","<div style=""font-size:60px"">+</div>","null","","","","","","","","","","","","","","","","","","","","","","","","","","","","","","","","","","",""
"","","","","","html-keyboard-response","150","725732","0.0-5.0-1.36","A35CHBMYRAXDNZ","2022-05-27T00:56:10.517Z","same_different-phon_sim-task_switching-rhyme","","2439.100000000093","same_different","[""<img src=\""square.png\"" width=\""100\"" height=\""100\"" style=\""position: fixed;left:39%;top:47%\""><img src=\""square.png\"" width=\""100\"" height=\""100\"" style=\""position: fixed;left:54%;top:47%\""><img src=\""square.png\"" width=\""100\"" height=\""100\"" style=\""position: fixed;left:46.5%;top:32%\""><img src=\""square.png\"" width=\""100\"" height=\""100\"" style=\""position: fixed;left:46.5%;top:61%\""><div style=\""font-size:60px; text-align: center;margin-top:45.5%\"">+</div><div id=\""first\"" style=\""position: fixed;visibility: hidden;left:48%;top:34%\""><img src=\""same_diff_imgs/D11.gif\""></div><div id=\""delayed\"" style=\""position: fixed;visibility: hidden;left:48%;top:62%\""><img src=\""same_diff_imgs/C04.gif\""></div>""]","arrowdown","identical_image","same_diff_imgs/D11.gif","same_diff_imgs/C04.gif","no","different","","true","1","","","","","","","","","","","","","","","","","","","","","","","","","","",""
"","","","","","html-keyboard-response","151","725734","0.0-5.0-2.36","A35CHBMYRAXDNZ","2022-05-27T00:56:10.517Z","same_different-phon_sim-task_switching-rhyme","","null",""," ","null","","","","","","","","","","","","","","","","","","","","","","","","","","","","","","","","","","",""
"","","","","","html-keyboard-response","152","726035","0.0-5.0-3.36","A35CHBMYRAXDNZ","2022-05-27T00:56:10.517Z","same_different-phon_sim-task_switching-rhyme","","null","same_different"," ","null","","","","","","","","","","","","","","","","","","","","","","","","","","","","","","","","","","",""
"","","","","","html-keyboard-response","153","726787","0.0-5.0-0.37","A35CHBMYRAXDNZ","2022-05-27T00:56:10.517Z","same_different-phon_sim-task_switching-rhyme","","null","same_different","<div style=""font-size:60px"">+</div>","null","","","","","","","","","","","","","","","","","","","","","","","","","","","","","","","","","","",""
"","","","","","html-keyboard-response","154","871450","0.0-5.0-1.37","A35CHBMYRAXDNZ","2022-05-27T00:56:10.517Z","same_different-phon_sim-task_switching-rhyme","","144653.5","same_different","[""<img src=\""square.png\"" width=\""100\"" height=\""100\"" style=\""position: fixed;left:39%;top:47%\""><img src=\""square.png\"" width=\""100\"" height=\""100\"" style=\""position: fixed;left:54%;top:47%\""><img src=\""square.png\"" width=\""100\"" height=\""100\"" style=\""position: fixed;left:46.5%;top:32%\""><img src=\""square.png\"" width=\""100\"" height=\""100\"" style=\""position: fixed;left:46.5%;top:61%\""><div style=\""font-size:60px; text-align: center;margin-top:45.5%\"">+</div><div id=\""first\"" style=\""position: fixed;visibility: hidden;left:55%;top:49%\""><img src=\""same_diff_imgs/C04.gif\""></div><div id=\""delayed\"" style=\""position: fixed;visibility: hidden;left:40%;top:48%\""><img src=\""same_diff_imgs/C04.gif\""></div>""]","arrowup","identical_image","same_diff_imgs/C04.gif","same_diff_imgs/C04.gif","no","same","1","true","","","","","","","","","","","","","","","","","","","","","","","","","","","",""
"","","","","","html-keyboard-response","155","871465","0.0-5.0-2.37","A35CHBMYRAXDNZ","2022-05-27T00:56:10.517Z","same_different-phon_sim-task_switching-rhyme","","null",""," ","null","","","","","","","","","","","","","","","","","","","","","","","","","","","","","","","","","","",""
"","","","","","html-keyboard-response","156","871767","0.0-5.0-3.37","A35CHBMYRAXDNZ","2022-05-27T00:56:10.517Z","same_different-phon_sim-task_switching-rhyme","","null","same_different"," ","null","","","","","","","","","","","","","","","","","","","","","","","","","","","","","","","","","","",""
"","","","","","html-keyboard-response","157","872520","0.0-5.0-0.38","A35CHBMYRAXDNZ","2022-05-27T00:56:10.517Z","same_different-phon_sim-task_switching-rhyme","","null","same_different","<div style=""font-size:60px"">+</div>","null","","","","","","","","","","","","","","","","","","","","","","","","","","","","","","","","","","",""
"","","","","","html-keyboard-response","158","895783","0.0-5.0-1.38","A35CHBMYRAXDNZ","2022-05-27T00:56:10.517Z","same_different-phon_sim-task_switching-rhyme","","23255.80000000028","same_different","[""<img src=\""square.png\"" width=\""100\"" height=\""100\"" style=\""position: fixed;left:39%;top:47%\""><img src=\""square.png\"" width=\""100\"" height=\""100\"" style=\""position: fixed;left:54%;top:47%\""><img src=\""square.png\"" width=\""100\"" height=\""100\"" style=\""position: fixed;left:46.5%;top:32%\""><img src=\""square.png\"" width=\""100\"" height=\""100\"" style=\""position: fixed;left:46.5%;top:61%\""><div style=\""font-size:60px; text-align: center;margin-top:45.5%\"">+</div><div id=\""first\"" style=\""position: fixed;visibility: hidden;left:40%;top:48%\""><img src=\""same_diff_imgs/C09.gif\""></div><div id=\""delayed\"" style=\""position: fixed;visibility: hidden;left:48%;top:34%\""><img src=\""same_diff_imgs/C09.gif\""></div>""]","arrowup","identical_image","same_diff_imgs/C09.gif","same_diff_imgs/C09.gif","no","same","1","true","","","","","","","","","","","","","","","","","","","","","","","","","","","",""
"","","","","","html-keyboard-response","159","895790","0.0-5.0-2.38","A35CHBMYRAXDNZ","2022-05-27T00:56:10.517Z","same_different-phon_sim-task_switching-rhyme","","null",""," ","null","","","","","","","","","","","","","","","","","","","","","","","","","","","","","","","","","","",""
"","","","","","html-keyboard-response","160","896091","0.0-5.0-3.38","A35CHBMYRAXDNZ","2022-05-27T00:56:10.517Z","same_different-phon_sim-task_switching-rhyme","","null","same_different"," ","null","","","","","","","","","","","","","","","","","","","","","","","","","","","","","","","","","","",""
"","","","","","html-keyboard-response","161","896843","0.0-5.0-0.39","A35CHBMYRAXDNZ","2022-05-27T00:56:10.517Z","same_different-phon_sim-task_switching-rhyme","","null","same_different","<div style=""font-size:60px"">+</div>","null","","","","","","","","","","","","","","","","","","","","","","","","","","","","","","","","","","",""
"","","","","","html-keyboard-response","162","898697","0.0-5.0-1.39","A35CHBMYRAXDNZ","2022-05-27T00:56:10.517Z","same_different-phon_sim-task_switching-rhyme","","1851","same_different","[""<img src=\""square.png\"" width=\""100\"" height=\""100\"" style=\""position: fixed;left:39%;top:47%\""><img src=\""square.png\"" width=\""100\"" height=\""100\"" style=\""position: fixed;left:54%;top:47%\""><img src=\""square.png\"" width=\""100\"" height=\""100\"" style=\""position: fixed;left:46.5%;top:32%\""><img src=\""square.png\"" width=\""100\"" height=\""100\"" style=\""position: fixed;left:46.5%;top:61%\""><div style=\""font-size:60px; text-align: center;margin-top:45.5%\"">+</div><div id=\""first\"" style=\""position: fixed;visibility: hidden;left:48%;top:62%\""><img src=\""same_diff_imgs/D11.gif\""></div><div id=\""delayed\"" style=\""position: fixed;visibility: hidden;left:48%;top:34%\""><img src=\""same_diff_imgs/D11.gif\""></div>""]","arrowup","identical_image","same_diff_imgs/D11.gif","same_diff_imgs/D11.gif","no","same","1","true","","","","","","","","","","","","","","","","","","","","","","","","","","","",""
"","","","","","html-keyboard-response","163","898700","0.0-5.0-2.39","A35CHBMYRAXDNZ","2022-05-27T00:56:10.517Z","same_different-phon_sim-task_switching-rhyme","","null",""," ","null","","","","","","","","","","","","","","","","","","","","","","","","","","","","","","","","","","",""
"","","","","","html-keyboard-response","164","899001","0.0-5.0-3.39","A35CHBMYRAXDNZ","2022-05-27T00:56:10.517Z","same_different-phon_sim-task_switching-rhyme","","null","same_different"," ","null","","","","","","","","","","","","","","","","","","","","","","","","","","","","","","","","","","",""
"","","","","","html-keyboard-response","165","899753","0.0-5.0-0.40","A35CHBMYRAXDNZ","2022-05-27T00:56:10.517Z","same_different-phon_sim-task_switching-rhyme","","null","same_different","<div style=""font-size:60px"">+</div>","null","","","","","","","","","","","","","","","","","","","","","","","","","","","","","","","","","","",""
"","","","","","html-keyboard-response","166","929140","0.0-5.0-1.40","A35CHBMYRAXDNZ","2022-05-27T00:56:10.517Z","same_different-phon_sim-task_switching-rhyme","","29385.200000000186","same_different","[""<img src=\""square.png\"" width=\""100\"" height=\""100\"" style=\""position: fixed;left:39%;top:47%\""><img src=\""square.png\"" width=\""100\"" height=\""100\"" style=\""position: fixed;left:54%;top:47%\""><img src=\""square.png\"" width=\""100\"" height=\""100\"" style=\""position: fixed;left:46.5%;top:32%\""><img src=\""square.png\"" width=\""100\"" height=\""100\"" style=\""position: fixed;left:46.5%;top:61%\""><div style=\""font-size:60px;text-align: center;margin-top:45.5%\"">+</div><div id=\""first\"" style=\""position: fixed;visibility: hidden;left:48%;top:62%\""><img src=\""same_diff_imgs/C09.gif\"" style=\""-webkit-transform: scaleX(-1);transform: scaleX(-1);\""></div><div id=\""delayed\"" style=\""position: fixed;visibility: hidden;left:40%;top:48%\""><img src=\""same_diff_imgs/D11.gif\"" style=\""-webkit-transform: scaleX(-1);transform: scaleX(-1);\""></div>""]","arrowdown","identical_image","same_diff_imgs/C09.gif","same_diff_imgs/D11.gif","yes","different","","true","1","","","","","","","","","","","","","","","","","","","","","","","","","","",""
"","","","","","html-keyboard-response","167","929145","0.0-5.0-2.40","A35CHBMYRAXDNZ","2022-05-27T00:56:10.517Z","same_different-phon_sim-task_switching-rhyme","","null",""," ","null","","","","","","","","","","","","","","","","","","","","","","","","","","","","","","","","","","",""
"","","","","","html-keyboard-response","168","929447","0.0-5.0-3.40","A35CHBMYRAXDNZ","2022-05-27T00:56:10.517Z","same_different-phon_sim-task_switching-rhyme","","null","same_different"," ","null","","","","","","","","","","","","","","","","","","","","","","","","","","","","","","","","","","",""
"","","","","","html-keyboard-response","169","930198","0.0-5.0-0.41","A35CHBMYRAXDNZ","2022-05-27T00:56:10.517Z","same_different-phon_sim-task_switching-rhyme","","null","same_different","<div style=""font-size:60px"">+</div>","null","","","","","","","","","","","","","","","","","","","","","","","","","","","","","","","","","","",""
"","","","","","html-keyboard-response","170","937218","0.0-5.0-1.41","A35CHBMYRAXDNZ","2022-05-27T00:56:10.517Z","same_different-phon_sim-task_switching-rhyme","","7015.9000000003725","same_different","[""<img src=\""square.png\"" width=\""100\"" height=\""100\"" style=\""position: fixed;left:39%;top:47%\""><img src=\""square.png\"" width=\""100\"" height=\""100\"" style=\""position: fixed;left:54%;top:47%\""><img src=\""square.png\"" width=\""100\"" height=\""100\"" style=\""position: fixed;left:46.5%;top:32%\""><img src=\""square.png\"" width=\""100\"" height=\""100\"" style=\""position: fixed;left:46.5%;top:61%\""><div style=\""font-size:60px; text-align: center;margin-top:45.5%\"">+</div><div id=\""first\"" style=\""position: fixed;visibility: hidden;left:55%;top:49%\""><img src=\""same_diff_imgs/C09.gif\""></div><div id=\""delayed\"" style=\""position: fixed;visibility: hidden;left:40%;top:48%\""><img src=\""same_diff_imgs/C09.gif\""></div>""]","arrowup","identical_image","same_diff_imgs/C09.gif","same_diff_imgs/C09.gif","no","same","1","true","","","","","","","","","","","","","","","","","","","","","","","","","","","",""
"","","","","","html-keyboard-response","171","937220","0.0-5.0-2.41","A35CHBMYRAXDNZ","2022-05-27T00:56:10.517Z","same_different-phon_sim-task_switching-rhyme","","null",""," ","null","","","","","","","","","","","","","","","","","","","","","","","","","","","","","","","","","","",""
"","","","","","html-keyboard-response","172","937521","0.0-5.0-3.41","A35CHBMYRAXDNZ","2022-05-27T00:56:10.517Z","same_different-phon_sim-task_switching-rhyme","","null","same_different"," ","null","","","","","","","","","","","","","","","","","","","","","","","","","","","","","","","","","","",""
"","","","","","html-keyboard-response","173","938273","0.0-5.0-0.42","A35CHBMYRAXDNZ","2022-05-27T00:56:10.517Z","same_different-phon_sim-task_switching-rhyme","","null","same_different","<div style=""font-size:60px"">+</div>","null","","","","","","","","","","","","","","","","","","","","","","","","","","","","","","","","","","",""
"","","","","","html-keyboard-response","174","939778","0.0-5.0-1.42","A35CHBMYRAXDNZ","2022-05-27T00:56:10.517Z","same_different-phon_sim-task_switching-rhyme","","1502.5999999996275","same_different","[""<img src=\""square.png\"" width=\""100\"" height=\""100\"" style=\""position: fixed;left:39%;top:47%\""><img src=\""square.png\"" width=\""100\"" height=\""100\"" style=\""position: fixed;left:54%;top:47%\""><img src=\""square.png\"" width=\""100\"" height=\""100\"" style=\""position: fixed;left:46.5%;top:32%\""><img src=\""square.png\"" width=\""100\"" height=\""100\"" style=\""position: fixed;left:46.5%;top:61%\""><div style=\""font-size:60px; text-align: center;margin-top:45.5%\"">+</div><div id=\""first\"" style=\""position: fixed;visibility: hidden;left:55%;top:49%\""><img src=\""same_diff_imgs/C14.gif\""></div><div id=\""delayed\"" style=\""position: fixed;visibility: hidden;left:48%;top:62%\""><img src=\""same_diff_imgs/C14.gif\""></div>""]","arrowup","identical_image","same_diff_imgs/C14.gif","same_diff_imgs/C14.gif","no","same","1","true","","","","","","","","","","","","","","","","","","","","","","","","","","","",""
"","","","","","html-keyboard-response","175","939780","0.0-5.0-2.42","A35CHBMYRAXDNZ","2022-05-27T00:56:10.517Z","same_different-phon_sim-task_switching-rhyme","","null",""," ","null","","","","","","","","","","","","","","","","","","","","","","","","","","","","","","","","","","",""
"","","","","","html-keyboard-response","176","940081","0.0-5.0-3.42","A35CHBMYRAXDNZ","2022-05-27T00:56:10.517Z","same_different-phon_sim-task_switching-rhyme","","null","same_different"," ","null","","","","","","","","","","","","","","","","","","","","","","","","","","","","","","","","","","",""
"","","","","","html-keyboard-response","177","940833","0.0-5.0-0.43","A35CHBMYRAXDNZ","2022-05-27T00:56:10.517Z","same_different-phon_sim-task_switching-rhyme","","null","same_different","<div style=""font-size:60px"">+</div>","null","","","","","","","","","","","","","","","","","","","","","","","","","","","","","","","","","","",""
"","","","","","html-keyboard-response","178","960523","0.0-5.0-1.43","A35CHBMYRAXDNZ","2022-05-27T00:56:10.517Z","same_different-phon_sim-task_switching-rhyme","","19686.69999999972","same_different","[""<img src=\""square.png\"" width=\""100\"" height=\""100\"" style=\""position: fixed;left:39%;top:47%\""><img src=\""square.png\"" width=\""100\"" height=\""100\"" style=\""position: fixed;left:54%;top:47%\""><img src=\""square.png\"" width=\""100\"" height=\""100\"" style=\""position: fixed;left:46.5%;top:32%\""><img src=\""square.png\"" width=\""100\"" height=\""100\"" style=\""position: fixed;left:46.5%;top:61%\""><div style=\""font-size:60px; text-align: center;margin-top:45.5%\"">+</div><div id=\""first\"" style=\""position: fixed;visibility: hidden;left:40%;top:48%\""><img src=\""same_diff_imgs/D11.gif\""></div><div id=\""delayed\"" style=\""position: fixed;visibility: hidden;left:55%;top:49%\""><img src=\""same_diff_imgs/D11.gif\""></div>""]","arrowup","identical_image","same_diff_imgs/D11.gif","same_diff_imgs/D11.gif","no","same","1","true","","","","","","","","","","","","","","","","","","","","","","","","","","","",""
"","","","","","html-keyboard-response","179","960527","0.0-5.0-2.43","A35CHBMYRAXDNZ","2022-05-27T00:56:10.517Z","same_different-phon_sim-task_switching-rhyme","","null",""," ","null","","","","","","","","","","","","","","","","","","","","","","","","","","","","","","","","","","",""
"","","","","","html-keyboard-response","180","960829","0.0-5.0-3.43","A35CHBMYRAXDNZ","2022-05-27T00:56:10.517Z","same_different-phon_sim-task_switching-rhyme","","null","same_different"," ","null","","","","","","","","","","","","","","","","","","","","","","","","","","","","","","","","","","",""
"","","","","","html-keyboard-response","181","961580","0.0-5.0-0.44","A35CHBMYRAXDNZ","2022-05-27T00:56:10.517Z","same_different-phon_sim-task_switching-rhyme","","null","same_different","<div style=""font-size:60px"">+</div>","null","","","","","","","","","","","","","","","","","","","","","","","","","","","","","","","","","","",""
"","","","","","html-keyboard-response","182","971035","0.0-5.0-1.44","A35CHBMYRAXDNZ","2022-05-27T00:56:10.517Z","same_different-phon_sim-task_switching-rhyme","","9452.299999999814","same_different","[""<img src=\""square.png\"" width=\""100\"" height=\""100\"" style=\""position: fixed;left:39%;top:47%\""><img src=\""square.png\"" width=\""100\"" height=\""100\"" style=\""position: fixed;left:54%;top:47%\""><img src=\""square.png\"" width=\""100\"" height=\""100\"" style=\""position: fixed;left:46.5%;top:32%\""><img src=\""square.png\"" width=\""100\"" height=\""100\"" style=\""position: fixed;left:46.5%;top:61%\""><div style=\""font-size:60px; text-align: center;margin-top:45.5%\"">+</div><div id=\""first\"" style=\""position: fixed;visibility: hidden;left:48%;top:62%\""><img src=\""same_diff_imgs/C14.gif\""></div><div id=\""delayed\"" style=\""position: fixed;visibility: hidden;left:40%;top:48%\""><img src=\""same_diff_imgs/C14.gif\""></div>""]","arrowup","identical_image","same_diff_imgs/C14.gif","same_diff_imgs/C14.gif","no","same","1","true","","","","","","","","","","","","","","","","","","","","","","","","","","","",""
"","","","","","html-keyboard-response","183","971038","0.0-5.0-2.44","A35CHBMYRAXDNZ","2022-05-27T00:56:10.517Z","same_different-phon_sim-task_switching-rhyme","","null",""," ","null","","","","","","","","","","","","","","","","","","","","","","","","","","","","","","","","","","",""
"","","","","","html-keyboard-response","184","971339","0.0-5.0-3.44","A35CHBMYRAXDNZ","2022-05-27T00:56:10.517Z","same_different-phon_sim-task_switching-rhyme","","null","same_different"," ","null","","","","","","","","","","","","","","","","","","","","","","","","","","","","","","","","","","",""
"","","","","","html-keyboard-response","185","972091","0.0-5.0-0.45","A35CHBMYRAXDNZ","2022-05-27T00:56:10.517Z","same_different-phon_sim-task_switching-rhyme","","null","same_different","<div style=""font-size:60px"">+</div>","null","","","","","","","","","","","","","","","","","","","","","","","","","","","","","","","","","","",""
"","","","","","html-keyboard-response","186","975763","0.0-5.0-1.45","A35CHBMYRAXDNZ","2022-05-27T00:56:10.517Z","same_different-phon_sim-task_switching-rhyme","","3669.2000000001863","same_different","[""<img src=\""square.png\"" width=\""100\"" height=\""100\"" style=\""position: fixed;left:39%;top:47%\""><img src=\""square.png\"" width=\""100\"" height=\""100\"" style=\""position: fixed;left:54%;top:47%\""><img src=\""square.png\"" width=\""100\"" height=\""100\"" style=\""position: fixed;left:46.5%;top:32%\""><img src=\""square.png\"" width=\""100\"" height=\""100\"" style=\""position: fixed;left:46.5%;top:61%\""><div style=\""font-size:60px; text-align: center;margin-top:45.5%\"">+</div><div id=\""first\"" style=\""position: fixed;visibility: hidden;left:48%;top:62%\""><img src=\""same_diff_imgs/C09.gif\""></div><div id=\""delayed\"" style=\""position: fixed;visibility: hidden;left:40%;top:48%\""><img src=\""same_diff_imgs/C14.gif\""></div>""]","arrowdown","identical_image","same_diff_imgs/C09.gif","same_diff_imgs/C14.gif","no","different","","true","1","","","","","","","","","","","","","","","","","","","","","","","","","","",""
"","","","","","html-keyboard-response","187","975766","0.0-5.0-2.45","A35CHBMYRAXDNZ","2022-05-27T00:56:10.517Z","same_different-phon_sim-task_switching-rhyme","","null",""," ","null","","","","","","","","","","","","","","","","","","","","","","","","","","","","","","","","","","",""
