"X.1","X","image_2","image_1","trial_index","time_elapsed","experiment_order","rt","experiment","response","phase","stimulus","correct","question_order","talk_out_loud","strategy_free_ans","cor_key","type","VerbalScored","VisualScored","high_low_verbal","worker_id","name_agreement_img1","name_agreement_img2","trial_no_ptcp","image_1_wordFreq","image_2_wordFreq","freq_diff"
1,1,"beer","claw",19,152751,"rhyme-same_different-task_switching-phon_sim",2192.40000009537,"rhyme","arrowdown","experiment","<div style=""border: 3px solid #000000; position: fixed;left:14%;top:30%""><img src=""claw"" width=""300""></div><div style=""border: 3px solid #000000; position: fixed;left:64%;top:30%""><img src=""beer"" width=""300""></div>",1,NA,"No","some were hard to tell what they were supposed to be","arrowdown","NR",1.42,2.7,"low_verbal","fX6rWWkd",0.55,0.75,1,2.3502,3.5856,1.2354
2,2,"beer","deer",19,89914,"rhyme-task_switching-same_different-phon_sim",2007.4,"rhyme","arrowup","experiment","<div style=""border: 3px solid #000000; position: fixed;left:14%;top:30%""><img src=""deer"" width=""300""></div><div style=""border: 3px solid #000000; position: fixed;left:64%;top:30%""><img src=""beer"" width=""300""></div>",1,NA,"No","I said the pictures in my head before choosing.","arrowup","ortho",1.75,3.9,"low_verbal","Xa9ISMwC",0.65,0.75,1,2.6484,3.5856,0.9372
3,3,"bell","well",19,49754,"rhyme-task_switching-same_different-phon_sim",2392.19999999553,"rhyme","arrowup","experiment","<div style=""border: 3px solid #000000; position: fixed;left:14%;top:30%""><img src=""well"" width=""300""></div><div style=""border: 3px solid #000000; position: fixed;left:64%;top:30%""><img src=""bell"" width=""300""></div>",1,NA,"No","No, I just said it in my head rather than out loud.","arrowup","ortho",4.75,4.5,"high_verbal","XWkUpOyp",0.95,0.9,1,5.1833,3.3025,1.8808
4,4,"bread","bed",19,279830,"rhyme-phon_sim-same_different-task_switching",2482.69999999925,"rhyme","arrowup","experiment","<div style=""border: 3px solid #000000; position: fixed;left:14%;top:30%""><img src=""bed"" width=""300""></div><div style=""border: 3px solid #000000; position: fixed;left:64%;top:30%""><img src=""bread"" width=""300""></div>",1,NA,"No","I said it in my head ""aloud"".","arrowup","non-ortho",2.42,4.6,"low_verbal","HPiIXyO1",0.95,0.9,1,3.9797,3.1602,0.8195
5,5,"chair","drawer",19,78350,"rhyme-task_switching-phon_sim-same_different",4610.79999995232,"rhyme","arrowdown","experiment","<div style=""border: 3px solid #000000; position: fixed;left:14%;top:30%""><img src=""drawer"" width=""300""></div><div style=""border: 3px solid #000000; position: fixed;left:64%;top:30%""><img src=""chair"" width=""300""></div>",1,NA,"No","I always viewed the picture on the left first","arrowdown","NR",3,3.5,"low_verbal","qkCSFiGm",0.8,0.95,1,2.8222,3.4,0.5778
6,6,"clock","brain",19,86236,"rhyme-task_switching-same_different-phon_sim",2578.89999999851,"rhyme","arrowdown","experiment","<div style=""border: 3px solid #000000; position: fixed;left:14%;top:30%""><img src=""brain"" width=""300""></div><div style=""border: 3px solid #000000; position: fixed;left:64%;top:30%""><img src=""clock"" width=""300""></div>",1,NA,"Yes","no_answer","arrowdown","NR",3,3.8,"low_verbal","xa4C6HC1",0.95,0.95,1,3.5943,3.4758,0.1185
7,7,"cone","bone",19,44800,"rhyme-same_different-phon_sim-task_switching",1231.5,"rhyme","arrowup","experiment","<div style=""border: 3px solid #000000; position: fixed;left:14%;top:30%""><img src=""bone"" width=""300""></div><div style=""border: 3px solid #000000; position: fixed;left:64%;top:30%""><img src=""cone"" width=""300""></div>",1,NA,"No","I said the words in my head.","arrowup","ortho",4.67,4.4,"high_verbal","2Ie4vXKm",0.95,0.7,1,3.1239,2.1761,0.9478
8,8,"cone","bone",19,95732,"rhyme-phon_sim-same_different-task_switching",1980.90000009537,"rhyme","arrowup","experiment","<div style=""border: 3px solid #000000; position: fixed;left:14%;top:30%""><img src=""bone"" width=""300""></div><div style=""border: 3px solid #000000; position: fixed;left:64%;top:30%""><img src=""cone"" width=""300""></div>",1,NA,"Yes","no_answer","arrowup","ortho",3.08333333333333,3.2,"low_verbal","4KFmznfv",0.95,0.7,1,3.1239,2.1761,0.9478
9,9,"crab","spoon",19,201447,"rhyme-same_different-task_switching-phon_sim",1365,"rhyme","arrowdown","experiment","<div style=""border: 3px solid #000000; position: fixed;left:14%;top:30%""><img src=""spoon"" width=""300""></div><div style=""border: 3px solid #000000; position: fixed;left:64%;top:30%""><img src=""crab"" width=""300""></div>",1,NA,"Yes","I tried to quickly reference in my mind if I had heard the two words referenced together in rhyme before. I also tried to think ahead about what rhymed with certain words.","arrowdown","NR",5,4.8,"high_verbal","m6nAacjH",1,0.95,1,2.5899,2.5478,0.0421
10,10,"door","tree",19,59525,"rhyme-task_switching-phon_sim-same_different",1935.20000004768,"rhyme","arrowdown","experiment","<div style=""border: 3px solid #000000; position: fixed;left:14%;top:30%""><img src=""tree"" width=""300""></div><div style=""border: 3px solid #000000; position: fixed;left:64%;top:30%""><img src=""door"" width=""300""></div>",1,NA,"Yes","no","arrowdown","NR",4.166667,4.1,"high_verbal","c8Txd3Z5",0.85,0.95,1,3.5206,4.1731,0.6525
11,11,"fox","socks",19,76001,"rhyme-task_switching-same_different-phon_sim",1265.70000000298,"rhyme","arrowup","experiment","<div style=""border: 3px solid #000000; position: fixed;left:14%;top:30%""><img src=""socks"" width=""300""></div><div style=""border: 3px solid #000000; position: fixed;left:64%;top:30%""><img src=""fox"" width=""300""></div>",1,NA,"No","I mentally ""stated"" the words as a pair.","arrowup","non-ortho",1.67,3.3,"low_verbal","UhCBWnbb",0.9,0.85,1,2.9699,3.0426,0.0727000000000002
12,12,"jar","star",19,53238,"rhyme-task_switching-same_different-phon_sim",1699.89999999106,"rhyme","arrowup","experiment","<div style=""border: 3px solid #000000; position: fixed;left:14%;top:30%""><img src=""star"" width=""300""></div><div style=""border: 3px solid #000000; position: fixed;left:64%;top:30%""><img src=""jar"" width=""300""></div>",1,NA,"Yes","no_answer","arrowup","ortho",2.83333333333333,3.2,"low_verbal","hRiDYGB2",0.95,0.95,1,3.618,2.6284,0.9896
13,13,"leg","egg",19,2379038,"rhyme-same_different-phon_sim-task_switching",2479.80000001192,"rhyme","arrowup","experiment","<div style=""border: 3px solid #000000; position: fixed;left:14%;top:30%""><img src=""egg"" width=""300""></div><div style=""border: 3px solid #000000; position: fixed;left:64%;top:30%""><img src=""leg"" width=""300""></div>",1,NA,"Yes","I just went with my gut intuition","arrowup","ortho",4.75,5,"high_verbal","DuDDHkI9",0.95,0.85,1,3.1235,3.4598,0.3363
14,14,"plane","fly",19,85992,"rhyme-phon_sim-task_switching-same_different",2180.89999997616,"rhyme","arrowdown","experiment","<div style=""border: 3px solid #000000; position: fixed;left:14%;top:30%""><img src=""fly"" width=""300""></div><div style=""border: 3px solid #000000; position: fixed;left:64%;top:30%""><img src=""plane"" width=""300""></div>",1,NA,"No","I said the words in my head and made my selection as quickly as possible.","arrowdown","NR",4.416667,4.2,"high_verbal","Qy5J1Mxs",0.95,0.35,1,3.6371,3.6878,0.0507
15,15,"ring","king",19,154587,"rhyme-same_different-task_switching-phon_sim",2323.69999980927,"rhyme","arrowup","experiment","<div style=""border: 3px solid #000000; position: fixed;left:14%;top:30%""><img src=""king"" width=""300""></div><div style=""border: 3px solid #000000; position: fixed;left:64%;top:30%""><img src=""ring"" width=""300""></div>",1,NA,"Yes","no","arrowup","ortho",2.67,3,"low_verbal","wDmKNbjb",0.8,0.9,1,3.8191,3.675,0.1441
16,16,"ring","egg",19,74516,"rhyme-task_switching-phon_sim-same_different",1607.5,"rhyme","arrowdown","experiment","<div style=""border: 3px solid #000000; position: fixed;left:14%;top:30%""><img src=""egg"" width=""300""></div><div style=""border: 3px solid #000000; position: fixed;left:64%;top:30%""><img src=""ring"" width=""300""></div>",1,NA,"No","Some of the pictures weren't clear as to what it was mainly about. I said the words in my head","arrowdown","NR",2.58,2.4,"low_verbal","GJMX4RUC",0.95,0.9,1,3.1235,3.675,0.5515
17,17,"ring","king",19,58964,"rhyme-task_switching-same_different-phon_sim",1303.10000000149,"rhyme","arrowup","experiment","<div style=""border: 3px solid #000000; position: fixed;left:14%;top:30%""><img src=""king"" width=""300""></div><div style=""border: 3px solid #000000; position: fixed;left:64%;top:30%""><img src=""ring"" width=""300""></div>",1,NA,"No","np","arrowup","ortho",2.92,4.2,"low_verbal","7rrmnKSW",0.8,0.9,1,3.8191,3.675,0.1441
18,18,"rope","pear",19,1296278,"rhyme-phon_sim-same_different-task_switching",1574.09999996424,"rhyme","arrowdown","experiment","<div style=""border: 3px solid #000000; position: fixed;left:14%;top:30%""><img src=""pear"" width=""300""></div><div style=""border: 3px solid #000000; position: fixed;left:64%;top:30%""><img src=""rope"" width=""300""></div>",1,NA,"Yes","no_answer","arrowdown","NR",2.25,3.7,"low_verbal","05Wo9IGy",0.95,1,1,1.8388,3.0641,1.2253
19,19,"rope","soap",19,86337,"rhyme-phon_sim-task_switching-same_different",1604.69999998808,"rhyme","arrowdown","experiment","<div style=""border: 3px solid #000000; position: fixed;left:14%;top:30%""><img src=""soap"" width=""300""></div><div style=""border: 3px solid #000000; position: fixed;left:64%;top:30%""><img src=""rope"" width=""300""></div>",0,NA,"Yes","Sometimes it seemed like I was trying to make words rhyme by the way I was saying them.","arrowup","non-ortho",2.91666666666667,3.3,"low_verbal","Ds5BnIYz",0.8,1,1,2.8899,3.0641,0.1742
20,20,"rose","well",19,111594,"rhyme-phon_sim-same_different-task_switching",2105,"rhyme","arrowdown","experiment","<div style=""border: 3px solid #000000; position: fixed;left:14%;top:30%""><img src=""well"" width=""300""></div><div style=""border: 3px solid #000000; position: fixed;left:64%;top:30%""><img src=""rose"" width=""300""></div>",1,NA,"Yes","nothing","arrowdown","NR",4.67,4.7,"high_verbal","lcQfoynH",0.95,0.95,1,5.1833,3.4322,1.7511
21,21,"tie","dart",19,43014,"rhyme-phon_sim-same_different-task_switching",1321.89999997616,"rhyme","arrowdown","experiment","<div style=""border: 3px solid #000000; position: fixed;left:14%;top:30%""><img src=""dart"" width=""300""></div><div style=""border: 3px solid #000000; position: fixed;left:64%;top:30%""><img src=""tie"" width=""300""></div>",1,NA,"No","said mentally","arrowdown","NR",4.166667,3.8,"high_verbal","RHqN8QGm",0.9,0.7,1,1.9956,3.3555,1.3599
22,22,"tree","key",19,790471,"rhyme-same_different-task_switching-phon_sim",1347.30000007153,"rhyme","arrowup","experiment","<div style=""border: 3px solid #000000; position: fixed;left:14%;top:30%""><img src=""key"" width=""300""></div><div style=""border: 3px solid #000000; position: fixed;left:64%;top:30%""><img src=""tree"" width=""300""></div>",1,NA,"No","I had to guess at first for some of these.","arrowup","non-ortho",2.58,3.7,"low_verbal","lAeE5wTL",0.95,0.85,1,3.6465,3.5206,0.1259
23,23,"whale","jar",19,52467,"rhyme-same_different-task_switching-phon_sim",2428.10000002384,"rhyme","arrowdown","experiment","<div style=""border: 3px solid #000000; position: fixed;left:14%;top:30%""><img src=""jar"" width=""300""></div><div style=""border: 3px solid #000000; position: fixed;left:64%;top:30%""><img src=""whale"" width=""300""></div>",1,NA,"No","no_answer","arrowdown","NR",2.17,3.9,"low_verbal","vhsbIoXa",0.95,0.95,1,2.6284,2.7597,0.1313
24,24,"whale","nail",19,108448,"rhyme-task_switching-phon_sim-same_different",1738.19999999925,"rhyme","arrowup","experiment","<div style=""border: 3px solid #000000; position: fixed;left:14%;top:30%""><img src=""nail"" width=""300""></div><div style=""border: 3px solid #000000; position: fixed;left:64%;top:30%""><img src=""whale"" width=""300""></div>",1,NA,"Yes","It got easier as I knew each picture better.","arrowup","non-ortho",4.75,4.5,"high_verbal","NRFUWLZO",0.95,0.95,1,2.9786,2.7597,0.2189
25,25,"bread","bed",22,82845,"rhyme-same_different-task_switching-phon_sim",1666.09999999404,"rhyme","arrowup","experiment","<div style=""border: 3px solid #000000; position: fixed;left:14%;top:30%""><img src=""bed"" width=""300""></div><div style=""border: 3px solid #000000; position: fixed;left:64%;top:30%""><img src=""bread"" width=""300""></div>",1,NA,"Yes","no","arrowup","non-ortho",2.5,3,"low_verbal","OE580Gi8",0.95,0.9,1,3.9797,3.1602,0.8195
26,26,"chain","plane",22,73326,"rhyme-same_different-phon_sim-task_switching",1417.90000009537,"rhyme","arrowup","experiment","<div style=""border: 3px solid #000000; position: fixed;left:14%;top:30%""><img src=""plane"" width=""300""></div><div style=""border: 3px solid #000000; position: fixed;left:64%;top:30%""><img src=""chain"" width=""300""></div>",1,NA,"No","Said in my mind, not vocally","arrowup","non-ortho",3.08333333333333,3.9,"low_verbal","NS1YHcvi",0.35,0.95,1,3.6878,3.0346,0.6532
27,27,"chain","plane",22,261373,"rhyme-same_different-phon_sim-task_switching",1748.59999999404,"rhyme","arrowup","experiment","<div style=""border: 3px solid #000000; position: fixed;left:14%;top:30%""><img src=""plane"" width=""300""></div><div style=""border: 3px solid #000000; position: fixed;left:64%;top:30%""><img src=""chain"" width=""300""></div>",1,NA,"Yes","think of the most simple word for the image","arrowup","non-ortho",4.25,4.1,"high_verbal","sZLRQDIR",0.35,0.95,1,3.6878,3.0346,0.6532
28,28,"clock","brain",22,283108,"rhyme-phon_sim-same_different-task_switching",1742.30000000075,"rhyme","arrowdown","experiment","<div style=""border: 3px solid #000000; position: fixed;left:14%;top:30%""><img src=""brain"" width=""300""></div><div style=""border: 3px solid #000000; position: fixed;left:64%;top:30%""><img src=""clock"" width=""300""></div>",1,NA,"No","I said it in my head ""aloud"".","arrowdown","NR",2.42,4.6,"low_verbal","HPiIXyO1",0.95,0.95,2,3.5943,3.4758,0.1185
29,29,"clock","sock",22,42512,"rhyme-phon_sim-task_switching-same_different",1538.59999990463,"rhyme","arrowup","experiment","<div style=""border: 3px solid #000000; position: fixed;left:14%;top:30%""><img src=""sock"" width=""300""></div><div style=""border: 3px solid #000000; position: fixed;left:64%;top:30%""><img src=""clock"" width=""300""></div>",1,NA,"Yes","no","arrowup","ortho",1.33,1.9,"low_verbal","5WF1GwNy",0.9,0.95,1,2.6618,3.4758,0.814
30,30,"clock","sock",22,89020,"rhyme-phon_sim-task_switching-same_different",1518.79999998212,"rhyme","arrowup","experiment","<div style=""border: 3px solid #000000; position: fixed;left:14%;top:30%""><img src=""sock"" width=""300""></div><div style=""border: 3px solid #000000; position: fixed;left:64%;top:30%""><img src=""clock"" width=""300""></div>",1,NA,"No","I said the words in my head and made my selection as quickly as possible.","arrowup","ortho",4.416667,4.2,"high_verbal","Qy5J1Mxs",0.9,0.95,2,2.6618,3.4758,0.814
31,31,"crane","train",22,794038,"rhyme-same_different-task_switching-phon_sim",2789.30000007153,"rhyme","arrowup","experiment","<div style=""border: 3px solid #000000; position: fixed;left:14%;top:30%""><img src=""train"" width=""300""></div><div style=""border: 3px solid #000000; position: fixed;left:64%;top:30%""><img src=""crane"" width=""300""></div>",1,NA,"No","I had to guess at first for some of these.","arrowup","non-ortho",2.58,3.7,"low_verbal","lAeE5wTL",0.95,0.7,2,3.6857,3.2343,0.4514
32,32,"fly","tie",22,80987,"rhyme-task_switching-phon_sim-same_different",1359.89999985695,"rhyme","arrowup","experiment","<div style=""border: 3px solid #000000; position: fixed;left:14%;top:30%""><img src=""tie"" width=""300""></div><div style=""border: 3px solid #000000; position: fixed;left:64%;top:30%""><img src=""fly"" width=""300""></div>",1,NA,"No","I always viewed the picture on the left first","arrowup","non-ortho",3,3.5,"low_verbal","qkCSFiGm",0.7,0.95,2,3.3555,3.6371,0.2816
33,33,"fly","tie",22,1299474,"rhyme-phon_sim-same_different-task_switching",1947.10000002384,"rhyme","arrowup","experiment","<div style=""border: 3px solid #000000; position: fixed;left:14%;top:30%""><img src=""tie"" width=""300""></div><div style=""border: 3px solid #000000; position: fixed;left:64%;top:30%""><img src=""fly"" width=""300""></div>",1,NA,"Yes","no_answer","arrowup","non-ortho",2.25,3.7,"low_verbal","05Wo9IGy",0.7,0.95,2,3.3555,3.6371,0.2816
34,34,"fox","box",22,156887,"rhyme-same_different-task_switching-phon_sim",1025.2999997139,"rhyme","arrowup","experiment","<div style=""border: 3px solid #000000; position: fixed;left:14%;top:30%""><img src=""box"" width=""300""></div><div style=""border: 3px solid #000000; position: fixed;left:64%;top:30%""><img src=""fox"" width=""300""></div>",1,NA,"Yes","no","arrowup","ortho",2.67,3,"low_verbal","wDmKNbjb",0.95,0.85,2,3.6607,3.0426,0.6181
35,35,"fox","socks",22,62200,"rhyme-task_switching-phon_sim-same_different",1649.39999997616,"rhyme","arrowup","experiment","<div style=""border: 3px solid #000000; position: fixed;left:14%;top:30%""><img src=""socks"" width=""300""></div><div style=""border: 3px solid #000000; position: fixed;left:64%;top:30%""><img src=""fox"" width=""300""></div>",1,NA,"Yes","no","arrowup","non-ortho",4.166667,4.1,"high_verbal","c8Txd3Z5",0.9,0.85,2,2.9699,3.0426,0.0727000000000002
36,36,"hat","cat",22,92905,"rhyme-task_switching-same_different-phon_sim",1483.6,"rhyme","arrowup","experiment","<div style=""border: 3px solid #000000; position: fixed;left:14%;top:30%""><img src=""cat"" width=""300""></div><div style=""border: 3px solid #000000; position: fixed;left:64%;top:30%""><img src=""hat"" width=""300""></div>",1,NA,"No","I said the pictures in my head before choosing.","arrowup","ortho",1.75,3.9,"low_verbal","Xa9ISMwC",0.9,1,2,3.5294,3.5151,0.0143
37,37,"heart","dart",22,56989,"rhyme-task_switching-same_different-phon_sim",2236.40000000596,"rhyme","arrowdown","experiment","<div style=""border: 3px solid #000000; position: fixed;left:14%;top:30%""><img src=""dart"" width=""300""></div><div style=""border: 3px solid #000000; position: fixed;left:64%;top:30%""><img src=""heart"" width=""300""></div>",0,NA,"Yes","no_answer","arrowup","non-ortho",2.83333333333333,3.2,"low_verbal","hRiDYGB2",0.9,0.9,2,1.9956,4.0953,2.0997
38,38,"leg","egg",22,46526,"rhyme-phon_sim-same_different-task_switching",1979.80000001192,"rhyme","arrowup","experiment","<div style=""border: 3px solid #000000; position: fixed;left:14%;top:30%""><img src=""egg"" width=""300""></div><div style=""border: 3px solid #000000; position: fixed;left:64%;top:30%""><img src=""leg"" width=""300""></div>",1,NA,"No","said mentally","arrowup","ortho",4.166667,3.8,"high_verbal","RHqN8QGm",0.95,0.85,2,3.1235,3.4598,0.3363
39,39,"moon","spoon",22,76964,"rhyme-task_switching-phon_sim-same_different",1172.69999999925,"rhyme","arrowup","experiment","<div style=""border: 3px solid #000000; position: fixed;left:14%;top:30%""><img src=""spoon"" width=""300""></div><div style=""border: 3px solid #000000; position: fixed;left:64%;top:30%""><img src=""moon"" width=""300""></div>",1,NA,"No","Some of the pictures weren't clear as to what it was mainly about. I said the words in my head","arrowup","ortho",2.58,2.4,"low_verbal","GJMX4RUC",1,0.95,2,2.5899,3.4064,0.8165
40,40,"ring","egg",22,2381537,"rhyme-same_different-phon_sim-task_switching",1713,"rhyme","arrowdown","experiment","<div style=""border: 3px solid #000000; position: fixed;left:14%;top:30%""><img src=""egg"" width=""300""></div><div style=""border: 3px solid #000000; position: fixed;left:64%;top:30%""><img src=""ring"" width=""300""></div>",1,NA,"Yes","I just went with my gut intuition","arrowdown","NR",4.75,5,"high_verbal","DuDDHkI9",0.95,0.9,2,3.1235,3.675,0.5515
41,41,"rope","soap",22,126011,"rhyme-phon_sim-task_switching-same_different",1253.60000000149,"rhyme","arrowup","experiment","<div style=""border: 3px solid #000000; position: fixed;left:14%;top:30%""><img src=""soap"" width=""300""></div><div style=""border: 3px solid #000000; position: fixed;left:64%;top:30%""><img src=""rope"" width=""300""></div>",1,NA,"Yes","No","arrowup","non-ortho",2.25,1.8,"low_verbal","AZihdj82",0.8,1,1,2.8899,3.0641,0.1742
42,42,"rope","soap",22,61540,"rhyme-task_switching-same_different-phon_sim",1302.5,"rhyme","arrowup","experiment","<div style=""border: 3px solid #000000; position: fixed;left:14%;top:30%""><img src=""soap"" width=""300""></div><div style=""border: 3px solid #000000; position: fixed;left:64%;top:30%""><img src=""rope"" width=""300""></div>",1,NA,"No","np","arrowup","non-ortho",2.92,4.2,"low_verbal","7rrmnKSW",0.8,1,2,2.8899,3.0641,0.1742
43,43,"rose","well",22,111425,"rhyme-task_switching-phon_sim-same_different",2216.20000000298,"rhyme","arrowdown","experiment","<div style=""border: 3px solid #000000; position: fixed;left:14%;top:30%""><img src=""well"" width=""300""></div><div style=""border: 3px solid #000000; position: fixed;left:64%;top:30%""><img src=""rose"" width=""300""></div>",1,NA,"Yes","It got easier as I knew each picture better.","arrowdown","NR",4.75,4.5,"high_verbal","NRFUWLZO",0.95,0.95,2,5.1833,3.4322,1.7511
44,44,"screw","train",22,114839,"rhyme-phon_sim-same_different-task_switching",2229.29999999702,"rhyme","arrowdown","experiment","<div style=""border: 3px solid #000000; position: fixed;left:14%;top:30%""><img src=""train"" width=""300""></div><div style=""border: 3px solid #000000; position: fixed;left:64%;top:30%""><img src=""screw"" width=""300""></div>",1,NA,"Yes","nothing","arrowdown","NR",4.67,4.7,"high_verbal","lcQfoynH",0.95,1,2,3.6857,3.2817,0.404
45,45,"seal","wheel",22,110384,"rhyme-task_switching-same_different-phon_sim",NA,"rhyme","null","experiment","<div style=""border: 3px solid #000000; position: fixed;left:14%;top:30%""><img src=""wheel"" width=""300""></div><div style=""border: 3px solid #000000; position: fixed;left:64%;top:30%""><img src=""seal"" width=""300""></div>",0,NA,"No","no","arrowup","non-ortho",2.33,2.5,"low_verbal","TFWelN7f",0.75,0.75,1,3.1402,2.8768,0.2634
46,46,"shoe","screw",22,46963,"rhyme-same_different-phon_sim-task_switching",1378.10000000894,"rhyme","arrowup","experiment","<div style=""border: 3px solid #000000; position: fixed;left:14%;top:30%""><img src=""screw"" width=""300""></div><div style=""border: 3px solid #000000; position: fixed;left:64%;top:30%""><img src=""shoe"" width=""300""></div>",1,NA,"No","I said the words in my head.","arrowup","non-ortho",4.67,4.4,"high_verbal","2Ie4vXKm",1,0.85,2,3.2817,3.1906,0.0911
47,47,"soap","pope",22,88888,"rhyme-phon_sim-task_switching-same_different",1543.59999999404,"rhyme","arrowup","experiment","<div style=""border: 3px solid #000000; position: fixed;left:14%;top:30%""><img src=""pope"" width=""300""></div><div style=""border: 3px solid #000000; position: fixed;left:64%;top:30%""><img src=""soap"" width=""300""></div>",1,NA,"Yes","Sometimes it seemed like I was trying to make words rhyme by the way I was saying them.","arrowup","non-ortho",2.91666666666667,3.3,"low_verbal","Ds5BnIYz",0.45,0.8,2,2.738,2.8899,0.1519
48,48,"square","bear",22,79976,"rhyme-task_switching-same_different-phon_sim",2465,"rhyme","arrowup","experiment","<div style=""border: 3px solid #000000; position: fixed;left:14%;top:30%""><img src=""bear"" width=""300""></div><div style=""border: 3px solid #000000; position: fixed;left:64%;top:30%""><img src=""square"" width=""300""></div>",1,NA,"No","I mentally ""stated"" the words as a pair.","arrowup","non-ortho",1.67,3.3,"low_verbal","UhCBWnbb",0.95,0.85,2,3.4667,3.2098,0.2569
49,49,"tie","dart",22,90048,"rhyme-task_switching-same_different-phon_sim",2305.09999999404,"rhyme","arrowdown","experiment","<div style=""border: 3px solid #000000; position: fixed;left:14%;top:30%""><img src=""dart"" width=""300""></div><div style=""border: 3px solid #000000; position: fixed;left:64%;top:30%""><img src=""tie"" width=""300""></div>",1,NA,"Yes","no_answer","arrowdown","NR",3,3.8,"low_verbal","xa4C6HC1",0.9,0.7,2,1.9956,3.3555,1.3599
50,50,"train","plane",22,155318,"rhyme-same_different-task_switching-phon_sim",1283.60000002384,"rhyme","arrowup","experiment","<div style=""border: 3px solid #000000; position: fixed;left:14%;top:30%""><img src=""plane"" width=""300""></div><div style=""border: 3px solid #000000; position: fixed;left:64%;top:30%""><img src=""train"" width=""300""></div>",1,NA,"No","some were hard to tell what they were supposed to be","arrowup","non-ortho",1.42,2.7,"low_verbal","fX6rWWkd",0.35,0.95,2,3.6878,3.6857,0.00209999999999999
51,51,"tree","key",22,80846,"rhyme-phon_sim-same_different-task_switching",1821,"rhyme","arrowdown","experiment","<div style=""border: 3px solid #000000; position: fixed;left:14%;top:30%""><img src=""key"" width=""300""></div><div style=""border: 3px solid #000000; position: fixed;left:64%;top:30%""><img src=""tree"" width=""300""></div>",0,NA,"Yes","used the pictures after I had seen them a few times","arrowup","non-ortho",4.83333333333333,4,"high_verbal","xnNpmgQR",0.95,0.85,1,3.6465,3.5206,0.1259
52,52,"whale","jar",22,55658,"rhyme-task_switching-same_different-phon_sim",4899.19999999553,"rhyme","arrowdown","experiment","<div style=""border: 3px solid #000000; position: fixed;left:14%;top:30%""><img src=""jar"" width=""300""></div><div style=""border: 3px solid #000000; position: fixed;left:64%;top:30%""><img src=""whale"" width=""300""></div>",1,NA,"No","No, I just said it in my head rather than out loud.","arrowdown","NR",4.75,4.5,"high_verbal","XWkUpOyp",0.95,0.95,2,2.6284,2.7597,0.1313
53,53,"whale","nail",22,64666,"rhyme-task_switching-phon_sim-same_different",2787.09999990463,"rhyme","arrowup","experiment","<div style=""border: 3px solid #000000; position: fixed;left:14%;top:30%""><img src=""nail"" width=""300""></div><div style=""border: 3px solid #000000; position: fixed;left:64%;top:30%""><img src=""whale"" width=""300""></div>",1,NA,"No","no_answer","arrowup","non-ortho",4.25,3.7,"high_verbal","ts7nbQkN",0.95,0.95,1,2.9786,2.7597,0.2189
54,54,"whale","nail",22,205117,"rhyme-same_different-task_switching-phon_sim",2661,"rhyme","arrowup","experiment","<div style=""border: 3px solid #000000; position: fixed;left:14%;top:30%""><img src=""nail"" width=""300""></div><div style=""border: 3px solid #000000; position: fixed;left:64%;top:30%""><img src=""whale"" width=""300""></div>",1,NA,"Yes","I tried to quickly reference in my mind if I had heard the two words referenced together in rhyme before. I also tried to think ahead about what rhymed with certain words.","arrowup","non-ortho",5,4.8,"high_verbal","m6nAacjH",0.95,0.95,2,2.9786,2.7597,0.2189
55,55,"bag","flag",25,128338,"rhyme-phon_sim-task_switching-same_different",1075.60000000149,"rhyme","arrowup","experiment","<div style=""border: 3px solid #000000; position: fixed;left:14%;top:30%""><img src=""flag"" width=""300""></div><div style=""border: 3px solid #000000; position: fixed;left:64%;top:30%""><img src=""bag"" width=""300""></div>",1,NA,"Yes","No","arrowup","ortho",2.25,1.8,"low_verbal","AZihdj82",0.9,0.95,2,2.9509,3.681,0.7301
56,56,"bag","flag",25,264538,"rhyme-same_different-phon_sim-task_switching",1654,"rhyme","arrowup","experiment","<div style=""border: 3px solid #000000; position: fixed;left:14%;top:30%""><img src=""flag"" width=""300""></div><div style=""border: 3px solid #000000; position: fixed;left:64%;top:30%""><img src=""bag"" width=""300""></div>",1,NA,"Yes","think of the most simple word for the image","arrowup","ortho",4.25,4.1,"high_verbal","sZLRQDIR",0.9,0.95,2,2.9509,3.681,0.7301
57,57,"beer","claw",25,117914,"rhyme-phon_sim-same_different-task_switching",2298.89999999851,"rhyme","arrowdown","experiment","<div style=""border: 3px solid #000000; position: fixed;left:14%;top:30%""><img src=""claw"" width=""300""></div><div style=""border: 3px solid #000000; position: fixed;left:64%;top:30%""><img src=""beer"" width=""300""></div>",1,NA,"Yes","nothing","arrowdown","NR",4.67,4.7,"high_verbal","lcQfoynH",0.55,0.75,3,2.3502,3.5856,1.2354
58,58,"bell","well",25,75967,"rhyme-same_different-phon_sim-task_switching",1872.90000009537,"rhyme","arrowup","experiment","<div style=""border: 3px solid #000000; position: fixed;left:14%;top:30%""><img src=""well"" width=""300""></div><div style=""border: 3px solid #000000; position: fixed;left:64%;top:30%""><img src=""bell"" width=""300""></div>",1,NA,"No","Said in my mind, not vocally","arrowup","ortho",3.08333333333333,3.9,"low_verbal","NS1YHcvi",0.95,0.9,2,5.1833,3.3025,1.8808
59,59,"bell","nose",25,157829,"rhyme-same_different-task_switching-phon_sim",1497,"rhyme","arrowdown","experiment","<div style=""border: 3px solid #000000; position: fixed;left:14%;top:30%""><img src=""nose"" width=""300""></div><div style=""border: 3px solid #000000; position: fixed;left:64%;top:30%""><img src=""bell"" width=""300""></div>",1,NA,"No","some were hard to tell what they were supposed to be","arrowdown","NR",1.42,2.7,"low_verbal","fX6rWWkd",1,0.9,3,3.5512,3.3025,0.2487
60,60,"bread","bed",25,83994,"rhyme-phon_sim-same_different-task_switching",2392,"rhyme","arrowup","experiment","<div style=""border: 3px solid #000000; position: fixed;left:14%;top:30%""><img src=""bed"" width=""300""></div><div style=""border: 3px solid #000000; position: fixed;left:64%;top:30%""><img src=""bread"" width=""300""></div>",1,NA,"Yes","used the pictures after I had seen them a few times","arrowup","non-ortho",4.83333333333333,4,"high_verbal","xnNpmgQR",0.95,0.9,2,3.9797,3.1602,0.8195
61,61,"claw","saw",25,59890,"rhyme-task_switching-same_different-phon_sim",1635.59999999404,"rhyme","arrowup","experiment","<div style=""border: 3px solid #000000; position: fixed;left:14%;top:30%""><img src=""saw"" width=""300""></div><div style=""border: 3px solid #000000; position: fixed;left:64%;top:30%""><img src=""claw"" width=""300""></div>",1,NA,"Yes","no_answer","arrowup","ortho",2.83333333333333,3.2,"low_verbal","hRiDYGB2",1,0.55,3,4.3123,2.3502,1.9621
62,62,"cone","bone",25,1302313,"rhyme-phon_sim-same_different-task_switching",1315.30000001192,"rhyme","arrowup","experiment","<div style=""border: 3px solid #000000; position: fixed;left:14%;top:30%""><img src=""bone"" width=""300""></div><div style=""border: 3px solid #000000; position: fixed;left:64%;top:30%""><img src=""cone"" width=""300""></div>",1,NA,"Yes","no_answer","arrowup","ortho",2.25,3.7,"low_verbal","05Wo9IGy",0.95,0.7,3,3.1239,2.1761,0.9478
63,63,"crane","bear",25,50748,"rhyme-same_different-phon_sim-task_switching",2997.40000000596,"rhyme","arrowdown","experiment","<div style=""border: 3px solid #000000; position: fixed;left:14%;top:30%""><img src=""bear"" width=""300""></div><div style=""border: 3px solid #000000; position: fixed;left:64%;top:30%""><img src=""crane"" width=""300""></div>",1,NA,"No","I said the words in my head.","arrowdown","NR",4.67,4.4,"high_verbal","2Ie4vXKm",0.95,0.7,3,3.4667,3.2343,0.2324
64,64,"fly","tie",25,114280,"rhyme-task_switching-phon_sim-same_different",1324.19999999925,"rhyme","arrowup","experiment","<div style=""border: 3px solid #000000; position: fixed;left:14%;top:30%""><img src=""tie"" width=""300""></div><div style=""border: 3px solid #000000; position: fixed;left:64%;top:30%""><img src=""fly"" width=""300""></div>",1,NA,"Yes","It got easier as I knew each picture better.","arrowup","non-ortho",4.75,4.5,"high_verbal","NRFUWLZO",0.7,0.95,3,3.3555,3.6371,0.2816
65,65,"fox","socks",25,286334,"rhyme-phon_sim-same_different-task_switching",1939.09999999776,"rhyme","arrowdown","experiment","<div style=""border: 3px solid #000000; position: fixed;left:14%;top:30%""><img src=""socks"" width=""300""></div><div style=""border: 3px solid #000000; position: fixed;left:64%;top:30%""><img src=""fox"" width=""300""></div>",0,NA,"No","I said it in my head ""aloud"".","arrowup","non-ortho",2.42,4.6,"low_verbal","HPiIXyO1",0.9,0.85,3,2.9699,3.0426,0.0727000000000002
66,66,"fox","socks",25,49415,"rhyme-phon_sim-same_different-task_switching",1381.10000002384,"rhyme","arrowup","experiment","<div style=""border: 3px solid #000000; position: fixed;left:14%;top:30%""><img src=""socks"" width=""300""></div><div style=""border: 3px solid #000000; position: fixed;left:64%;top:30%""><img src=""fox"" width=""300""></div>",1,NA,"No","said mentally","arrowup","non-ortho",4.166667,3.8,"high_verbal","RHqN8QGm",0.9,0.85,3,2.9699,3.0426,0.0727000000000002
67,67,"heart","dart",25,797093,"rhyme-same_different-task_switching-phon_sim",1782.79999995232,"rhyme","arrowup","experiment","<div style=""border: 3px solid #000000; position: fixed;left:14%;top:30%""><img src=""dart"" width=""300""></div><div style=""border: 3px solid #000000; position: fixed;left:64%;top:30%""><img src=""heart"" width=""300""></div>",1,NA,"No","I had to guess at first for some of these.","arrowup","non-ortho",2.58,3.7,"low_verbal","lAeE5wTL",0.9,0.9,3,1.9956,4.0953,2.0997
68,68,"jar","star",25,91491,"rhyme-phon_sim-task_switching-same_different",1095.5,"rhyme","arrowup","experiment","<div style=""border: 3px solid #000000; position: fixed;left:14%;top:30%""><img src=""star"" width=""300""></div><div style=""border: 3px solid #000000; position: fixed;left:64%;top:30%""><img src=""jar"" width=""300""></div>",1,NA,"Yes","Sometimes it seemed like I was trying to make words rhyme by the way I was saying them.","arrowup","ortho",2.91666666666667,3.3,"low_verbal","Ds5BnIYz",0.95,0.95,3,3.618,2.6284,0.9896
69,69,"moon","spoon",25,91637,"rhyme-phon_sim-task_switching-same_different",1356.79999998212,"rhyme","arrowup","experiment","<div style=""border: 3px solid #000000; position: fixed;left:14%;top:30%""><img src=""spoon"" width=""300""></div><div style=""border: 3px solid #000000; position: fixed;left:64%;top:30%""><img src=""moon"" width=""300""></div>",1,NA,"No","I said the words in my head and made my selection as quickly as possible.","arrowup","ortho",4.416667,4.2,"high_verbal","Qy5J1Mxs",1,0.95,3,2.5899,3.4064,0.8165
70,70,"moon","spoon",25,64621,"rhyme-task_switching-phon_sim-same_different",1645.79999995232,"rhyme","arrowup","experiment","<div style=""border: 3px solid #000000; position: fixed;left:14%;top:30%""><img src=""spoon"" width=""300""></div><div style=""border: 3px solid #000000; position: fixed;left:64%;top:30%""><img src=""moon"" width=""300""></div>",1,NA,"Yes","no","arrowup","ortho",4.166667,4.1,"high_verbal","c8Txd3Z5",1,0.95,3,2.5899,3.4064,0.8165
71,71,"rope","soap",25,83191,"rhyme-task_switching-phon_sim-same_different",1441.80000019073,"rhyme","arrowup","experiment","<div style=""border: 3px solid #000000; position: fixed;left:14%;top:30%""><img src=""soap"" width=""300""></div><div style=""border: 3px solid #000000; position: fixed;left:64%;top:30%""><img src=""rope"" width=""300""></div>",1,NA,"No","I always viewed the picture on the left first","arrowup","non-ortho",3,3.5,"low_verbal","qkCSFiGm",0.8,1,3,2.8899,3.0641,0.1742
72,72,"rose","well",25,95478,"rhyme-task_switching-same_different-phon_sim",4172.59999999404,"rhyme","arrowdown","experiment","<div style=""border: 3px solid #000000; position: fixed;left:14%;top:30%""><img src=""well"" width=""300""></div><div style=""border: 3px solid #000000; position: fixed;left:64%;top:30%""><img src=""rose"" width=""300""></div>",1,NA,"Yes","no_answer","arrowdown","NR",3,3.8,"low_verbal","xa4C6HC1",0.95,0.95,3,5.1833,3.4322,1.7511
73,73,"seal","wheel",25,64300,"rhyme-task_switching-same_different-phon_sim",1743.60000000149,"rhyme","arrowdown","experiment","<div style=""border: 3px solid #000000; position: fixed;left:14%;top:30%""><img src=""wheel"" width=""300""></div><div style=""border: 3px solid #000000; position: fixed;left:64%;top:30%""><img src=""seal"" width=""300""></div>",0,NA,"No","np","arrowup","non-ortho",2.92,4.2,"low_verbal","7rrmnKSW",0.75,0.75,3,3.1402,2.8768,0.2634
74,74,"snail","key",25,59388,"rhyme-task_switching-same_different-phon_sim",2224.79999999702,"rhyme","arrowdown","experiment","<div style=""border: 3px solid #000000; position: fixed;left:14%;top:30%""><img src=""key"" width=""300""></div><div style=""border: 3px solid #000000; position: fixed;left:64%;top:30%""><img src=""snail"" width=""300""></div>",1,NA,"No","No, I just said it in my head rather than out loud.","arrowdown","NR",4.75,4.5,"high_verbal","XWkUpOyp",0.95,0.95,3,3.6465,1.959,1.6875
75,75,"sock","cat",25,46158,"rhyme-phon_sim-task_switching-same_different",2374.90000009537,"rhyme","arrowdown","experiment","<div style=""border: 3px solid #000000; position: fixed;left:14%;top:30%""><img src=""cat"" width=""300""></div><div style=""border: 3px solid #000000; position: fixed;left:64%;top:30%""><img src=""sock"" width=""300""></div>",1,NA,"Yes","no","arrowdown","NR",1.33,1.9,"low_verbal","5WF1GwNy",0.9,0.9,2,3.5294,2.6618,0.8676
76,76,"square","bear",25,208326,"rhyme-same_different-task_switching-phon_sim",2202,"rhyme","arrowup","experiment","<div style=""border: 3px solid #000000; position: fixed;left:14%;top:30%""><img src=""bear"" width=""300""></div><div style=""border: 3px solid #000000; position: fixed;left:64%;top:30%""><img src=""square"" width=""300""></div>",1,NA,"Yes","I tried to quickly reference in my mind if I had heard the two words referenced together in rhyme before. I also tried to think ahead about what rhymed with certain words.","arrowup","non-ortho",5,4.8,"high_verbal","m6nAacjH",0.95,0.85,3,3.4667,3.2098,0.2569
77,77,"square","bear",25,102572,"rhyme-phon_sim-same_different-task_switching",1665.29999995232,"rhyme","arrowup","experiment","<div style=""border: 3px solid #000000; position: fixed;left:14%;top:30%""><img src=""bear"" width=""300""></div><div style=""border: 3px solid #000000; position: fixed;left:64%;top:30%""><img src=""square"" width=""300""></div>",1,NA,"Yes","no_answer","arrowup","non-ortho",3.08333333333333,3.2,"low_verbal","4KFmznfv",0.95,0.85,2,3.4667,3.2098,0.2569
78,78,"thumb","drum",25,58698,"rhyme-same_different-task_switching-phon_sim",1109.79999995232,"rhyme","arrowup","experiment","<div style=""border: 3px solid #000000; position: fixed;left:14%;top:30%""><img src=""drum"" width=""300""></div><div style=""border: 3px solid #000000; position: fixed;left:64%;top:30%""><img src=""thumb"" width=""300""></div>",1,NA,"No","no_answer","arrowup","non-ortho",2.17,3.9,"low_verbal","vhsbIoXa",1,0.9,2,2.6365,2.781,0.1445
79,79,"tie","eye",25,2385508,"rhyme-same_different-phon_sim-task_switching",2429.10000002384,"rhyme","arrowup","experiment","<div style=""border: 3px solid #000000; position: fixed;left:14%;top:30%""><img src=""eye"" width=""300""></div><div style=""border: 3px solid #000000; position: fixed;left:64%;top:30%""><img src=""tie"" width=""300""></div>",1,NA,"Yes","I just went with my gut intuition","arrowup","non-ortho",4.75,5,"high_verbal","DuDDHkI9",0.95,0.7,3,3.756,3.3555,0.4005
80,80,"train","plane",25,85037,"rhyme-same_different-task_switching-phon_sim",1423.19999999553,"rhyme","arrowdown","experiment","<div style=""border: 3px solid #000000; position: fixed;left:14%;top:30%""><img src=""plane"" width=""300""></div><div style=""border: 3px solid #000000; position: fixed;left:64%;top:30%""><img src=""train"" width=""300""></div>",0,NA,"Yes","no","arrowup","non-ortho",2.5,3,"low_verbal","OE580Gi8",0.35,0.95,2,3.6878,3.6857,0.00209999999999999
81,81,"whale","nail",25,79147,"rhyme-task_switching-phon_sim-same_different",1153.90000000224,"rhyme","arrowup","experiment","<div style=""border: 3px solid #000000; position: fixed;left:14%;top:30%""><img src=""nail"" width=""300""></div><div style=""border: 3px solid #000000; position: fixed;left:64%;top:30%""><img src=""whale"" width=""300""></div>",1,NA,"No","Some of the pictures weren't clear as to what it was mainly about. I said the words in my head","arrowup","non-ortho",2.58,2.4,"low_verbal","GJMX4RUC",0.95,0.95,3,2.9786,2.7597,0.2189
82,82,"whale","jar",25,116928,"rhyme-task_switching-same_different-phon_sim",NA,"rhyme","null","experiment","<div style=""border: 3px solid #000000; position: fixed;left:14%;top:30%""><img src=""jar"" width=""300""></div><div style=""border: 3px solid #000000; position: fixed;left:64%;top:30%""><img src=""whale"" width=""300""></div>",0,NA,"No","no","arrowdown","NR",2.33,2.5,"low_verbal","TFWelN7f",0.95,0.95,2,2.6284,2.7597,0.1313
83,83,"bell","well",28,51622,"rhyme-phon_sim-same_different-task_switching",1182.59999996424,"rhyme","arrowup","experiment","<div style=""border: 3px solid #000000; position: fixed;left:14%;top:30%""><img src=""well"" width=""300""></div><div style=""border: 3px solid #000000; position: fixed;left:64%;top:30%""><img src=""bell"" width=""300""></div>",1,NA,"No","said mentally","arrowup","ortho",4.166667,3.8,"high_verbal","RHqN8QGm",0.95,0.9,4,5.1833,3.3025,1.8808
84,84,"bell","well",28,160572,"rhyme-same_different-task_switching-phon_sim",1019.40000009537,"rhyme","arrowup","experiment","<div style=""border: 3px solid #000000; position: fixed;left:14%;top:30%""><img src=""well"" width=""300""></div><div style=""border: 3px solid #000000; position: fixed;left:64%;top:30%""><img src=""bell"" width=""300""></div>",1,NA,"Yes","no","arrowup","ortho",2.67,3,"low_verbal","wDmKNbjb",0.95,0.9,3,5.1833,3.3025,1.8808
85,85,"bell","nose",28,62626,"rhyme-task_switching-same_different-phon_sim",1981.19999999553,"rhyme","arrowdown","experiment","<div style=""border: 3px solid #000000; position: fixed;left:14%;top:30%""><img src=""nose"" width=""300""></div><div style=""border: 3px solid #000000; position: fixed;left:64%;top:30%""><img src=""bell"" width=""300""></div>",1,NA,"No","No, I just said it in my head rather than out loud.","arrowdown","NR",4.75,4.5,"high_verbal","XWkUpOyp",1,0.9,4,3.5512,3.3025,0.2487
86,86,"bell","nose",28,81499,"rhyme-task_switching-phon_sim-same_different",1069.60000000149,"rhyme","arrowdown","experiment","<div style=""border: 3px solid #000000; position: fixed;left:14%;top:30%""><img src=""nose"" width=""300""></div><div style=""border: 3px solid #000000; position: fixed;left:64%;top:30%""><img src=""bell"" width=""300""></div>",1,NA,"No","Some of the pictures weren't clear as to what it was mainly about. I said the words in my head","arrowdown","NR",2.58,2.4,"low_verbal","GJMX4RUC",1,0.9,4,3.5512,3.3025,0.2487
87,87,"cab","king",28,121609,"rhyme-phon_sim-same_different-task_switching",2924.80000000447,"rhyme","arrowdown","experiment","<div style=""border: 3px solid #000000; position: fixed;left:14%;top:30%""><img src=""king"" width=""300""></div><div style=""border: 3px solid #000000; position: fixed;left:64%;top:30%""><img src=""cab"" width=""300""></div>",1,NA,"Yes","nothing","arrowdown","NR",4.67,4.7,"high_verbal","lcQfoynH",0.8,0.05,4,3.8191,3.2617,0.5574
88,88,"chair","drawer",28,117624,"rhyme-task_switching-phon_sim-same_different",2313.10000000149,"rhyme","arrowdown","experiment","<div style=""border: 3px solid #000000; position: fixed;left:14%;top:30%""><img src=""drawer"" width=""300""></div><div style=""border: 3px solid #000000; position: fixed;left:64%;top:30%""><img src=""chair"" width=""300""></div>",1,NA,"Yes","It got easier as I knew each picture better.","arrowdown","NR",4.75,4.5,"high_verbal","NRFUWLZO",0.8,0.95,4,2.8222,3.4,0.5778
89,89,"claw","saw",28,93728,"rhyme-phon_sim-task_switching-same_different",1231.5,"rhyme","arrowup","experiment","<div style=""border: 3px solid #000000; position: fixed;left:14%;top:30%""><img src=""saw"" width=""300""></div><div style=""border: 3px solid #000000; position: fixed;left:64%;top:30%""><img src=""claw"" width=""300""></div>",1,NA,"Yes","Sometimes it seemed like I was trying to make words rhyme by the way I was saying them.","arrowup","ortho",2.91666666666667,3.3,"low_verbal","Ds5BnIYz",1,0.55,4,4.3123,2.3502,1.9621
90,90,"clock","brain",28,212165,"rhyme-same_different-task_switching-phon_sim",3082,"rhyme","arrowdown","experiment","<div style=""border: 3px solid #000000; position: fixed;left:14%;top:30%""><img src=""brain"" width=""300""></div><div style=""border: 3px solid #000000; position: fixed;left:64%;top:30%""><img src=""clock"" width=""300""></div>",1,NA,"Yes","I tried to quickly reference in my mind if I had heard the two words referenced together in rhyme before. I also tried to think ahead about what rhymed with certain words.","arrowdown","NR",5,4.8,"high_verbal","m6nAacjH",0.95,0.95,4,3.5943,3.4758,0.1185
91,91,"crab","spoon",28,79735,"rhyme-same_different-phon_sim-task_switching",2502.79999995232,"rhyme","arrowdown","experiment","<div style=""border: 3px solid #000000; position: fixed;left:14%;top:30%""><img src=""spoon"" width=""300""></div><div style=""border: 3px solid #000000; position: fixed;left:64%;top:30%""><img src=""crab"" width=""300""></div>",1,NA,"No","Said in my mind, not vocally","arrowdown","NR",3.08333333333333,3.9,"low_verbal","NS1YHcvi",1,0.95,3,2.5899,2.5478,0.0421
92,92,"door","tree",28,2388538,"rhyme-same_different-phon_sim-task_switching",2248.5,"rhyme","arrowdown","experiment","<div style=""border: 3px solid #000000; position: fixed;left:14%;top:30%""><img src=""tree"" width=""300""></div><div style=""border: 3px solid #000000; position: fixed;left:64%;top:30%""><img src=""door"" width=""300""></div>",1,NA,"Yes","I just went with my gut intuition","arrowdown","NR",4.75,5,"high_verbal","DuDDHkI9",0.85,0.95,4,3.5206,4.1731,0.6525
93,93,"door","drawer",28,61066,"rhyme-same_different-task_switching-phon_sim",1345,"rhyme","arrowup","experiment","<div style=""border: 3px solid #000000; position: fixed;left:14%;top:30%""><img src=""drawer"" width=""300""></div><div style=""border: 3px solid #000000; position: fixed;left:64%;top:30%""><img src=""door"" width=""300""></div>",1,NA,"No","no_answer","arrowup","non-ortho",2.17,3.9,"low_verbal","vhsbIoXa",0.8,0.95,3,2.8222,4.1731,1.3509
94,94,"door","drawer",28,800727,"rhyme-same_different-task_switching-phon_sim",2602.39999997616,"rhyme","arrowup","experiment","<div style=""border: 3px solid #000000; position: fixed;left:14%;top:30%""><img src=""drawer"" width=""300""></div><div style=""border: 3px solid #000000; position: fixed;left:64%;top:30%""><img src=""door"" width=""300""></div>",1,NA,"No","I had to guess at first for some of these.","arrowup","non-ortho",2.58,3.7,"low_verbal","lAeE5wTL",0.8,0.95,4,2.8222,4.1731,1.3509
95,95,"fly","tie",28,88141,"rhyme-same_different-task_switching-phon_sim",1579.70000000298,"rhyme","arrowup","experiment","<div style=""border: 3px solid #000000; position: fixed;left:14%;top:30%""><img src=""tie"" width=""300""></div><div style=""border: 3px solid #000000; position: fixed;left:64%;top:30%""><img src=""fly"" width=""300""></div>",1,NA,"Yes","no","arrowup","non-ortho",2.5,3,"low_verbal","OE580Gi8",0.7,0.95,3,3.3555,3.6371,0.2816
96,96,"hat","cat",28,1304675,"rhyme-phon_sim-same_different-task_switching",1095.80000001192,"rhyme","arrowup","experiment","<div style=""border: 3px solid #000000; position: fixed;left:14%;top:30%""><img src=""cat"" width=""300""></div><div style=""border: 3px solid #000000; position: fixed;left:64%;top:30%""><img src=""hat"" width=""300""></div>",1,NA,"Yes","no_answer","arrowup","ortho",2.25,3.7,"low_verbal","05Wo9IGy",0.9,1,4,3.5294,3.5151,0.0143
97,97,"leg","egg",28,86147,"rhyme-task_switching-phon_sim-same_different",1685.39999985695,"rhyme","arrowup","experiment","<div style=""border: 3px solid #000000; position: fixed;left:14%;top:30%""><img src=""egg"" width=""300""></div><div style=""border: 3px solid #000000; position: fixed;left:64%;top:30%""><img src=""leg"" width=""300""></div>",1,NA,"No","I always viewed the picture on the left first","arrowup","ortho",3,3.5,"low_verbal","qkCSFiGm",0.95,0.85,4,3.1235,3.4598,0.3363
98,98,"ring","king",28,86161,"rhyme-phon_sim-same_different-task_switching",1160,"rhyme","arrowup","experiment","<div style=""border: 3px solid #000000; position: fixed;left:14%;top:30%""><img src=""king"" width=""300""></div><div style=""border: 3px solid #000000; position: fixed;left:64%;top:30%""><img src=""ring"" width=""300""></div>",1,NA,"Yes","used the pictures after I had seen them a few times","arrowup","ortho",4.83333333333333,4,"high_verbal","xnNpmgQR",0.8,0.9,3,3.8191,3.675,0.1441
99,99,"ring","egg",28,67012,"rhyme-task_switching-same_different-phon_sim",1690.60000000149,"rhyme","arrowdown","experiment","<div style=""border: 3px solid #000000; position: fixed;left:14%;top:30%""><img src=""egg"" width=""300""></div><div style=""border: 3px solid #000000; position: fixed;left:64%;top:30%""><img src=""ring"" width=""300""></div>",1,NA,"No","np","arrowdown","NR",2.92,4.2,"low_verbal","7rrmnKSW",0.95,0.9,4,3.1235,3.675,0.5515
100,100,"rope","pear",28,161391,"rhyme-same_different-task_switching-phon_sim",2289.5,"rhyme","arrowdown","experiment","<div style=""border: 3px solid #000000; position: fixed;left:14%;top:30%""><img src=""pear"" width=""300""></div><div style=""border: 3px solid #000000; position: fixed;left:64%;top:30%""><img src=""rope"" width=""300""></div>",1,NA,"No","some were hard to tell what they were supposed to be","arrowdown","NR",1.42,2.7,"low_verbal","fX6rWWkd",0.95,1,4,1.8388,3.0641,1.2253
101,101,"rope","pear",28,53183,"rhyme-same_different-phon_sim-task_switching",1648.29999999702,"rhyme","arrowdown","experiment","<div style=""border: 3px solid #000000; position: fixed;left:14%;top:30%""><img src=""pear"" width=""300""></div><div style=""border: 3px solid #000000; position: fixed;left:64%;top:30%""><img src=""rope"" width=""300""></div>",1,NA,"No","I said the words in my head.","arrowdown","NR",4.67,4.4,"high_verbal","2Ie4vXKm",0.95,1,4,1.8388,3.0641,1.2253
102,102,"seal","wheel",28,96161,"rhyme-phon_sim-task_switching-same_different",3016.5,"rhyme","arrowdown","experiment","<div style=""border: 3px solid #000000; position: fixed;left:14%;top:30%""><img src=""wheel"" width=""300""></div><div style=""border: 3px solid #000000; position: fixed;left:64%;top:30%""><img src=""seal"" width=""300""></div>",0,NA,"No","I said the words in my head and made my selection as quickly as possible.","arrowup","non-ortho",4.416667,4.2,"high_verbal","Qy5J1Mxs",0.75,0.75,4,3.1402,2.8768,0.2634
103,103,"sock","cat",28,74669,"rhyme-task_switching-phon_sim-same_different",NA,"rhyme","null","experiment","<div style=""border: 3px solid #000000; position: fixed;left:14%;top:30%""><img src=""cat"" width=""300""></div><div style=""border: 3px solid #000000; position: fixed;left:64%;top:30%""><img src=""sock"" width=""300""></div>",0,NA,"No","no_answer","arrowdown","NR",4.25,3.7,"high_verbal","ts7nbQkN",0.9,0.9,2,3.5294,2.6618,0.8676
104,104,"thumb","drum",28,122978,"rhyme-task_switching-same_different-phon_sim",NA,"rhyme","null","experiment","<div style=""border: 3px solid #000000; position: fixed;left:14%;top:30%""><img src=""drum"" width=""300""></div><div style=""border: 3px solid #000000; position: fixed;left:64%;top:30%""><img src=""thumb"" width=""300""></div>",0,NA,"No","no","arrowup","non-ortho",2.33,2.5,"low_verbal","TFWelN7f",1,0.9,3,2.6365,2.781,0.1445
105,105,"tie","dart",28,130408,"rhyme-phon_sim-task_switching-same_different",1318.60000000149,"rhyme","arrowdown","experiment","<div style=""border: 3px solid #000000; position: fixed;left:14%;top:30%""><img src=""dart"" width=""300""></div><div style=""border: 3px solid #000000; position: fixed;left:64%;top:30%""><img src=""tie"" width=""300""></div>",1,NA,"Yes","No","arrowdown","NR",2.25,1.8,"low_verbal","AZihdj82",0.9,0.7,3,1.9956,3.3555,1.3599
106,106,"tree","key",28,98068,"rhyme-task_switching-same_different-phon_sim",1463.8,"rhyme","arrowup","experiment","<div style=""border: 3px solid #000000; position: fixed;left:14%;top:30%""><img src=""key"" width=""300""></div><div style=""border: 3px solid #000000; position: fixed;left:64%;top:30%""><img src=""tree"" width=""300""></div>",1,NA,"No","I said the pictures in my head before choosing.","arrowup","non-ortho",1.75,3.9,"low_verbal","Xa9ISMwC",0.95,0.85,3,3.6465,3.5206,0.1259
107,107,"tree","key",28,104892,"rhyme-phon_sim-same_different-task_switching",1558.5,"rhyme","arrowup","experiment","<div style=""border: 3px solid #000000; position: fixed;left:14%;top:30%""><img src=""key"" width=""300""></div><div style=""border: 3px solid #000000; position: fixed;left:64%;top:30%""><img src=""tree"" width=""300""></div>",1,NA,"Yes","no_answer","arrowup","non-ortho",3.08333333333333,3.2,"low_verbal","4KFmznfv",0.95,0.85,3,3.6465,3.5206,0.1259
108,108,"whale","nail",28,290750,"rhyme-phon_sim-same_different-task_switching",3136.30000000075,"rhyme","arrowup","experiment","<div style=""border: 3px solid #000000; position: fixed;left:14%;top:30%""><img src=""nail"" width=""300""></div><div style=""border: 3px solid #000000; position: fixed;left:64%;top:30%""><img src=""whale"" width=""300""></div>",1,NA,"No","I said it in my head ""aloud"".","arrowup","non-ortho",2.42,4.6,"low_verbal","HPiIXyO1",0.95,0.95,4,2.9786,2.7597,0.2189
109,109,"whale","snail",28,67994,"rhyme-task_switching-phon_sim-same_different",2343.89999997616,"rhyme","arrowup","experiment","<div style=""border: 3px solid #000000; position: fixed;left:14%;top:30%""><img src=""snail"" width=""300""></div><div style=""border: 3px solid #000000; position: fixed;left:64%;top:30%""><img src=""whale"" width=""300""></div>",1,NA,"Yes","no","arrowup","non-ortho",4.166667,4.1,"high_verbal","c8Txd3Z5",0.95,0.95,4,1.959,2.7597,0.8007
110,110,"beer","deer",31,85392,"rhyme-same_different-phon_sim-task_switching",4139.79999995232,"rhyme","arrowdown","experiment","<div style=""border: 3px solid #000000; position: fixed;left:14%;top:30%""><img src=""deer"" width=""300""></div><div style=""border: 3px solid #000000; position: fixed;left:64%;top:30%""><img src=""beer"" width=""300""></div>",0,NA,"No","Said in my mind, not vocally","arrowup","ortho",3.08333333333333,3.9,"low_verbal","NS1YHcvi",0.65,0.75,4,2.6484,3.5856,0.9372
111,111,"beer","claw",31,89223,"rhyme-task_switching-phon_sim-same_different",2306.39999985695,"rhyme","arrowdown","experiment","<div style=""border: 3px solid #000000; position: fixed;left:14%;top:30%""><img src=""claw"" width=""300""></div><div style=""border: 3px solid #000000; position: fixed;left:64%;top:30%""><img src=""beer"" width=""300""></div>",1,NA,"No","I always viewed the picture on the left first","arrowdown","NR",3,3.5,"low_verbal","qkCSFiGm",0.55,0.75,5,2.3502,3.5856,1.2354
112,112,"bread","bed",31,96582,"rhyme-phon_sim-task_switching-same_different",1341.79999998212,"rhyme","arrowup","experiment","<div style=""border: 3px solid #000000; position: fixed;left:14%;top:30%""><img src=""bed"" width=""300""></div><div style=""border: 3px solid #000000; position: fixed;left:64%;top:30%""><img src=""bread"" width=""300""></div>",1,NA,"Yes","Sometimes it seemed like I was trying to make words rhyme by the way I was saying them.","arrowup","non-ortho",2.91666666666667,3.3,"low_verbal","Ds5BnIYz",0.95,0.9,5,3.9797,3.1602,0.8195
113,113,"cab","king",31,162065,"rhyme-same_different-task_switching-phon_sim",713.799999713898,"rhyme","arrowup","experiment","<div style=""border: 3px solid #000000; position: fixed;left:14%;top:30%""><img src=""king"" width=""300""></div><div style=""border: 3px solid #000000; position: fixed;left:64%;top:30%""><img src=""cab"" width=""300""></div>",0,NA,"Yes","no","arrowdown","NR",2.67,3,"low_verbal","wDmKNbjb",0.8,0.05,4,3.8191,3.2617,0.5574
114,114,"chain","plane",31,107115,"rhyme-phon_sim-same_different-task_switching",1214.5,"rhyme","arrowup","experiment","<div style=""border: 3px solid #000000; position: fixed;left:14%;top:30%""><img src=""plane"" width=""300""></div><div style=""border: 3px solid #000000; position: fixed;left:64%;top:30%""><img src=""chain"" width=""300""></div>",1,NA,"Yes","no_answer","arrowup","non-ortho",3.08333333333333,3.2,"low_verbal","4KFmznfv",0.35,0.95,4,3.6878,3.0346,0.6532
115,115,"chair","drawer",31,71235,"rhyme-task_switching-phon_sim-same_different",2211.5,"rhyme","arrowdown","experiment","<div style=""border: 3px solid #000000; position: fixed;left:14%;top:30%""><img src=""drawer"" width=""300""></div><div style=""border: 3px solid #000000; position: fixed;left:64%;top:30%""><img src=""chair"" width=""300""></div>",1,NA,"Yes","no","arrowdown","NR",4.166667,4.1,"high_verbal","c8Txd3Z5",0.8,0.95,5,2.8222,3.4,0.5778
116,116,"clock","brain",31,90533,"rhyme-same_different-task_switching-phon_sim",1621.5,"rhyme","arrowdown","experiment","<div style=""border: 3px solid #000000; position: fixed;left:14%;top:30%""><img src=""brain"" width=""300""></div><div style=""border: 3px solid #000000; position: fixed;left:64%;top:30%""><img src=""clock"" width=""300""></div>",1,NA,"Yes","no","arrowdown","NR",2.5,3,"low_verbal","OE580Gi8",0.95,0.95,4,3.5943,3.4758,0.1185
117,117,"clock","brain",31,803253,"rhyme-same_different-task_switching-phon_sim",1508.19999992847,"rhyme","arrowdown","experiment","<div style=""border: 3px solid #000000; position: fixed;left:14%;top:30%""><img src=""brain"" width=""300""></div><div style=""border: 3px solid #000000; position: fixed;left:64%;top:30%""><img src=""clock"" width=""300""></div>",1,NA,"No","I had to guess at first for some of these.","arrowdown","NR",2.58,3.7,"low_verbal","lAeE5wTL",0.95,0.95,5,3.5943,3.4758,0.1185
118,118,"cone","bone",31,63706,"rhyme-same_different-task_switching-phon_sim",1118.60000002384,"rhyme","arrowup","experiment","<div style=""border: 3px solid #000000; position: fixed;left:14%;top:30%""><img src=""bone"" width=""300""></div><div style=""border: 3px solid #000000; position: fixed;left:64%;top:30%""><img src=""cone"" width=""300""></div>",1,NA,"No","no_answer","arrowup","ortho",2.17,3.9,"low_verbal","vhsbIoXa",0.95,0.7,4,3.1239,2.1761,0.9478
119,119,"crab","spoon",31,65492,"rhyme-task_switching-same_different-phon_sim",1612,"rhyme","arrowdown","experiment","<div style=""border: 3px solid #000000; position: fixed;left:14%;top:30%""><img src=""spoon"" width=""300""></div><div style=""border: 3px solid #000000; position: fixed;left:64%;top:30%""><img src=""crab"" width=""300""></div>",1,NA,"No","No, I just said it in my head rather than out loud.","arrowdown","NR",4.75,4.5,"high_verbal","XWkUpOyp",1,0.95,5,2.5899,2.5478,0.0421
120,120,"crane","bear",31,165487,"rhyme-same_different-task_switching-phon_sim",2571.5,"rhyme","arrowdown","experiment","<div style=""border: 3px solid #000000; position: fixed;left:14%;top:30%""><img src=""bear"" width=""300""></div><div style=""border: 3px solid #000000; position: fixed;left:64%;top:30%""><img src=""crane"" width=""300""></div>",1,NA,"No","some were hard to tell what they were supposed to be","arrowdown","NR",1.42,2.7,"low_verbal","fX6rWWkd",0.95,0.7,5,3.4667,3.2343,0.2324
121,121,"crane","bear",31,2392682,"rhyme-same_different-phon_sim-task_switching",3375,"rhyme","arrowdown","experiment","<div style=""border: 3px solid #000000; position: fixed;left:14%;top:30%""><img src=""bear"" width=""300""></div><div style=""border: 3px solid #000000; position: fixed;left:64%;top:30%""><img src=""crane"" width=""300""></div>",1,NA,"Yes","I just went with my gut intuition","arrowdown","NR",4.75,5,"high_verbal","DuDDHkI9",0.95,0.7,5,3.4667,3.2343,0.2324
122,122,"door","drawer",31,99600,"rhyme-phon_sim-task_switching-same_different",1928.09999999404,"rhyme","arrowup","experiment","<div style=""border: 3px solid #000000; position: fixed;left:14%;top:30%""><img src=""drawer"" width=""300""></div><div style=""border: 3px solid #000000; position: fixed;left:64%;top:30%""><img src=""door"" width=""300""></div>",1,NA,"No","I said the words in my head and made my selection as quickly as possible.","arrowup","non-ortho",4.416667,4.2,"high_verbal","Qy5J1Mxs",0.8,0.95,5,2.8222,4.1731,1.3509
123,123,"fox","socks",31,128761,"rhyme-task_switching-same_different-phon_sim",NA,"rhyme","null","experiment","<div style=""border: 3px solid #000000; position: fixed;left:14%;top:30%""><img src=""socks"" width=""300""></div><div style=""border: 3px solid #000000; position: fixed;left:64%;top:30%""><img src=""fox"" width=""300""></div>",0,NA,"No","no","arrowup","non-ortho",2.33,2.5,"low_verbal","TFWelN7f",0.9,0.85,4,2.9699,3.0426,0.0727000000000002
124,124,"jar","star",31,119950,"rhyme-task_switching-phon_sim-same_different",1542.39999999851,"rhyme","arrowup","experiment","<div style=""border: 3px solid #000000; position: fixed;left:14%;top:30%""><img src=""star"" width=""300""></div><div style=""border: 3px solid #000000; position: fixed;left:64%;top:30%""><img src=""jar"" width=""300""></div>",1,NA,"Yes","It got easier as I knew each picture better.","arrowup","ortho",4.75,4.5,"high_verbal","NRFUWLZO",0.95,0.95,5,3.618,2.6284,0.9896
125,125,"jar","star",31,70308,"rhyme-task_switching-same_different-phon_sim",1783.30000000075,"rhyme","arrowup","experiment","<div style=""border: 3px solid #000000; position: fixed;left:14%;top:30%""><img src=""star"" width=""300""></div><div style=""border: 3px solid #000000; position: fixed;left:64%;top:30%""><img src=""jar"" width=""300""></div>",1,NA,"No","np","arrowup","ortho",2.92,4.2,"low_verbal","7rrmnKSW",0.95,0.95,5,3.618,2.6284,0.9896
126,126,"man","fan",31,1307305,"rhyme-phon_sim-same_different-task_switching",1874.80000001192,"rhyme","arrowup","experiment","<div style=""border: 3px solid #000000; position: fixed;left:14%;top:30%""><img src=""fan"" width=""300""></div><div style=""border: 3px solid #000000; position: fixed;left:64%;top:30%""><img src=""man"" width=""300""></div>",1,NA,"Yes","no_answer","arrowup","ortho",2.25,3.7,"low_verbal","05Wo9IGy",0.75,0.8,5,3.2536,4.9737,1.7201
127,127,"nose","rose",31,89036,"rhyme-phon_sim-same_different-task_switching",1619,"rhyme","arrowup","experiment","<div style=""border: 3px solid #000000; position: fixed;left:14%;top:30%""><img src=""rose"" width=""300""></div><div style=""border: 3px solid #000000; position: fixed;left:64%;top:30%""><img src=""nose"" width=""300""></div>",1,NA,"Yes","used the pictures after I had seen them a few times","arrowup","ortho",4.83333333333333,4,"high_verbal","xnNpmgQR",0.95,1,4,3.4322,3.5512,0.119
128,128,"rope","soap",31,91460,"rhyme-task_switching-same_different-phon_sim",2022.59999999404,"rhyme","arrowup","experiment","<div style=""border: 3px solid #000000; position: fixed;left:14%;top:30%""><img src=""soap"" width=""300""></div><div style=""border: 3px solid #000000; position: fixed;left:64%;top:30%""><img src=""rope"" width=""300""></div>",1,NA,"No","I mentally ""stated"" the words as a pair.","arrowup","non-ortho",1.67,3.3,"low_verbal","UhCBWnbb",0.8,1,3,2.8899,3.0641,0.1742
129,129,"rope","pear",31,293368,"rhyme-phon_sim-same_different-task_switching",1844.19999999925,"rhyme","arrowdown","experiment","<div style=""border: 3px solid #000000; position: fixed;left:14%;top:30%""><img src=""pear"" width=""300""></div><div style=""border: 3px solid #000000; position: fixed;left:64%;top:30%""><img src=""rope"" width=""300""></div>",1,NA,"No","I said it in my head ""aloud"".","arrowdown","NR",2.42,4.6,"low_verbal","HPiIXyO1",0.95,1,5,1.8388,3.0641,1.2253
130,130,"shoe","soap",31,215581,"rhyme-same_different-task_switching-phon_sim",2662,"rhyme","arrowdown","experiment","<div style=""border: 3px solid #000000; position: fixed;left:14%;top:30%""><img src=""soap"" width=""300""></div><div style=""border: 3px solid #000000; position: fixed;left:64%;top:30%""><img src=""shoe"" width=""300""></div>",1,NA,"Yes","I tried to quickly reference in my mind if I had heard the two words referenced together in rhyme before. I also tried to think ahead about what rhymed with certain words.","arrowdown","NR",5,4.8,"high_verbal","m6nAacjH",0.8,0.85,5,2.8899,3.1906,0.3007
131,131,"shoe","screw",31,101302,"rhyme-task_switching-same_different-phon_sim",1724.5,"rhyme","arrowup","experiment","<div style=""border: 3px solid #000000; position: fixed;left:14%;top:30%""><img src=""screw"" width=""300""></div><div style=""border: 3px solid #000000; position: fixed;left:64%;top:30%""><img src=""shoe"" width=""300""></div>",1,NA,"No","I said the pictures in my head before choosing.","arrowup","non-ortho",1.75,3.9,"low_verbal","Xa9ISMwC",1,0.85,4,3.2817,3.1906,0.0911
132,132,"soap","pope",31,78028,"rhyme-task_switching-phon_sim-same_different",1828,"rhyme","arrowup","experiment","<div style=""border: 3px solid #000000; position: fixed;left:14%;top:30%""><img src=""pope"" width=""300""></div><div style=""border: 3px solid #000000; position: fixed;left:64%;top:30%""><img src=""soap"" width=""300""></div>",1,NA,"No","no_answer","arrowup","non-ortho",4.25,3.7,"high_verbal","ts7nbQkN",0.45,0.8,3,2.738,2.8899,0.1519
133,133,"sock","cat",31,102963,"rhyme-task_switching-same_different-phon_sim",1498.5,"rhyme","arrowdown","experiment","<div style=""border: 3px solid #000000; position: fixed;left:14%;top:30%""><img src=""cat"" width=""300""></div><div style=""border: 3px solid #000000; position: fixed;left:64%;top:30%""><img src=""sock"" width=""300""></div>",1,NA,"Yes","no_answer","arrowdown","NR",3,3.8,"low_verbal","xa4C6HC1",0.9,0.9,4,3.5294,2.6618,0.8676
134,134,"sock","cat",31,54068,"rhyme-phon_sim-same_different-task_switching",1171.89999997616,"rhyme","arrowdown","experiment","<div style=""border: 3px solid #000000; position: fixed;left:14%;top:30%""><img src=""cat"" width=""300""></div><div style=""border: 3px solid #000000; position: fixed;left:64%;top:30%""><img src=""sock"" width=""300""></div>",1,NA,"No","said mentally","arrowdown","NR",4.166667,3.8,"high_verbal","RHqN8QGm",0.9,0.9,5,3.5294,2.6618,0.8676
135,135,"tie","dart",31,67052,"rhyme-task_switching-same_different-phon_sim",2520.20000000298,"rhyme","arrowdown","experiment","<div style=""border: 3px solid #000000; position: fixed;left:14%;top:30%""><img src=""dart"" width=""300""></div><div style=""border: 3px solid #000000; position: fixed;left:64%;top:30%""><img src=""tie"" width=""300""></div>",1,NA,"Yes","no_answer","arrowdown","NR",2.83333333333333,3.2,"low_verbal","hRiDYGB2",0.9,0.7,4,1.9956,3.3555,1.3599
136,136,"whale","snail",31,125042,"rhyme-phon_sim-same_different-task_switching",2659.5,"rhyme","arrowup","experiment","<div style=""border: 3px solid #000000; position: fixed;left:14%;top:30%""><img src=""snail"" width=""300""></div><div style=""border: 3px solid #000000; position: fixed;left:64%;top:30%""><img src=""whale"" width=""300""></div>",1,NA,"Yes","nothing","arrowup","non-ortho",4.67,4.7,"high_verbal","lcQfoynH",0.95,0.95,5,1.959,2.7597,0.8007
137,137,"whale","nail",31,52144,"rhyme-phon_sim-task_switching-same_different",2361.09999990463,"rhyme","arrowup","experiment","<div style=""border: 3px solid #000000; position: fixed;left:14%;top:30%""><img src=""nail"" width=""300""></div><div style=""border: 3px solid #000000; position: fixed;left:64%;top:30%""><img src=""whale"" width=""300""></div>",1,NA,"Yes","no","arrowup","non-ortho",1.33,1.9,"low_verbal","5WF1GwNy",0.95,0.95,3,2.9786,2.7597,0.2189
138,138,"whale","nail",31,270203,"rhyme-same_different-phon_sim-task_switching",1287.39999999106,"rhyme","arrowup","experiment","<div style=""border: 3px solid #000000; position: fixed;left:14%;top:30%""><img src=""nail"" width=""300""></div><div style=""border: 3px solid #000000; position: fixed;left:64%;top:30%""><img src=""whale"" width=""300""></div>",1,NA,"Yes","think of the most simple word for the image","arrowup","non-ortho",4.25,4.1,"high_verbal","sZLRQDIR",0.95,0.95,3,2.9786,2.7597,0.2189
139,139,"bag","flag",34,55214,"rhyme-phon_sim-task_switching-same_different",1805.09999990463,"rhyme","arrowup","experiment","<div style=""border: 3px solid #000000; position: fixed;left:14%;top:30%""><img src=""flag"" width=""300""></div><div style=""border: 3px solid #000000; position: fixed;left:64%;top:30%""><img src=""bag"" width=""300""></div>",1,NA,"Yes","no","arrowup","ortho",1.33,1.9,"low_verbal","5WF1GwNy",0.9,0.95,4,2.9509,3.681,0.7301
140,140,"beer","claw",34,106164,"rhyme-task_switching-same_different-phon_sim",2443.70000000298,"rhyme","arrowdown","experiment","<div style=""border: 3px solid #000000; position: fixed;left:14%;top:30%""><img src=""claw"" width=""300""></div><div style=""border: 3px solid #000000; position: fixed;left:64%;top:30%""><img src=""beer"" width=""300""></div>",1,NA,"Yes","no_answer","arrowdown","NR",3,3.8,"low_verbal","xa4C6HC1",0.55,0.75,5,2.3502,3.5856,1.2354
141,141,"beer","deer",34,94778,"rhyme-task_switching-same_different-phon_sim",2058.5,"rhyme","arrowup","experiment","<div style=""border: 3px solid #000000; position: fixed;left:14%;top:30%""><img src=""deer"" width=""300""></div><div style=""border: 3px solid #000000; position: fixed;left:64%;top:30%""><img src=""beer"" width=""300""></div>",1,NA,"No","I mentally ""stated"" the words as a pair.","arrowup","ortho",1.67,3.3,"low_verbal","UhCBWnbb",0.65,0.75,4,2.6484,3.5856,0.9372
142,142,"cab","king",34,59097,"rhyme-same_different-phon_sim-task_switching",1461.70000000298,"rhyme","arrowdown","experiment","<div style=""border: 3px solid #000000; position: fixed;left:14%;top:30%""><img src=""king"" width=""300""></div><div style=""border: 3px solid #000000; position: fixed;left:64%;top:30%""><img src=""cab"" width=""300""></div>",1,NA,"No","I said the words in my head.","arrowdown","NR",4.67,4.4,"high_verbal","2Ie4vXKm",0.8,0.05,5,3.8191,3.2617,0.5574
143,143,"cab","king",34,807221,"rhyme-same_different-task_switching-phon_sim",2956.59999990463,"rhyme","arrowdown","experiment","<div style=""border: 3px solid #000000; position: fixed;left:14%;top:30%""><img src=""king"" width=""300""></div><div style=""border: 3px solid #000000; position: fixed;left:64%;top:30%""><img src=""cab"" width=""300""></div>",1,NA,"No","I had to guess at first for some of these.","arrowdown","NR",2.58,3.7,"low_verbal","lAeE5wTL",0.8,0.05,6,3.8191,3.2617,0.5574
144,144,"chain","plane",34,67701,"rhyme-task_switching-same_different-phon_sim",1204.19999999553,"rhyme","arrowup","experiment","<div style=""border: 3px solid #000000; position: fixed;left:14%;top:30%""><img src=""plane"" width=""300""></div><div style=""border: 3px solid #000000; position: fixed;left:64%;top:30%""><img src=""chain"" width=""300""></div>",1,NA,"No","No, I just said it in my head rather than out loud.","arrowup","non-ortho",4.75,4.5,"high_verbal","XWkUpOyp",0.35,0.95,6,3.6878,3.0346,0.6532
145,145,"cone","bone",34,104182,"rhyme-task_switching-same_different-phon_sim",1367,"rhyme","arrowdown","experiment","<div style=""border: 3px solid #000000; position: fixed;left:14%;top:30%""><img src=""bone"" width=""300""></div><div style=""border: 3px solid #000000; position: fixed;left:64%;top:30%""><img src=""cone"" width=""300""></div>",0,NA,"No","I said the pictures in my head before choosing.","arrowup","ortho",1.75,3.9,"low_verbal","Xa9ISMwC",0.95,0.7,5,3.1239,2.1761,0.9478
146,146,"crab","spoon",34,134801,"rhyme-task_switching-same_different-phon_sim",NA,"rhyme","null","experiment","<div style=""border: 3px solid #000000; position: fixed;left:14%;top:30%""><img src=""spoon"" width=""300""></div><div style=""border: 3px solid #000000; position: fixed;left:64%;top:30%""><img src=""crab"" width=""300""></div>",0,NA,"No","no","arrowdown","NR",2.33,2.5,"low_verbal","TFWelN7f",1,0.95,5,2.5899,2.5478,0.0421
147,147,"fox","socks",34,272232,"rhyme-same_different-phon_sim-task_switching",1250.79999999702,"rhyme","arrowup","experiment","<div style=""border: 3px solid #000000; position: fixed;left:14%;top:30%""><img src=""socks"" width=""300""></div><div style=""border: 3px solid #000000; position: fixed;left:64%;top:30%""><img src=""fox"" width=""300""></div>",1,NA,"Yes","think of the most simple word for the image","arrowup","non-ortho",4.25,4.1,"high_verbal","sZLRQDIR",0.9,0.85,4,2.9699,3.0426,0.0727000000000002
148,148,"heart","dart",34,75860,"rhyme-task_switching-phon_sim-same_different",3339.39999997616,"rhyme","arrowdown","experiment","<div style=""border: 3px solid #000000; position: fixed;left:14%;top:30%""><img src=""dart"" width=""300""></div><div style=""border: 3px solid #000000; position: fixed;left:64%;top:30%""><img src=""heart"" width=""300""></div>",0,NA,"Yes","no","arrowup","non-ortho",4.166667,4.1,"high_verbal","c8Txd3Z5",0.9,0.9,6,1.9956,4.0953,2.0997
149,149,"leg","egg",34,137411,"rhyme-phon_sim-task_switching-same_different",2453.70000000298,"rhyme","arrowup","experiment","<div style=""border: 3px solid #000000; position: fixed;left:14%;top:30%""><img src=""egg"" width=""300""></div><div style=""border: 3px solid #000000; position: fixed;left:64%;top:30%""><img src=""leg"" width=""300""></div>",1,NA,"Yes","No","arrowup","ortho",2.25,1.8,"low_verbal","AZihdj82",0.95,0.85,4,3.1235,3.4598,0.3363
150,150,"leg","egg",34,89133,"rhyme-same_different-phon_sim-task_switching",2223.20000004768,"rhyme","arrowup","experiment","<div style=""border: 3px solid #000000; position: fixed;left:14%;top:30%""><img src=""egg"" width=""300""></div><div style=""border: 3px solid #000000; position: fixed;left:64%;top:30%""><img src=""leg"" width=""300""></div>",1,NA,"No","Said in my mind, not vocally","arrowup","ortho",3.08333333333333,3.9,"low_verbal","NS1YHcvi",0.95,0.85,5,3.1235,3.4598,0.3363
151,151,"moon","spoon",34,2395715,"rhyme-same_different-phon_sim-task_switching",2235.5,"rhyme","arrowup","experiment","<div style=""border: 3px solid #000000; position: fixed;left:14%;top:30%""><img src=""spoon"" width=""300""></div><div style=""border: 3px solid #000000; position: fixed;left:64%;top:30%""><img src=""moon"" width=""300""></div>",1,NA,"Yes","I just went with my gut intuition","arrowup","ortho",4.75,5,"high_verbal","DuDDHkI9",1,0.95,6,2.5899,3.4064,0.8165
152,152,"moon","spoon",34,217980,"rhyme-same_different-task_switching-phon_sim",1395,"rhyme","arrowup","experiment","<div style=""border: 3px solid #000000; position: fixed;left:14%;top:30%""><img src=""spoon"" width=""300""></div><div style=""border: 3px solid #000000; position: fixed;left:64%;top:30%""><img src=""moon"" width=""300""></div>",1,NA,"Yes","I tried to quickly reference in my mind if I had heard the two words referenced together in rhyme before. I also tried to think ahead about what rhymed with certain words.","arrowup","ortho",5,4.8,"high_verbal","m6nAacjH",1,0.95,6,2.5899,3.4064,0.8165
153,153,"pear","chair",34,81092,"rhyme-task_switching-phon_sim-same_different",1534.69999992847,"rhyme","arrowup","experiment","<div style=""border: 3px solid #000000; position: fixed;left:14%;top:30%""><img src=""chair"" width=""300""></div><div style=""border: 3px solid #000000; position: fixed;left:64%;top:30%""><img src=""pear"" width=""300""></div>",1,NA,"No","no_answer","arrowup","non-ortho",4.25,3.7,"high_verbal","ts7nbQkN",0.95,0.95,4,3.4,1.8388,1.5612
154,154,"ring","king",34,92121,"rhyme-task_switching-phon_sim-same_different",2125.10000014305,"rhyme","arrowup","experiment","<div style=""border: 3px solid #000000; position: fixed;left:14%;top:30%""><img src=""king"" width=""300""></div><div style=""border: 3px solid #000000; position: fixed;left:64%;top:30%""><img src=""ring"" width=""300""></div>",1,NA,"No","I always viewed the picture on the left first","arrowup","ortho",3,3.5,"low_verbal","qkCSFiGm",0.8,0.9,6,3.8191,3.675,0.1441
155,155,"screw","train",34,1310513,"rhyme-phon_sim-same_different-task_switching",1945.80000001192,"rhyme","arrowdown","experiment","<div style=""border: 3px solid #000000; position: fixed;left:14%;top:30%""><img src=""train"" width=""300""></div><div style=""border: 3px solid #000000; position: fixed;left:64%;top:30%""><img src=""screw"" width=""300""></div>",1,NA,"Yes","no_answer","arrowdown","NR",2.25,3.7,"low_verbal","05Wo9IGy",0.95,1,6,3.6857,3.2817,0.404
156,156,"seal","wheel",34,99949,"rhyme-phon_sim-task_switching-same_different",2107.89999997616,"rhyme","arrowup","experiment","<div style=""border: 3px solid #000000; position: fixed;left:14%;top:30%""><img src=""wheel"" width=""300""></div><div style=""border: 3px solid #000000; position: fixed;left:64%;top:30%""><img src=""seal"" width=""300""></div>",1,NA,"Yes","Sometimes it seemed like I was trying to make words rhyme by the way I was saying them.","arrowup","non-ortho",2.91666666666667,3.3,"low_verbal","Ds5BnIYz",0.75,0.75,6,3.1402,2.8768,0.2634
157,157,"shoe","screw",34,110549,"rhyme-phon_sim-same_different-task_switching",1917.5,"rhyme","arrowup","experiment","<div style=""border: 3px solid #000000; position: fixed;left:14%;top:30%""><img src=""screw"" width=""300""></div><div style=""border: 3px solid #000000; position: fixed;left:64%;top:30%""><img src=""shoe"" width=""300""></div>",1,NA,"Yes","no_answer","arrowup","non-ortho",3.08333333333333,3.2,"low_verbal","4KFmznfv",1,0.85,5,3.2817,3.1906,0.0911
158,158,"shoe","screw",34,102582,"rhyme-phon_sim-task_switching-same_different",1971.40000000596,"rhyme","arrowup","experiment","<div style=""border: 3px solid #000000; position: fixed;left:14%;top:30%""><img src=""screw"" width=""300""></div><div style=""border: 3px solid #000000; position: fixed;left:64%;top:30%""><img src=""shoe"" width=""300""></div>",1,NA,"No","I said the words in my head and made my selection as quickly as possible.","arrowup","non-ortho",4.416667,4.2,"high_verbal","Qy5J1Mxs",1,0.85,6,3.2817,3.1906,0.0911
159,159,"sock","cat",34,122727,"rhyme-task_switching-phon_sim-same_different",1495.5,"rhyme","arrowdown","experiment","<div style=""border: 3px solid #000000; position: fixed;left:14%;top:30%""><img src=""cat"" width=""300""></div><div style=""border: 3px solid #000000; position: fixed;left:64%;top:30%""><img src=""sock"" width=""300""></div>",1,NA,"Yes","It got easier as I knew each picture better.","arrowdown","NR",4.75,4.5,"high_verbal","NRFUWLZO",0.9,0.9,6,3.5294,2.6618,0.8676
160,160,"square","bear",34,129307,"rhyme-phon_sim-same_different-task_switching",3497.29999999702,"rhyme","arrowup","experiment","<div style=""border: 3px solid #000000; position: fixed;left:14%;top:30%""><img src=""bear"" width=""300""></div><div style=""border: 3px solid #000000; position: fixed;left:64%;top:30%""><img src=""square"" width=""300""></div>",1,NA,"Yes","nothing","arrowup","non-ortho",4.67,4.7,"high_verbal","lcQfoynH",0.95,0.85,6,3.4667,3.2098,0.2569
161,161,"square","bear",34,297286,"rhyme-phon_sim-same_different-task_switching",2399.5,"rhyme","arrowup","experiment","<div style=""border: 3px solid #000000; position: fixed;left:14%;top:30%""><img src=""bear"" width=""300""></div><div style=""border: 3px solid #000000; position: fixed;left:64%;top:30%""><img src=""square"" width=""300""></div>",1,NA,"No","I said it in my head ""aloud"".","arrowup","non-ortho",2.42,4.6,"low_verbal","HPiIXyO1",0.95,0.85,6,3.4667,3.2098,0.2569
162,162,"tie","eye",34,91621,"rhyme-phon_sim-same_different-task_switching",1329,"rhyme","arrowup","experiment","<div style=""border: 3px solid #000000; position: fixed;left:14%;top:30%""><img src=""eye"" width=""300""></div><div style=""border: 3px solid #000000; position: fixed;left:64%;top:30%""><img src=""tie"" width=""300""></div>",1,NA,"Yes","used the pictures after I had seen them a few times","arrowup","non-ortho",4.83333333333333,4,"high_verbal","xnNpmgQR",0.95,0.7,5,3.756,3.3555,0.4005
163,163,"whale","nail",34,72142,"rhyme-task_switching-same_different-phon_sim",4325.60000000894,"rhyme","arrowdown","experiment","<div style=""border: 3px solid #000000; position: fixed;left:14%;top:30%""><img src=""nail"" width=""300""></div><div style=""border: 3px solid #000000; position: fixed;left:64%;top:30%""><img src=""whale"" width=""300""></div>",0,NA,"Yes","no_answer","arrowup","non-ortho",2.83333333333333,3.2,"low_verbal","hRiDYGB2",0.95,0.95,5,2.9786,2.7597,0.2189
164,164,"whale","jar",34,163725,"rhyme-same_different-task_switching-phon_sim",894.300000190735,"rhyme","arrowup","experiment","<div style=""border: 3px solid #000000; position: fixed;left:14%;top:30%""><img src=""jar"" width=""300""></div><div style=""border: 3px solid #000000; position: fixed;left:64%;top:30%""><img src=""whale"" width=""300""></div>",0,NA,"Yes","no","arrowdown","NR",2.67,3,"low_verbal","wDmKNbjb",0.95,0.95,5,2.6284,2.7597,0.1313
165,165,"bag","flag",37,79241,"rhyme-task_switching-phon_sim-same_different",1855.30000001192,"rhyme","arrowup","experiment","<div style=""border: 3px solid #000000; position: fixed;left:14%;top:30%""><img src=""flag"" width=""300""></div><div style=""border: 3px solid #000000; position: fixed;left:64%;top:30%""><img src=""bag"" width=""300""></div>",1,NA,"Yes","no","arrowup","ortho",4.166667,4.1,"high_verbal","c8Txd3Z5",0.9,0.95,7,2.9509,3.681,0.7301
166,166,"beer","claw",37,97622,"rhyme-task_switching-same_different-phon_sim",1834,"rhyme","arrowdown","experiment","<div style=""border: 3px solid #000000; position: fixed;left:14%;top:30%""><img src=""claw"" width=""300""></div><div style=""border: 3px solid #000000; position: fixed;left:64%;top:30%""><img src=""beer"" width=""300""></div>",1,NA,"No","I mentally ""stated"" the words as a pair.","arrowdown","NR",1.67,3.3,"low_verbal","UhCBWnbb",0.55,0.75,5,2.3502,3.5856,1.2354
167,167,"bell","nose",37,809766,"rhyme-same_different-task_switching-phon_sim",1768.10000002384,"rhyme","arrowdown","experiment","<div style=""border: 3px solid #000000; position: fixed;left:14%;top:30%""><img src=""nose"" width=""300""></div><div style=""border: 3px solid #000000; position: fixed;left:64%;top:30%""><img src=""bell"" width=""300""></div>",1,NA,"No","I had to guess at first for some of these.","arrowdown","NR",2.58,3.7,"low_verbal","lAeE5wTL",1,0.9,7,3.5512,3.3025,0.2487
168,168,"bell","nose",37,91746,"rhyme-same_different-phon_sim-task_switching",1602.29999995232,"rhyme","arrowdown","experiment","<div style=""border: 3px solid #000000; position: fixed;left:14%;top:30%""><img src=""nose"" width=""300""></div><div style=""border: 3px solid #000000; position: fixed;left:64%;top:30%""><img src=""bell"" width=""300""></div>",1,NA,"No","Said in my mind, not vocally","arrowdown","NR",3.08333333333333,3.9,"low_verbal","NS1YHcvi",1,0.9,6,3.5512,3.3025,0.2487
169,169,"chair","drawer",37,77292,"rhyme-task_switching-same_different-phon_sim",2687.39999999851,"rhyme","arrowdown","experiment","<div style=""border: 3px solid #000000; position: fixed;left:14%;top:30%""><img src=""drawer"" width=""300""></div><div style=""border: 3px solid #000000; position: fixed;left:64%;top:30%""><img src=""chair"" width=""300""></div>",1,NA,"No","np","arrowdown","NR",2.92,4.2,"low_verbal","7rrmnKSW",0.8,0.95,6,2.8222,3.4,0.5778
170,170,"chair","drawer",37,140583,"rhyme-task_switching-same_different-phon_sim",NA,"rhyme","null","experiment","<div style=""border: 3px solid #000000; position: fixed;left:14%;top:30%""><img src=""drawer"" width=""300""></div><div style=""border: 3px solid #000000; position: fixed;left:64%;top:30%""><img src=""chair"" width=""300""></div>",0,NA,"No","no","arrowdown","NR",2.33,2.5,"low_verbal","TFWelN7f",0.8,0.95,6,2.8222,3.4,0.5778
171,171,"clock","sock",37,165799,"rhyme-same_different-task_switching-phon_sim",796,"rhyme","arrowup","experiment","<div style=""border: 3px solid #000000; position: fixed;left:14%;top:30%""><img src=""sock"" width=""300""></div><div style=""border: 3px solid #000000; position: fixed;left:64%;top:30%""><img src=""clock"" width=""300""></div>",1,NA,"Yes","no","arrowup","ortho",2.67,3,"low_verbal","wDmKNbjb",0.9,0.95,6,2.6618,3.4758,0.814
172,172,"crab","spoon",37,57735,"rhyme-phon_sim-task_switching-same_different",1496.90000009537,"rhyme","arrowdown","experiment","<div style=""border: 3px solid #000000; position: fixed;left:14%;top:30%""><img src=""spoon"" width=""300""></div><div style=""border: 3px solid #000000; position: fixed;left:64%;top:30%""><img src=""crab"" width=""300""></div>",1,NA,"Yes","no","arrowdown","NR",1.33,1.9,"low_verbal","5WF1GwNy",1,0.95,5,2.5899,2.5478,0.0421
173,173,"crane","train",37,96677,"rhyme-task_switching-phon_sim-same_different",NA,"rhyme","null","experiment","<div style=""border: 3px solid #000000; position: fixed;left:14%;top:30%""><img src=""train"" width=""300""></div><div style=""border: 3px solid #000000; position: fixed;left:64%;top:30%""><img src=""crane"" width=""300""></div>",0,NA,"No","Some of the pictures weren't clear as to what it was mainly about. I said the words in my head","arrowup","non-ortho",2.58,2.4,"low_verbal","GJMX4RUC",0.95,0.7,5,3.6857,3.2343,0.4514
174,174,"crane","train",37,171791,"rhyme-same_different-task_switching-phon_sim",1733.90000009537,"rhyme","arrowdown","experiment","<div style=""border: 3px solid #000000; position: fixed;left:14%;top:30%""><img src=""train"" width=""300""></div><div style=""border: 3px solid #000000; position: fixed;left:64%;top:30%""><img src=""crane"" width=""300""></div>",0,NA,"No","some were hard to tell what they were supposed to be","arrowup","non-ortho",1.42,2.7,"low_verbal","fX6rWWkd",0.95,0.7,6,3.6857,3.2343,0.4514
175,175,"heart","dart",37,133136,"rhyme-phon_sim-same_different-task_switching",2309,"rhyme","arrowup","experiment","<div style=""border: 3px solid #000000; position: fixed;left:14%;top:30%""><img src=""dart"" width=""300""></div><div style=""border: 3px solid #000000; position: fixed;left:64%;top:30%""><img src=""heart"" width=""300""></div>",1,NA,"Yes","nothing","arrowup","non-ortho",4.67,4.7,"high_verbal","lcQfoynH",0.9,0.9,7,1.9956,4.0953,2.0997
176,176,"jar","star",37,274499,"rhyme-same_different-phon_sim-task_switching",1182.90000000596,"rhyme","arrowup","experiment","<div style=""border: 3px solid #000000; position: fixed;left:14%;top:30%""><img src=""star"" width=""300""></div><div style=""border: 3px solid #000000; position: fixed;left:64%;top:30%""><img src=""jar"" width=""300""></div>",1,NA,"Yes","think of the most simple word for the image","arrowup","ortho",4.25,4.1,"high_verbal","sZLRQDIR",0.95,0.95,5,3.618,2.6284,0.9896
177,177,"leg","egg",37,301552,"rhyme-phon_sim-same_different-task_switching",3493.80000000075,"rhyme","arrowup","experiment","<div style=""border: 3px solid #000000; position: fixed;left:14%;top:30%""><img src=""egg"" width=""300""></div><div style=""border: 3px solid #000000; position: fixed;left:64%;top:30%""><img src=""leg"" width=""300""></div>",1,NA,"No","I said it in my head ""aloud"".","arrowup","ortho",2.42,4.6,"low_verbal","HPiIXyO1",0.95,0.85,7,3.1235,3.4598,0.3363
178,178,"moon","spoon",37,93937,"rhyme-phon_sim-same_different-task_switching",1309,"rhyme","arrowup","experiment","<div style=""border: 3px solid #000000; position: fixed;left:14%;top:30%""><img src=""spoon"" width=""300""></div><div style=""border: 3px solid #000000; position: fixed;left:64%;top:30%""><img src=""moon"" width=""300""></div>",1,NA,"Yes","used the pictures after I had seen them a few times","arrowup","ortho",4.83333333333333,4,"high_verbal","xnNpmgQR",1,0.95,6,2.5899,3.4064,0.8165
179,179,"nose","rose",37,105551,"rhyme-phon_sim-task_switching-same_different",1451.89999997616,"rhyme","arrowup","experiment","<div style=""border: 3px solid #000000; position: fixed;left:14%;top:30%""><img src=""rose"" width=""300""></div><div style=""border: 3px solid #000000; position: fixed;left:64%;top:30%""><img src=""nose"" width=""300""></div>",1,NA,"No","I said the words in my head and made my selection as quickly as possible.","arrowup","ortho",4.416667,4.2,"high_verbal","Qy5J1Mxs",0.95,1,7,3.4322,3.5512,0.119
180,180,"plane","fly",37,83913,"rhyme-task_switching-phon_sim-same_different",1556.39999997616,"rhyme","arrowdown","experiment","<div style=""border: 3px solid #000000; position: fixed;left:14%;top:30%""><img src=""fly"" width=""300""></div><div style=""border: 3px solid #000000; position: fixed;left:64%;top:30%""><img src=""plane"" width=""300""></div>",1,NA,"No","no_answer","arrowdown","NR",4.25,3.7,"high_verbal","ts7nbQkN",0.95,0.35,5,3.6371,3.6878,0.0507
181,181,"ring","king",37,1312697,"rhyme-phon_sim-same_different-task_switching",1176.80000001192,"rhyme","arrowup","experiment","<div style=""border: 3px solid #000000; position: fixed;left:14%;top:30%""><img src=""king"" width=""300""></div><div style=""border: 3px solid #000000; position: fixed;left:64%;top:30%""><img src=""ring"" width=""300""></div>",1,NA,"Yes","no_answer","arrowup","ortho",2.25,3.7,"low_verbal","05Wo9IGy",0.8,0.9,7,3.8191,3.675,0.1441
182,182,"rose","well",37,58740,"rhyme-phon_sim-same_different-task_switching",1251.69999998808,"rhyme","arrowdown","experiment","<div style=""border: 3px solid #000000; position: fixed;left:14%;top:30%""><img src=""well"" width=""300""></div><div style=""border: 3px solid #000000; position: fixed;left:64%;top:30%""><img src=""rose"" width=""300""></div>",1,NA,"No","said mentally","arrowdown","NR",4.166667,3.8,"high_verbal","RHqN8QGm",0.95,0.95,6,5.1833,3.4322,1.7511
183,183,"rose","well",37,102935,"rhyme-phon_sim-task_switching-same_different",1477.59999999404,"rhyme","arrowdown","experiment","<div style=""border: 3px solid #000000; position: fixed;left:14%;top:30%""><img src=""well"" width=""300""></div><div style=""border: 3px solid #000000; position: fixed;left:64%;top:30%""><img src=""rose"" width=""300""></div>",1,NA,"Yes","Sometimes it seemed like I was trying to make words rhyme by the way I was saying them.","arrowdown","NR",2.91666666666667,3.3,"low_verbal","Ds5BnIYz",0.95,0.95,7,5.1833,3.4322,1.7511
184,184,"screw","train",37,63032,"rhyme-same_different-phon_sim-task_switching",2397.70000000298,"rhyme","arrowdown","experiment","<div style=""border: 3px solid #000000; position: fixed;left:14%;top:30%""><img src=""train"" width=""300""></div><div style=""border: 3px solid #000000; position: fixed;left:64%;top:30%""><img src=""screw"" width=""300""></div>",1,NA,"No","I said the words in my head.","arrowdown","NR",4.67,4.4,"high_verbal","2Ie4vXKm",0.95,1,6,3.6857,3.2817,0.404
185,185,"seal","wheel",37,128623,"rhyme-task_switching-phon_sim-same_different",4624.39999999851,"rhyme","arrowup","experiment","<div style=""border: 3px solid #000000; position: fixed;left:14%;top:30%""><img src=""wheel"" width=""300""></div><div style=""border: 3px solid #000000; position: fixed;left:64%;top:30%""><img src=""seal"" width=""300""></div>",1,NA,"Yes","It got easier as I knew each picture better.","arrowup","non-ortho",4.75,4.5,"high_verbal","NRFUWLZO",0.75,0.75,7,3.1402,2.8768,0.2634
186,186,"seal","wheel",37,96767,"rhyme-task_switching-phon_sim-same_different",3881.09999990463,"rhyme","arrowup","experiment","<div style=""border: 3px solid #000000; position: fixed;left:14%;top:30%""><img src=""wheel"" width=""300""></div><div style=""border: 3px solid #000000; position: fixed;left:64%;top:30%""><img src=""seal"" width=""300""></div>",1,NA,"No","I always viewed the picture on the left first","arrowup","non-ortho",3,3.5,"low_verbal","qkCSFiGm",0.75,0.75,7,3.1402,2.8768,0.2634
187,187,"snail","key",37,107982,"rhyme-task_switching-same_different-phon_sim",2292.3,"rhyme","arrowdown","experiment","<div style=""border: 3px solid #000000; position: fixed;left:14%;top:30%""><img src=""key"" width=""300""></div><div style=""border: 3px solid #000000; position: fixed;left:64%;top:30%""><img src=""snail"" width=""300""></div>",1,NA,"No","I said the pictures in my head before choosing.","arrowdown","NR",1.75,3.9,"low_verbal","Xa9ISMwC",0.95,0.95,6,3.6465,1.959,1.6875
188,188,"snail","key",37,96445,"rhyme-same_different-task_switching-phon_sim",2050.29999999702,"rhyme","arrowdown","experiment","<div style=""border: 3px solid #000000; position: fixed;left:14%;top:30%""><img src=""key"" width=""300""></div><div style=""border: 3px solid #000000; position: fixed;left:64%;top:30%""><img src=""snail"" width=""300""></div>",1,NA,"Yes","no","arrowdown","NR",2.5,3,"low_verbal","OE580Gi8",0.95,0.95,5,3.6465,1.959,1.6875
189,189,"sock","cat",37,221940,"rhyme-same_different-task_switching-phon_sim",2702,"rhyme","arrowdown","experiment","<div style=""border: 3px solid #000000; position: fixed;left:14%;top:30%""><img src=""cat"" width=""300""></div><div style=""border: 3px solid #000000; position: fixed;left:64%;top:30%""><img src=""sock"" width=""300""></div>",1,NA,"Yes","I tried to quickly reference in my mind if I had heard the two words referenced together in rhyme before. I also tried to think ahead about what rhymed with certain words.","arrowdown","NR",5,4.8,"high_verbal","m6nAacjH",0.9,0.9,7,3.5294,2.6618,0.8676
190,190,"square","bear",37,140068,"rhyme-phon_sim-task_switching-same_different",1656.29999999702,"rhyme","arrowup","experiment","<div style=""border: 3px solid #000000; position: fixed;left:14%;top:30%""><img src=""bear"" width=""300""></div><div style=""border: 3px solid #000000; position: fixed;left:64%;top:30%""><img src=""square"" width=""300""></div>",1,NA,"Yes","No","arrowup","non-ortho",2.25,1.8,"low_verbal","AZihdj82",0.95,0.85,5,3.4667,3.2098,0.2569
191,191,"tie","dart",37,114003,"rhyme-phon_sim-same_different-task_switching",1938.69999980927,"rhyme","arrowdown","experiment","<div style=""border: 3px solid #000000; position: fixed;left:14%;top:30%""><img src=""dart"" width=""300""></div><div style=""border: 3px solid #000000; position: fixed;left:64%;top:30%""><img src=""tie"" width=""300""></div>",1,NA,"Yes","no_answer","arrowdown","NR",3.08333333333333,3.2,"low_verbal","4KFmznfv",0.9,0.7,6,1.9956,3.3555,1.3599
192,192,"tie","dart",37,70375,"rhyme-same_different-task_switching-phon_sim",1944.60000002384,"rhyme","arrowdown","experiment","<div style=""border: 3px solid #000000; position: fixed;left:14%;top:30%""><img src=""dart"" width=""300""></div><div style=""border: 3px solid #000000; position: fixed;left:64%;top:30%""><img src=""tie"" width=""300""></div>",1,NA,"No","no_answer","arrowdown","NR",2.17,3.9,"low_verbal","vhsbIoXa",0.9,0.7,5,1.9956,3.3555,1.3599
193,193,"tree","key",37,69694,"rhyme-task_switching-same_different-phon_sim",988.60000000149,"rhyme","arrowup","experiment","<div style=""border: 3px solid #000000; position: fixed;left:14%;top:30%""><img src=""key"" width=""300""></div><div style=""border: 3px solid #000000; position: fixed;left:64%;top:30%""><img src=""tree"" width=""300""></div>",1,NA,"No","No, I just said it in my head rather than out loud.","arrowup","non-ortho",4.75,4.5,"high_verbal","XWkUpOyp",0.95,0.85,7,3.6465,3.5206,0.1259
194,194,"whale","snail",37,76899,"rhyme-task_switching-same_different-phon_sim",3222.90000000596,"rhyme","arrowdown","experiment","<div style=""border: 3px solid #000000; position: fixed;left:14%;top:30%""><img src=""snail"" width=""300""></div><div style=""border: 3px solid #000000; position: fixed;left:64%;top:30%""><img src=""whale"" width=""300""></div>",0,NA,"Yes","no_answer","arrowup","non-ortho",2.83333333333333,3.2,"low_verbal","hRiDYGB2",0.95,0.95,6,1.959,2.7597,0.8007
195,195,"bag","flag",40,167311,"rhyme-same_different-task_switching-phon_sim",751,"rhyme","arrowup","experiment","<div style=""border: 3px solid #000000; position: fixed;left:14%;top:30%""><img src=""flag"" width=""300""></div><div style=""border: 3px solid #000000; position: fixed;left:64%;top:30%""><img src=""bag"" width=""300""></div>",1,NA,"Yes","no","arrowup","ortho",2.67,3,"low_verbal","wDmKNbjb",0.9,0.95,7,2.9509,3.681,0.7301
196,196,"brain","chain",40,72236,"rhyme-task_switching-same_different-phon_sim",1287,"rhyme","arrowup","experiment","<div style=""border: 3px solid #000000; position: fixed;left:14%;top:30%""><img src=""chain"" width=""300""></div><div style=""border: 3px solid #000000; position: fixed;left:64%;top:30%""><img src=""brain"" width=""300""></div>",1,NA,"No","No, I just said it in my head rather than out loud.","arrowup","ortho",4.75,4.5,"high_verbal","XWkUpOyp",0.95,0.95,8,3.0346,3.5943,0.5597
197,197,"cab","king",40,117994,"rhyme-phon_sim-same_different-task_switching",3225.29999995232,"rhyme","arrowdown","experiment","<div style=""border: 3px solid #000000; position: fixed;left:14%;top:30%""><img src=""king"" width=""300""></div><div style=""border: 3px solid #000000; position: fixed;left:64%;top:30%""><img src=""cab"" width=""300""></div>",1,NA,"Yes","no_answer","arrowdown","NR",3.08333333333333,3.2,"low_verbal","4KFmznfv",0.8,0.05,7,3.8191,3.2617,0.5574
198,198,"chair","drawer",40,812935,"rhyme-same_different-task_switching-phon_sim",1885.5,"rhyme","arrowdown","experiment","<div style=""border: 3px solid #000000; position: fixed;left:14%;top:30%""><img src=""drawer"" width=""300""></div><div style=""border: 3px solid #000000; position: fixed;left:64%;top:30%""><img src=""chair"" width=""300""></div>",1,NA,"No","I had to guess at first for some of these.","arrowdown","NR",2.58,3.7,"low_verbal","lAeE5wTL",0.8,0.95,8,2.8222,3.4,0.5778
199,199,"chair","drawer",40,112746,"rhyme-task_switching-same_different-phon_sim",2370,"rhyme","arrowdown","experiment","<div style=""border: 3px solid #000000; position: fixed;left:14%;top:30%""><img src=""drawer"" width=""300""></div><div style=""border: 3px solid #000000; position: fixed;left:64%;top:30%""><img src=""chair"" width=""300""></div>",1,NA,"Yes","no_answer","arrowdown","NR",3,3.8,"low_verbal","xa4C6HC1",0.8,0.95,6,2.8222,3.4,0.5778
200,200,"claw","saw",40,135741,"rhyme-phon_sim-same_different-task_switching",1589.39999999851,"rhyme","arrowup","experiment","<div style=""border: 3px solid #000000; position: fixed;left:14%;top:30%""><img src=""saw"" width=""300""></div><div style=""border: 3px solid #000000; position: fixed;left:64%;top:30%""><img src=""claw"" width=""300""></div>",1,NA,"Yes","nothing","arrowup","ortho",4.67,4.7,"high_verbal","lcQfoynH",1,0.55,8,4.3123,2.3502,1.9621
201,201,"door","drawer",40,80540,"rhyme-task_switching-same_different-phon_sim",2863.70000000298,"rhyme","arrowup","experiment","<div style=""border: 3px solid #000000; position: fixed;left:14%;top:30%""><img src=""drawer"" width=""300""></div><div style=""border: 3px solid #000000; position: fixed;left:64%;top:30%""><img src=""door"" width=""300""></div>",1,NA,"Yes","no_answer","arrowup","non-ortho",2.83333333333333,3.2,"low_verbal","hRiDYGB2",0.8,0.95,7,2.8222,4.1731,1.3509
202,202,"door","drawer",40,105744,"rhyme-phon_sim-task_switching-same_different",1295.19999998808,"rhyme","arrowup","experiment","<div style=""border: 3px solid #000000; position: fixed;left:14%;top:30%""><img src=""drawer"" width=""300""></div><div style=""border: 3px solid #000000; position: fixed;left:64%;top:30%""><img src=""door"" width=""300""></div>",1,NA,"Yes","Sometimes it seemed like I was trying to make words rhyme by the way I was saying them.","arrowup","non-ortho",2.91666666666667,3.3,"low_verbal","Ds5BnIYz",0.8,0.95,8,2.8222,4.1731,1.3509
203,203,"door","tree",40,1315611,"rhyme-phon_sim-same_different-task_switching",1656.60000002384,"rhyme","arrowdown","experiment","<div style=""border: 3px solid #000000; position: fixed;left:14%;top:30%""><img src=""tree"" width=""300""></div><div style=""border: 3px solid #000000; position: fixed;left:64%;top:30%""><img src=""door"" width=""300""></div>",1,NA,"Yes","no_answer","arrowdown","NR",2.25,3.7,"low_verbal","05Wo9IGy",0.85,0.95,8,3.5206,4.1731,0.6525
204,204,"fox","socks",40,100109,"rhyme-task_switching-phon_sim-same_different",1832.30000019073,"rhyme","arrowup","experiment","<div style=""border: 3px solid #000000; position: fixed;left:14%;top:30%""><img src=""socks"" width=""300""></div><div style=""border: 3px solid #000000; position: fixed;left:64%;top:30%""><img src=""fox"" width=""300""></div>",1,NA,"No","I always viewed the picture on the left first","arrowup","non-ortho",3,3.5,"low_verbal","qkCSFiGm",0.9,0.85,8,2.9699,3.0426,0.0727000000000002
205,205,"fox","box",40,146857,"rhyme-task_switching-same_different-phon_sim",NA,"rhyme","null","experiment","<div style=""border: 3px solid #000000; position: fixed;left:14%;top:30%""><img src=""box"" width=""300""></div><div style=""border: 3px solid #000000; position: fixed;left:64%;top:30%""><img src=""fox"" width=""300""></div>",0,NA,"No","no","arrowup","ortho",2.33,2.5,"low_verbal","TFWelN7f",0.95,0.85,7,3.6607,3.0426,0.6181
